accel_x (m/s^2),accel_y (m/s^2),accel_z (m/s^2)
-7.026577626212383160e-03,-5.939194764434390858e-03,-9.795658603274759457e+00
8.368308249066086849e-03,6.002217342794112119e-04,-9.794977999327413087e+00
-1.934874522739275966e-03,8.078501133989676643e-04,-9.788843529881887662e+00
-1.651987853095581750e-03,8.171975188918323418e-03,-9.786576779161624273e+00
5.961939797242828479e-03,-5.847829132138095305e-03,-9.795062020655960211e+00
1.059013797505264746e-02,4.129200777227574372e-03,-9.797062158404115095e+00
1.585282858344976703e-02,-2.036573910041821270e-03,-9.803637423095558745e+00
3.941281928338900148e-03,-1.496215236174966261e-03,-9.793673717400398715e+00
2.868695459398003245e-02,-5.067327666839446451e-03,-9.787517783052779308e+00
2.596748856311160980e-02,-2.906735945720380181e-03,-9.794072390906270797e+00
2.388129685247807749e-02,1.728420370866438731e-03,-9.793767731411273658e+00
3.009425076861879655e-02,1.123646960348145471e-03,-9.791366540178044531e+00
4.671700801940407988e-02,5.959671508876097229e-03,-9.796282688099283931e+00
3.719875732353740416e-02,-1.078130026956880885e-02,-9.792188831907481017e+00
5.161934917331867378e-02,-3.587408030065878002e-03,-9.787598133186818927e+00
5.956999104595798317e-02,7.040202575341903204e-03,-9.789377188908373384e+00
6.895035722945712375e-02,6.883818036090206226e-03,-9.784916827112766669e+00
7.824839492323100443e-02,8.236079693736389831e-03,-9.785667500709498867e+00
8.880474795998401227e-02,3.011918425974879215e-03,-9.793395064536307260e+00
8.768094134516693505e-02,-3.764367090057866346e-03,-9.791802107959274082e+00
1.081630463059064795e-01,-7.378291163269125146e-03,-9.795393746595376427e+00
1.121076558447771376e-01,1.347749658188093780e-02,-9.798880622877151225e+00
1.219855065478060580e-01,-8.054376118597042153e-03,-9.800013600846856576e+00
1.324840715035515426e-01,7.900445197112207496e-03,-9.802142049081425057e+00
1.400099007589884204e-01,-2.405703242854051894e-03,-9.786945852931291157e+00
1.676378064379115962e-01,-3.909885088391682958e-03,-9.801625666777679768e+00
1.864706624191190820e-01,-3.348439647024127781e-03,-9.793085603914049031e+00
1.856327066969976625e-01,6.287700290980390190e-03,-9.786248912719496929e+00
1.908566767531967301e-01,-6.893095650265725072e-03,-9.787536040334225973e+00
2.133664514211689733e-01,-7.003963338172171024e-03,-9.787207679062044363e+00
2.289140025805873890e-01,6.002256554349208765e-04,-9.788749542741637555e+00
2.447196439598148532e-01,-3.491364864685742985e-03,-9.800021205814536174e+00
2.590145253561954020e-01,-3.777563642832308492e-03,-9.785900223872745940e+00
2.675357387137707876e-01,-1.764957683312095649e-03,-9.795779731512560318e+00
2.885365791980127881e-01,6.741051265783890196e-03,-9.795475406877560687e+00
3.139329157559545003e-01,-6.852479474105754517e-03,-9.790897126072430012e+00
3.236964387924499142e-01,-1.443192275631713893e-03,-9.786826027461602351e+00
3.492534899408890059e-01,-1.038129710907552579e-02,-9.784384194833194215e+00
3.658158311764668769e-01,4.901176223100481809e-03,-9.783143576652326701e+00
3.836863673414029341e-01,1.576935225044112914e-03,-9.786480681736005494e+00
3.906993107493302864e-01,-8.319186374195639000e-03,-9.785461211223967837e+00
4.235007385912958333e-01,2.659125369127003733e-03,-9.777580100749272418e+00
4.460001941605353237e-01,1.020487390997541766e-02,-9.783224667524619278e+00
4.621037181824789175e-01,3.958382844128733799e-03,-9.789070711069316033e+00
4.898811368739656169e-01,-1.558853343421886650e-03,-9.776018084247015238e+00
5.051200197352828658e-01,1.147792305033522656e-03,-9.785001548024538920e+00
5.277626201693231822e-01,5.299453655766405563e-03,-9.788412467594721278e+00
5.538937149463832865e-01,2.698193980317181804e-03,-9.773477662656885556e+00
5.777134293319764469e-01,-1.524346702186106560e-03,-9.777910211888723779e+00
5.924181094865019759e-01,5.498621314888756974e-03,-9.773452350154707702e+00
6.217457285757378438e-01,3.325019738039023363e-03,-9.774250716278372053e+00
6.586742141127394090e-01,1.024604015472704334e-02,-9.775399814501211537e+00
6.719498290835175247e-01,4.967167429792334298e-03,-9.772218664353252038e+00
7.079262392982310637e-01,-8.638111705697568490e-03,-9.772065487386553784e+00
7.235009723049211638e-01,6.014576742839907418e-03,-9.768862256669581967e+00
7.527222038661860459e-01,-7.104079082746330744e-03,-9.763303146092857432e+00
7.848829539231042540e-01,-3.889883758564996203e-03,-9.755418513264801916e+00
8.082552226036918697e-01,9.069203425793427933e-03,-9.761023098496748318e+00
8.363588192613545802e-01,1.025787641365203187e-02,-9.759976304935806368e+00
8.790647346714122179e-01,5.978701436663965731e-03,-9.757772787487150268e+00
8.859567096115747997e-01,-1.101439165392016769e-03,-9.750859906710989122e+00
9.268195592405054084e-01,2.605405259090176704e-03,-9.749852898988182304e+00
9.598513215296523571e-01,6.342953968911092116e-03,-9.749680690982543751e+00
9.844217841515179312e-01,-4.722448215049948085e-03,-9.748161706214139244e+00
1.017231024964325048e+00,8.136497672394691488e-03,-9.742463494220466202e+00
1.038054044855657887e+00,2.188390533127733059e-03,-9.737483922133064240e+00
1.072186858676837495e+00,4.371128713074580452e-03,-9.736318259998157032e+00
1.111212227937958374e+00,1.150281117256580056e-03,-9.732558058575339288e+00
1.140332000558799574e+00,-1.059784350677136708e-02,-9.721191044641786405e+00
1.179843149771220956e+00,1.553300962669011210e-03,-9.722873480803089663e+00
1.208871159479184554e+00,4.810912855251915816e-03,-9.723258932547869549e+00
1.243615846744023923e+00,9.089653821061827524e-03,-9.712328554500864186e+00
1.294375364896499070e+00,-3.932731171689258370e-03,-9.698429370682257300e+00
1.316680156125743961e+00,-9.335499511526575145e-03,-9.707614912296909537e+00
1.353586004555238809e+00,3.853751172202021184e-03,-9.697904903862793802e+00
1.399197793600379880e+00,-1.601114441384494762e-03,-9.699817136264801576e+00
1.426374453203750559e+00,6.192521266057983247e-03,-9.690854824772383580e+00
1.462260042579508035e+00,-4.903116122210728414e-03,-9.680746548377957339e+00
1.498956858042440388e+00,5.387500287901187844e-04,-9.680127650869090772e+00
1.543146221012033692e+00,7.293548455814462955e-03,-9.679377961955038856e+00
1.573994188950962325e+00,-1.183096796528751611e-03,-9.660995181280501498e+00
1.619924228092587404e+00,-4.439991965368608740e-03,-9.660176102994171288e+00
1.660936820283784421e+00,8.205463116599956766e-03,-9.649786515539489073e+00
1.695872804070251094e+00,-4.350037879446130677e-03,-9.647791481877357356e+00
1.743666631861469973e+00,3.566750180152507971e-03,-9.640798550827645030e+00
1.770885350594807006e+00,1.147779934102249703e-02,-9.637927984399556891e+00
1.830463451662466934e+00,-4.934518546937180158e-03,-9.624171944363006048e+00
1.864976621641381449e+00,-9.190120806864621530e-04,-9.617571986592341915e+00
1.909876365805444509e+00,3.296926450451971233e-03,-9.615021521075242106e+00
1.959263359473013111e+00,-1.271201060818178633e-03,-9.597027274310997669e+00
1.992931306381854784e+00,-1.611435225695676812e-04,-9.589267121896495993e+00
2.034655212962323656e+00,5.864003400573683175e-03,-9.590721300134740446e+00
2.086982664998631609e+00,6.139495390700730037e-05,-9.567248318022143039e+00
2.123561910198143110e+00,-8.280505765005607109e-04,-9.557438730652474845e+00
2.166578404850659556e+00,-6.357235695873107544e-03,-9.551224992304430117e+00
2.212224066567084257e+00,1.320808070959286762e-03,-9.536431987963831958e+00
2.262106623321580301e+00,-2.515486628689730204e-04,-9.536575340960947500e+00
2.309174935470067691e+00,8.214594618503078590e-04,-9.523864900381374454e+00
2.361170969958411803e+00,-9.431468852573605607e-03,-9.510205291284453466e+00
2.400261190800788480e+00,3.132544205715463020e-03,-9.489480012855484148e+00
2.456079253699880116e+00,2.487529016503571555e-03,-9.485341752147554928e+00
2.496532057516906988e+00,2.797984378164081534e-03,-9.474986271327743736e+00
2.539151518950760966e+00,-6.085748550454714127e-03,-9.464934882904271873e+00
2.592595873982986632e+00,2.509132070761074806e-03,-9.446615793205031864e+00
2.640686696003816447e+00,1.095154602326768416e-03,-9.423352289740581256e+00
2.691742592949482038e+00,-9.477314438772006713e-04,-9.422350532129625478e+00
2.736100425351532195e+00,-1.114196692726981486e-03,-9.413523715958161731e+00
2.794353497012046272e+00,7.342069802111616389e-04,-9.386321367613170708e+00
2.840273450597861959e+00,-3.939988218069500128e-03,-9.385768384153164945e+00
2.892333757972359809e+00,-6.486368115807429786e-03,-9.364713971153813432e+00
2.951311168729899403e+00,6.010573359409495178e-03,-9.344909066011711118e+00
2.996938541196757289e+00,6.092925321776824490e-04,-9.325562453455873424e+00
3.041301152129135321e+00,1.120529727110693152e-02,-9.308911254169407457e+00
3.091610060912054703e+00,-1.283093631773041341e-03,-9.292331986302894364e+00
3.157563514370422375e+00,1.559387064739346015e-03,-9.272460426910532405e+00
3.205888314583716703e+00,4.323285544528409838e-03,-9.255946768146907644e+00
3.253701322039662447e+00,6.726890355736939164e-03,-9.237915259905498999e+00
3.315475234925819414e+00,-1.099875210789310210e-03,-9.220703142439644395e+00
3.372746041546341722e+00,-2.849432138451524384e-03,-9.194877681048378548e+00
3.419897998195073896e+00,-2.850718366317160982e-03,-9.180332885639922225e+00
3.473252199275302043e+00,-4.129514844785156687e-03,-9.148275794353596169e+00
3.529550054311855423e+00,2.761368481405116664e-04,-9.139501267586013000e+00
3.585614061890180615e+00,4.637867736685704137e-03,-9.115021193345645756e+00
3.645515150493041645e+00,1.003243700623773424e-02,-9.094486478858240019e+00
3.694599855787583209e+00,8.849039228064563278e-03,-9.069105116255014920e+00
3.755491241095762156e+00,-2.354704647812325483e-03,-9.057300933114650121e+00
3.806155564589027041e+00,-1.680940720748205818e-03,-9.028528745545655099e+00
3.859104973139655836e+00,5.782310547748182455e-03,-9.007808159065479714e+00
3.907424134726386722e+00,1.832409741921422423e-03,-8.979508076663249128e+00
3.960915703339440430e+00,4.993155171614893292e-03,-8.959455967033029822e+00
4.008022711549157791e+00,8.319435878449070454e-03,-8.939482005749438187e+00
4.060625133123568098e+00,3.224212653409148032e-04,-8.904711263729051751e+00
4.112646448937777421e+00,5.138640995061781111e-03,-8.890991514273871132e+00
4.170242451392502936e+00,-6.033488892989673572e-03,-8.873495782129538156e+00
4.221687246962186002e+00,6.933086667303569152e-04,-8.830580694316354951e+00
4.271399772508106096e+00,-2.821737903175974924e-03,-8.819190872876950138e+00
4.325518561327100997e+00,4.581369904948293451e-03,-8.786820364153014040e+00
4.380272364284546249e+00,3.615421370176589207e-03,-8.768461682331176732e+00
4.432966607506473977e+00,-1.912446441377868220e-03,-8.737382444836153894e+00
4.469841728769685218e+00,6.359771405021051593e-03,-8.712638295256127208e+00
4.527904456920185616e+00,3.566729084171569707e-03,-8.690443268267726395e+00
4.583233884717919260e+00,-8.764564118432781673e-03,-8.664810671618464966e+00
4.616890868114886359e+00,8.449069284187408005e-03,-8.631525029972545227e+00
4.664910321459507792e+00,2.965808485059126878e-03,-8.615688534418067590e+00
4.719660939903442376e+00,-1.501906137553331473e-03,-8.582995962140321566e+00
4.759304640328196001e+00,-2.380403602398870923e-04,-8.555903175083958700e+00
4.808504456643056812e+00,-3.469874690881325635e-03,-8.523836111669071514e+00
4.864233852831994831e+00,-3.473811443645171207e-03,-8.498537423583298889e+00
4.916168120219913895e+00,-3.701959300026583331e-03,-8.484739108184463419e+00
4.949271355503690017e+00,-9.874775266590028397e-03,-8.447941370185853671e+00
5.000266382728970171e+00,-9.164666245518943849e-03,-8.420523251939290077e+00
5.039046034916816907e+00,-5.323376876380354027e-04,-8.402125289162926336e+00
5.095889320582869253e+00,8.288868865719653967e-04,-8.365197723903222027e+00
5.129890645750499800e+00,6.440067046474801278e-03,-8.341345900212420617e+00
5.180403390489925819e+00,1.717540276552060804e-03,-8.312126935418540086e+00
5.218706186466701702e+00,-4.458225797483377634e-03,-8.287388272373091169e+00
5.263536795947436175e+00,3.065194071917672590e-03,-8.268248675597925867e+00
5.312688953904189049e+00,-9.439433732759489265e-04,-8.234866750442177974e+00
5.341035759995017784e+00,-4.653160909404163454e-04,-8.199792001678352094e+00
5.387838056536028652e+00,-1.291187919514142626e-03,-8.168307401094486053e+00
5.428963933654459950e+00,-2.757337477569967409e-03,-8.140618751031315270e+00
5.485007642788081839e+00,-9.716192087649587472e-03,-8.118395070502055333e+00
5.521589658524741928e+00,-5.601039921469546864e-03,-8.086657892779939516e+00
5.561840922576814172e+00,6.665984466413026922e-03,-8.066805878157856213e+00
5.606334979461602863e+00,1.036352383945295628e-03,-8.043457682666602437e+00
5.634805351318510347e+00,8.015675026223005421e-04,-8.001094656888552592e+00
5.682506003836120811e+00,-6.509435036159538085e-03,-7.976886876975833651e+00
5.721633082982052976e+00,4.573828218085869077e-03,-7.949571929417989402e+00
5.766360695169926665e+00,5.531311922657235029e-03,-7.921316777036744305e+00
5.801516907740506213e+00,4.665662735617371812e-03,-7.899316457732375341e+00
5.835341776676604475e+00,-2.604145166502862697e-03,-7.869286527282959298e+00
5.875201351459129029e+00,1.387946259486373072e-03,-7.838932334622337628e+00
5.907759234675720172e+00,6.097618874620367412e-03,-7.797689619446342313e+00
5.952149204330827281e+00,-3.182895439361348340e-03,-7.787181694533341414e+00
5.989407030934231102e+00,6.144886114662593234e-03,-7.754814290093724694e+00
6.032056358592479128e+00,4.110512354616902009e-03,-7.717834743139276199e+00
6.066137396282431204e+00,-4.779847804294453349e-03,-7.696737807680446686e+00
6.099167259261303542e+00,3.413276528232466801e-04,-7.664711312023632317e+00
6.142173765758554005e+00,-3.714844000079905399e-03,-7.624563183164906555e+00
6.172521560692864284e+00,3.810009047026015512e-03,-7.600045587526026658e+00
6.212090882793804170e+00,-1.349637879833060460e-03,-7.575485689947774937e+00
6.235697303365766331e+00,1.086171636361833032e-02,-7.544017398711487132e+00
6.280882862143123191e+00,-1.018692065735756977e-03,-7.516989394604015828e+00
6.311016968365880331e+00,-8.475439460893284885e-03,-7.494832518387587683e+00
6.349587360332423103e+00,-6.320702204971329931e-03,-7.468628054708063679e+00
6.376487228875820534e+00,5.926806329530619546e-03,-7.427174854850131069e+00
6.414116753693014594e+00,-3.956998564112258407e-03,-7.416083150688318248e+00
6.450559942889295684e+00,-3.704632106249424427e-03,-7.373744203332611491e+00
6.474306837458888353e+00,3.804498347850907708e-03,-7.347918433523545012e+00
6.514363078247099814e+00,2.348077976580148409e-03,-7.308134704604779763e+00
6.548688560900751021e+00,1.312861410694513356e-02,-7.285696956069811492e+00
6.578885593095210815e+00,-5.922755827814337078e-03,-7.257314156428286367e+00
6.613764737408009076e+00,-3.109502028521714603e-03,-7.236543583990330930e+00
6.635671529167440852e+00,5.564338930590446985e-03,-7.198064924675992238e+00
6.669186106763542732e+00,5.859271535877306168e-03,-7.163616545662957691e+00
6.704287818423107836e+00,-6.307241246025227857e-03,-7.139562602671511549e+00
6.735642868942263384e+00,2.943234238415373683e-03,-7.117234072727374183e+00
6.770288164192056257e+00,2.079237821974928607e-04,-7.082150340186658788e+00
6.791576943103518893e+00,-1.152237753590308438e-02,-7.051536264710158264e+00
6.825308413870136981e+00,5.225637713069879176e-03,-7.028746768382231558e+00
6.845636095757343220e+00,-8.904319489116926598e-03,-7.000648500673114505e+00
6.880125514534601194e+00,-8.066346270218675840e-03,-6.970415967592201056e+00
6.905269732678815942e+00,-1.791041825164756997e-03,-6.949962332885196048e+00
6.938092417278966195e+00,5.757015454911785200e-03,-6.918468100264830944e+00
6.974849398657486432e+00,5.151480833393022943e-03,-6.879501591059959509e+00
6.986506277918141272e+00,8.525439350652377901e-03,-6.862218708941753675e+00
7.019046728856847217e+00,1.045898792605640115e-02,-6.820279997518779780e+00
7.043375003806046308e+00,-6.424653989695462523e-04,-6.796626485645222537e+00
7.080423890567035805e+00,7.384758364374810653e-03,-6.772743109204708567e+00
7.104747077507195918e+00,-9.082071394322264665e-03,-6.745116749770969200e+00
7.133635328871764436e+00,-4.025785809017166017e-04,-6.706828080525265356e+00
7.168011478313992768e+00,-4.952034331194266580e-03,-6.684870309042984182e+00
7.182422596717378482e+00,1.087098257021597118e-02,-6.653532105829058629e+00
7.202317077147311508e+00,5.849272957469046734e-03,-6.628558412977652026e+00
7.232674096292174504e+00,-8.025088446820331485e-04,-6.590345315309463992e+00
7.257398929849061098e+00,1.100673223225297984e-03,-6.569608802906514278e+00
7.284984531913477390e+00,1.355602771738841257e-03,-6.536788406947398045e+00
7.310218403578866209e+00,2.204867636865121081e-03,-6.508470846253023190e+00
7.331848954334875046e+00,3.146080781853576123e-03,-6.487126183966016590e+00
7.364340018008481259e+00,6.436245080630913565e-03,-6.458770621703095571e+00
7.380643727050573588e+00,2.578703751272313355e-03,-6.432835852956553246e+00
7.406482250620596730e+00,4.804780626672703128e-03,-6.400255907310914871e+00
7.429612530051923791e+00,-8.657838557613560526e-03,-6.364083330447933839e+00
7.458050907706385679e+00,2.456766558332683890e-03,-6.357777734035209960e+00
7.479716104490948148e+00,1.695081933464887827e-03,-6.316273218163366288e+00
7.504737397265145660e+00,1.230136465492371049e-04,-6.292157714846019267e+00
7.535766256084422743e+00,1.417382578978313226e-03,-6.262819721204587076e+00
7.557836172325239410e+00,3.556362806161799187e-03,-6.225682992055069143e+00
7.577969901625772664e+00,3.340796104660230179e-03,-6.214601479858989919e+00
7.589838470495184453e+00,1.327028864977952173e-02,-6.192995550287028195e+00
7.607959184277722109e+00,1.137521988677303759e-02,-6.157911915238242884e+00
7.640669882324278461e+00,1.363472008639201563e-04,-6.131291788324668701e+00
7.669084678220317919e+00,7.089942443120068535e-03,-6.099650173362396899e+00
7.682678259557498279e+00,-2.189946324675441387e-03,-6.077042753338663950e+00
7.715880444869907429e+00,-5.627577031721547191e-03,-6.054009507554000358e+00
7.730859302050919091e+00,-2.852985519971657901e-03,-6.022062184758057768e+00
7.746703084190773581e+00,3.333182786296902227e-03,-5.992523346155722130e+00
7.769169584640768456e+00,2.216666413090216496e-03,-5.966961937601602983e+00
7.782200147797200707e+00,-2.693450622637464167e-03,-5.939629702798104205e+00
7.811577279516689565e+00,-3.370059693747565373e-03,-5.913314374386479777e+00
7.836112156348917779e+00,1.456278112439210589e-04,-5.895703803075313942e+00
7.848120618579761398e+00,3.329385063442394811e-03,-5.865476963254253384e+00
7.864264088179578671e+00,5.489728042770583225e-03,-5.832848311707056865e+00
7.884352059311132699e+00,5.706724410870354924e-03,-5.804846513828422871e+00
7.903901301767939813e+00,1.152496018587889637e-02,-5.774493104341326344e+00
7.923109908875706431e+00,-3.462979266141321798e-04,-5.754211639497098574e+00
7.945201656774372623e+00,2.924041344343097926e-03,-5.736497057834038849e+00
7.962881866509790463e+00,4.977184913568633885e-03,-5.706206688942260463e+00
7.980577802712553570e+00,-7.378600893940062081e-04,-5.678204536821516157e+00
8.008675369605938954e+00,1.147240791819921502e-02,-5.656389691254491758e+00
8.020091583884045860e+00,-3.785874596254635346e-03,-5.623471344436210551e+00
8.035063116957985585e+00,-7.079234533184701472e-03,-5.603447775861779334e+00
8.052671182463672750e+00,-3.719600219713691674e-03,-5.575718220726159302e+00
8.076860972784865922e+00,-7.935992023449009447e-03,-5.552201054255432311e+00
8.095524554335502998e+00,-5.500731077283904993e-03,-5.528290292393708505e+00
8.107750834244916049e+00,3.848728476790087491e-03,-5.495528373573003833e+00
8.120584415673672396e+00,-6.436956922617946206e-03,-5.463160166946047447e+00
8.144793699231438922e+00,1.046413280407054724e-02,-5.439163334984160159e+00
8.151591987715127274e+00,2.147501487507354374e-03,-5.421001271566777469e+00
8.176159704764767611e+00,-9.833256919676765587e-03,-5.401908924423134195e+00
8.193844544572094435e+00,-2.674455713435846919e-03,-5.371851123515416937e+00
8.204232691145220357e+00,4.227998386411625092e-03,-5.346588079204395605e+00
8.224410148310916213e+00,-7.467384054031639927e-03,-5.320526865826862739e+00
8.238874683533600418e+00,7.807191483203234153e-03,-5.306670862843899883e+00
8.263885589489088801e+00,-2.634486274601535206e-03,-5.276720981809694955e+00
8.264703814199974019e+00,1.248490654595996435e-03,-5.240849882756897671e+00
8.280437682654413933e+00,-2.479025462005330846e-03,-5.221788305284880138e+00
8.300835424123773620e+00,1.435396465877406122e-03,-5.188388800800168177e+00
8.318402956546817606e+00,1.225187057595456593e-03,-5.179727007695583474e+00
8.329389545619857671e+00,-5.714852895401439058e-03,-5.145381578978317272e+00
8.353549653974580380e+00,-2.426324610125679682e-03,-5.126722947060068591e+00
8.353575684561365122e+00,-2.282486180456629911e-03,-5.101613138807024050e+00
8.378764593787517256e+00,-4.108455066370272565e-03,-5.069297751311698796e+00
8.385919106380754329e+00,-1.296545704102426829e-04,-5.054102950539360428e+00
8.397140238467864393e+00,7.024668646604158642e-03,-5.031739574106940616e+00
8.422476758435335498e+00,-3.122463494129506861e-04,-4.997317136681856731e+00
8.437768617083520439e+00,-3.848757209758482678e-03,-4.975643462762223024e+00
8.447964710975728764e+00,-6.479601175119196685e-03,-4.968877981343236883e+00
8.459889020460970244e+00,5.587193339702216507e-04,-4.931767730019156915e+00
8.473219786687430144e+00,-2.050430646367313627e-03,-4.914486204503706546e+00
8.489845441850093266e+00,3.042552438177351624e-03,-4.874908645005329610e+00
8.503117412552887444e+00,-5.102627467356663990e-04,-4.874583043237785240e+00
8.518103158629976690e+00,-5.831149632009032663e-03,-4.836436330038435649e+00
8.536359027127597088e+00,-5.326533134950507849e-03,-4.824638765384813510e+00
8.542436628615176275e+00,1.664165140308143578e-03,-4.788391693148829731e+00
8.545401291879663574e+00,-9.074939032124157683e-04,-4.775069160884092057e+00
8.565583178454575730e+00,-4.514808172990009832e-03,-4.748933117093321776e+00
8.580390486984708076e+00,7.773657612859347261e-03,-4.729029944923719420e+00
8.589576963290385336e+00,-7.313493374667323979e-03,-4.715724052861054894e+00
8.607443085566265140e+00,2.031122251670015779e-03,-4.677102233543042331e+00
8.617620268651251081e+00,7.767890852801945765e-03,-4.659955194263077694e+00
8.632895497650070027e+00,5.938719464780040916e-04,-4.641815611812595499e+00
8.643225174647920284e+00,1.582639830251728530e-03,-4.610262087607071457e+00
8.654553150985654142e+00,2.284179667527319341e-03,-4.589754876725685051e+00
8.673063120010542804e+00,-7.488028750358406357e-03,-4.570233287441373804e+00
8.671882349387175282e+00,1.536156561088000824e-03,-4.543425438901778080e+00
8.696434918349188692e+00,2.425182200642353979e-03,-4.523232153900200281e+00
8.691901031059257932e+00,-4.849259716633623832e-03,-4.500437730073619136e+00
8.701782329672566263e+00,-3.691327860941013683e-05,-4.481497689171928478e+00
8.728942193739893440e+00,-6.281842968407178388e-03,-4.464012919506903820e+00
8.732569215061797507e+00,-4.629432859137600637e-03,-4.438787456732105063e+00
8.739340539105752370e+00,2.623567300552739207e-03,-4.407758624226151944e+00
8.753010031595087170e+00,-3.856818727165354111e-03,-4.400686848101173609e+00
8.771859223973335062e+00,2.770736318771796708e-04,-4.375205012498283530e+00
8.764918844704675749e+00,8.870878376099767659e-04,-4.345622600115146561e+00
8.785497756310276074e+00,5.189213738514821157e-03,-4.330417603811874905e+00
8.795346368962983163e+00,-2.461475882753907159e-03,-4.310796812504239739e+00
8.805324884065729663e+00,1.192543324344990871e-03,-4.285723782470051368e+00
8.818940441093195304e+00,1.021168581145997373e-02,-4.274014682760261863e+00
8.830298434731522761e+00,2.851374489125685103e-03,-4.245072659287363770e+00
8.839483394870912392e+00,8.676600753960174699e-04,-4.221642019220269049e+00
8.846479595170478660e+00,-9.388871446584998171e-03,-4.211866139652914676e+00
8.856603071099035773e+00,3.503686210650419196e-03,-4.181120392364826799e+00
8.866504758456461133e+00,-7.446885148763578155e-03,-4.167918572341728023e+00
8.882401043718672895e+00,2.397662994392397474e-03,-4.149004997152332841e+00
8.880421584870617835e+00,-1.331576002060934870e-03,-4.115700523949694656e+00
8.895924984967319205e+00,-6.548198689950605195e-03,-4.105926320706891453e+00
8.905892160217621978e+00,5.955409872885052700e-05,-4.086947156172687556e+00
8.916271836249332949e+00,3.038309505394235464e-03,-4.057582163791597196e+00
8.919934516597143315e+00,4.531488839080851858e-03,-4.047818123842909621e+00
8.940952987154609843e+00,2.610959264554584772e-03,-4.020433303200812603e+00
8.939573432999370795e+00,-2.824128877897388000e-03,-4.007844982925327315e+00
8.947480818068896724e+00,3.611989012555847766e-03,-3.974813045480123819e+00
8.955724554834501916e+00,6.480265799383782069e-03,-3.957541212035813771e+00
8.968234110640969092e+00,1.581259169644657703e-03,-3.947050168152756999e+00
8.969226072750895895e+00,-6.247120401662269520e-03,-3.924388067827146109e+00
8.978287406719763553e+00,3.665297889357634932e-04,-3.907765998337443314e+00
8.996333729222756759e+00,-1.195910439319487154e-03,-3.883300902177686975e+00
8.998682117446911377e+00,6.352288930227379705e-03,-3.860920516034063610e+00
9.004581701716690034e+00,4.578901869065656917e-03,-3.846325978935495105e+00
9.008123943730231176e+00,4.284179283567398668e-03,-3.828146240099127517e+00
9.034034473417277056e+00,3.887307444670033002e-03,-3.809807776883858743e+00
9.026180559618703469e+00,5.458126855870009189e-03,-3.794014454473134901e+00
9.040757389579130887e+00,2.295512379257379394e-03,-3.776608933461731432e+00
9.051458454614602189e+00,-3.438301398809087694e-03,-3.746053455529939402e+00
9.047569848753401089e+00,-3.314305266623266029e-03,-3.728266798759992451e+00
9.068222521521629886e+00,-2.351617751283804555e-03,-3.715745102070940220e+00
9.072668303297042769e+00,-3.915564515801169855e-03,-3.700861067991245257e+00
9.088443908730422294e+00,-4.432206435874798227e-03,-3.678780978855100248e+00
9.086295487241256907e+00,4.178725109957499156e-03,-3.666515097310611093e+00
9.093024695755905995e+00,-2.953379239884906977e-03,-3.644558041890392008e+00
9.101149942540656568e+00,7.450181387473271731e-04,-3.634687696647665334e+00
9.113940796738795314e+00,-8.558749335311600578e-03,-3.606723284311018851e+00
9.105812589428214920e+00,4.980361294602790936e-03,-3.590970634599737199e+00
9.124374243637401349e+00,-6.925522321102175159e-03,-3.566245923661755857e+00
9.126224539645026113e+00,-4.548640420221225500e-03,-3.545612685951097909e+00
9.141718537600524996e+00,-1.644503825749879349e-03,-3.540810507383332251e+00
9.139830984384719414e+00,5.218983563781058252e-03,-3.509853877807635136e+00
9.144718470262574783e+00,5.193912885510259918e-03,-3.495057754951127027e+00
9.147302401164539631e+00,5.987115893969897559e-03,-3.485702888927476817e+00
9.152205395904790208e+00,-1.057972191144770707e-03,-3.461580812524674311e+00
9.168957333869153459e+00,-7.325263884287078718e-04,-3.442822590980983755e+00
9.172017624336371355e+00,4.111227670794266012e-04,-3.420728944811179062e+00
9.183615614375998604e+00,-5.800625896617738614e-03,-3.401246141638746501e+00
9.185032277975986759e+00,7.711993247233762429e-03,-3.393132889287042264e+00
9.194655733575324064e+00,5.520407245483676534e-03,-3.379557625860472481e+00
9.208944662688864469e+00,3.781667310797943646e-03,-3.367206429210867213e+00
9.205582975259950729e+00,-9.258862868970308552e-03,-3.352086155077699470e+00
9.211981356846308699e+00,-2.681584716032301037e-03,-3.321648445133517313e+00
9.219734624694195801e+00,5.306317197862205418e-03,-3.303844485849764201e+00
9.235434782239655860e+00,-4.906131918284361085e-03,-3.287950599462829082e+00
9.234727161489006519e+00,4.394645983225605942e-03,-3.277929442953092742e+00
9.237899320606439701e+00,1.191599401517551954e-04,-3.264953215547179877e+00
9.251917091907348123e+00,2.110732711255004692e-03,-3.249282169183369984e+00
9.245264640156655389e+00,-6.047973843621684553e-03,-3.227397132627848997e+00
9.257395192317165566e+00,-2.850350351825624816e-03,-3.216659841042703416e+00
9.258950391697014837e+00,6.220885414575536877e-03,-3.193214637103991116e+00
9.265982886831787724e+00,-1.172637878598494334e-03,-3.183159374259087571e+00
9.259037522172841150e+00,-3.712861082822284213e-03,-3.157784773456880245e+00
9.274347507152111092e+00,1.021458673742200313e-02,-3.140098527038479581e+00
9.286814858760013891e+00,-2.228756494695835651e-03,-3.134752283365184855e+00
9.294871561444335128e+00,-1.464533456961283030e-02,-3.113431377768822728e+00
9.289726331232223799e+00,-1.245107708308830496e-02,-3.097973023231803680e+00
9.291983760826603600e+00,4.772037730014768385e-04,-3.084337453555225483e+00
9.301609035246350743e+00,2.675283237131387097e-03,-3.065833485463862029e+00
9.306685653878099984e+00,-3.278280721568785144e-04,-3.050281707957432697e+00
9.308410672108562878e+00,-1.324919614387150887e-03,-3.038374130236631387e+00
9.314138307629709956e+00,-1.009479599977054082e-02,-3.022656036102941979e+00
9.318428802810462486e+00,-5.216908214008378862e-03,-3.008669923462689688e+00
9.323215485637225797e+00,-7.517953847725323061e-03,-2.988224505478830562e+00
9.335527643281062993e+00,4.520018307003272409e-03,-2.974628071474988200e+00
9.338495890872506422e+00,-3.540045673822004614e-04,-2.962460905895873964e+00
9.339732805147670902e+00,3.325881400482973323e-03,-2.944303593209492309e+00
9.338232901940987318e+00,2.154985863647660219e-03,-2.938997383171914723e+00
9.355851331722412567e+00,4.214458359961559828e-04,-2.922292305433054960e+00
9.356360079955683418e+00,1.961505701238334433e-03,-2.904041773403498450e+00
9.370165710616099375e+00,-3.006539927610522595e-03,-2.891999498863895290e+00
9.367985607161156025e+00,4.387400750011008661e-03,-2.870247621884156164e+00
9.366792290148630684e+00,-4.069246849919665350e-03,-2.855959257339139246e+00
9.369960746470214374e+00,-3.347011737580563896e-03,-2.843478213143464384e+00
9.387728928192645483e+00,-3.061824981633184343e-04,-2.820529573682692082e+00
9.377986797128601282e+00,4.465643209594570041e-03,-2.813546560526106077e+00
9.384103852413748115e+00,5.224439165142776183e-03,-2.797024561235005979e+00
9.395235444260782387e+00,-7.972988775452211421e-03,-2.784039356080563632e+00
9.397143499932928634e+00,-4.145375097441538967e-03,-2.769050148516511545e+00
9.399196611649326627e+00,-4.108354830053814570e-03,-2.750798472370444614e+00
9.411860343588589473e+00,6.664692732509937961e-03,-2.745860837130366328e+00
9.410384479025600157e+00,4.211931124322956799e-03,-2.732425493954810491e+00
9.408552558028800306e+00,-7.906115013475189298e-04,-2.715156394971145914e+00
9.417853544511585184e+00,-4.804923390235274656e-03,-2.699505733375279437e+00
9.417644845958349720e+00,-3.887345646052854393e-04,-2.683080246369213828e+00
9.415638910091567837e+00,-8.541933324219142670e-04,-2.677861285715150252e+00
9.428796341186991725e+00,2.236876390514023517e-03,-2.654476240006161447e+00
9.430554897899304123e+00,5.903150231051181897e-03,-2.645171977429389365e+00
9.433925249151140946e+00,-4.009158046058051983e-03,-2.633879333336974327e+00
9.439339015025824509e+00,3.670781038466769831e-04,-2.617285689966314610e+00
9.445476964423335176e+00,5.627619485423684042e-04,-2.604562091992992379e+00
9.449191927587552442e+00,-2.735470573384571856e-03,-2.596875967169586463e+00
9.453507072136577705e+00,-1.557135717959110422e-03,-2.578557902860326490e+00
9.461479801020860947e+00,2.973642634687376305e-03,-2.560436075348353935e+00
9.451608270598862660e+00,1.798326227082632043e-05,-2.559568413925783936e+00
9.458496350622564108e+00,1.476291706868334067e-03,-2.539666400874795116e+00
9.466454766521509967e+00,7.690245160471197161e-03,-2.521469692072586533e+00
9.476604667819909622e+00,3.150131913360554748e-03,-2.515107939311330476e+00
9.475241259830314178e+00,-2.926199334345622790e-03,-2.501814455750503097e+00
9.480447693407340282e+00,-3.262311282286317095e-03,-2.485554715426221861e+00
9.475440631236180522e+00,-1.348231066546929941e-03,-2.475402571891455406e+00
9.489742918672170902e+00,8.273339971514302379e-03,-2.461098441291972527e+00
9.486874153760982864e+00,-4.141597908775985354e-03,-2.437830090878032152e+00
9.488629312568791718e+00,3.279938787336100217e-04,-2.432143127861383203e+00
9.491175297613116513e+00,4.160619674778430997e-03,-2.436256376003256729e+00
9.488476120449641726e+00,-7.478681766366761545e-04,-2.414083918503877157e+00
9.491458690058909298e+00,5.446735588981443769e-03,-2.402143540518779208e+00
9.497114713780671735e+00,5.342857857954639092e-03,-2.388857155171480784e+00
9.507370819395919881e+00,3.933707688948830973e-03,-2.370396371856708484e+00
9.505383538304416291e+00,2.864038288674505481e-03,-2.360120568238487149e+00
9.506491056182056809e+00,-2.817679898011772599e-03,-2.350797990737855336e+00
9.518929339090744790e+00,-6.257170056203488311e-03,-2.347163897430718293e+00
9.511187014403761353e+00,1.200992183683833453e-02,-2.327838301717311875e+00
9.520093495521365412e+00,-4.397006352309216701e-03,-2.316466659275413509e+00
9.520656662708127271e+00,-6.401083906513115561e-03,-2.300366551884075683e+00
9.530681861867941862e+00,3.406465954467972554e-03,-2.278628695994727060e+00
9.532447269635506260e+00,3.774561186982229675e-03,-2.276991557123388077e+00
9.523469720169648767e+00,-2.123875458593584009e-03,-2.268622674274120676e+00
9.521223511576337728e+00,6.093751990374001240e-03,-2.261788366326201949e+00
9.537468595382664560e+00,3.852185699525736973e-03,-2.246380072238418624e+00
9.536543656757586973e+00,3.676461240751498498e-04,-2.234638629867193860e+00
9.547492868672136979e+00,5.131175705721544543e-03,-2.225367113651339768e+00
9.536227321414990854e+00,-1.311310615610241596e-03,-2.210810724016780693e+00
9.546442665309205822e+00,-7.293010193097127641e-03,-2.198649134612803202e+00
9.541589569646795610e+00,-2.450783317670962450e-04,-2.185192517829618986e+00
9.547150170439046235e+00,5.342006958449706591e-03,-2.172987969893144911e+00
9.550181105604210074e+00,9.616602046458018124e-03,-2.162574097973529064e+00
9.554811107750376564e+00,3.853972916056136542e-03,-2.148279768656938593e+00
9.557345918650687722e+00,2.054737991264598239e-03,-2.139919257783705397e+00
9.556017603164157492e+00,-1.916502463090920261e-03,-2.131936548797220166e+00
9.565266399954341026e+00,-7.086888440631259950e-04,-2.127060857923273929e+00
9.566879594437269319e+00,7.916663770966529332e-03,-2.109822198230959955e+00
9.577095849934552874e+00,-7.332545622515149013e-03,-2.094769427381685478e+00
9.568028041448371823e+00,-1.744983530837876124e-03,-2.083678351202338686e+00
9.573091987384980683e+00,3.448286590327233336e-03,-2.074771320686854104e+00
9.581476175923635097e+00,2.209987907603031421e-03,-2.059977280597893312e+00
9.580360655248485457e+00,-3.189230762241402305e-03,-2.060491676502929526e+00
9.571452913661248729e+00,1.148815130206935157e-03,-2.046427331265125549e+00
9.590281786430374211e+00,5.812831345478120144e-03,-2.034302239207748997e+00
9.573471922704692716e+00,5.371597316585048631e-03,-2.022120084500114157e+00
9.584773859673687113e+00,-1.125303159593358734e-03,-2.013230360123792639e+00
9.587819280981575432e+00,-5.166931274079246753e-03,-1.995440208664118087e+00
9.578876324865623459e+00,4.993613615008881540e-03,-1.990484553720085259e+00
9.593693028683478730e+00,3.889550161068345592e-03,-1.978276598139743436e+00
9.599295427504495493e+00,-1.325363326836595090e-03,-1.970771763359153272e+00
9.597217125470066890e+00,8.891098555924332666e-03,-1.955972396524808810e+00
9.599425495265524688e+00,-5.314090517729205473e-03,-1.950308239768727248e+00
9.616864102335863862e+00,3.696495887274948121e-03,-1.943397768939518544e+00
9.605097769151006659e+00,5.855289121686074912e-03,-1.929404850121483328e+00
9.600087732322510448e+00,2.026108604364249173e-03,-1.920555505571044819e+00
9.600623739567234693e+00,6.499982551524177525e-03,-1.907914036503738586e+00
9.625047231374214363e+00,1.147295015799197279e-02,-1.900044768866152145e+00
9.602766443235999816e+00,-7.429386178205836001e-04,-1.887169979402268272e+00
9.611394732150593256e+00,3.970638408953645546e-03,-1.880409900124394795e+00
9.614031829153121933e+00,-4.053738461184403473e-03,-1.871153496071288780e+00
9.611597562315218113e+00,-2.439061163599774533e-03,-1.860763110922498242e+00
9.616710544897420831e+00,-1.856334554156786280e-03,-1.843932404478024090e+00
9.619201375050725034e+00,-2.497613456546988672e-03,-1.845244658187380038e+00
9.624379572283645601e+00,-4.931764100040302370e-03,-1.829456109718550216e+00
9.626253989987684889e+00,-8.116464005214968965e-04,-1.824364924338381488e+00
9.626594577819506782e+00,1.097394914806473776e-02,-1.819730961967611638e+00
9.630550774003738823e+00,1.906897211590353591e-03,-1.801966102518407498e+00
9.623011090270560786e+00,-6.395797640016433454e-04,-1.798687428299362789e+00
9.627683880513407289e+00,-3.001222958987084626e-03,-1.784794082968725881e+00
9.634426659423830586e+00,2.772005537947615835e-03,-1.778418105862740850e+00
9.631861202514453879e+00,7.291659290043653839e-03,-1.758336761344353683e+00
9.635064167468724960e+00,-1.292045764930980448e-03,-1.747797812245939220e+00
9.633760966936293357e+00,1.806064623274468948e-03,-1.743842883675223998e+00
9.634621480007425021e+00,4.166200563367866358e-03,-1.744231241022950796e+00
9.641165357306389794e+00,-4.235902063914514029e-03,-1.724154752162237569e+00
9.650395038857471519e+00,2.087534841379292891e-03,-1.707156495455190770e+00
9.639679668179434557e+00,-7.960245103326358445e-04,-1.704465570145859754e+00
9.644266027283453724e+00,-6.990594825261247508e-03,-1.705680019858324181e+00
9.647816854290921285e+00,1.094992961184594084e-03,-1.694012836771459529e+00
9.654866508835983296e+00,-8.171539412041725625e-03,-1.685352212725251819e+00
9.647309944287266958e+00,-3.863942695003631453e-03,-1.672467213307321288e+00
9.651616587934521263e+00,5.160275268268976236e-03,-1.668937427735243340e+00
9.653836685520605698e+00,7.819582030191483263e-03,-1.655893174812492541e+00
9.653238558874544850e+00,-5.151511206667946756e-03,-1.660147570465161371e+00
9.658823002254324663e+00,-2.448683688152280928e-03,-1.642696545615338177e+00
9.658316264449165800e+00,4.496752811965650225e-04,-1.632517629392204794e+00
9.658988618610374388e+00,1.049725077596978459e-02,-1.616778532339805174e+00
9.666041230638615644e+00,1.470636569128087098e-03,-1.618092017148213602e+00
9.655602904635193440e+00,9.750120305056304143e-03,-1.614095641017704974e+00
9.664236884764305202e+00,-1.333553908772792170e-03,-1.602285483987088810e+00
9.659110251228707256e+00,-1.255990633645559691e-02,-1.592190528434358932e+00
9.665011405806103184e+00,-6.308037966262317400e-03,-1.579257899114633767e+00
9.665305843426173382e+00,2.290152365172235492e-03,-1.576642792683202288e+00
9.668353231898590749e+00,3.435107804964318903e-03,-1.572124544986670092e+00
9.666529231337571915e+00,-6.542855163903832545e-03,-1.563956678586674309e+00
9.670657157839380957e+00,-1.228317883820692017e-03,-1.546763820465069994e+00
9.666756602923751274e+00,1.746446433279948618e-03,-1.543045083849668320e+00
9.671498275395487454e+00,-1.941940691521868486e-03,-1.530253732496520636e+00
9.671212559848456181e+00,-1.986837770683592009e-03,-1.533754345309315648e+00
9.683296581698799699e+00,4.914104090052840053e-03,-1.512269733596324217e+00
9.678263189541429057e+00,9.906749819670926903e-04,-1.519573756508884710e+00
9.673297139518691523e+00,-5.703409816644249182e-03,-1.490496760990010161e+00
9.687819414471473323e+00,1.492725408027612173e-02,-1.486614137387654466e+00
9.685585175372033007e+00,5.873777477533355038e-03,-1.490435180262092318e+00
9.682790489832873604e+00,-1.234611233878066261e-03,-1.486568271289157694e+00
9.686185324814713837e+00,9.199784532462843695e-03,-1.478242837135603116e+00
9.683909513463682117e+00,-2.782416741151976392e-03,-1.463637803024579798e+00
9.675556956694732591e+00,7.584098777333742568e-03,-1.450222739736503508e+00
9.688680497833397354e+00,1.382578050568079213e-04,-1.443872027864526286e+00
9.687489814688406753e+00,-6.273893446264884426e-03,-1.438510378656732369e+00
9.694934060505596918e+00,-3.797249727655542095e-03,-1.439774035235419358e+00
9.690937294635801891e+00,4.632791509531916478e-03,-1.432028845747283841e+00
9.694849787552826115e+00,-1.186559127179450529e-02,-1.421822079189870802e+00
9.692668554569999984e+00,2.080924863879430285e-03,-1.411016866590037777e+00
9.691241484392564942e+00,-4.164538944125197040e-03,-1.410262286359938333e+00
9.688264537987171465e+00,-1.191243516836237252e-03,-1.399085387187554819e+00
9.695521511509918255e+00,-4.880148371721230137e-03,-1.398201459676004621e+00
9.698108672112189410e+00,9.680109136685315085e-03,-1.377879185030110198e+00
9.693890899447641374e+00,-3.399706257740471062e-03,-1.379449630934550974e+00
9.697683503697653862e+00,-3.894503953812381621e-03,-1.363841817739001927e+00
9.704390497667509052e+00,-2.002062401508398343e-03,-1.368125653802729769e+00
9.707062708282792940e+00,-2.079545045501467529e-03,-1.356807864802720864e+00
9.707884012020679521e+00,-1.232805569584531462e-03,-1.337911798818969711e+00
9.703507727938097460e+00,7.662863378192042579e-03,-1.325754160833281903e+00
9.698911127957448031e+00,-1.934934536451416191e-03,-1.331223908465672512e+00
9.710668153485439547e+00,-6.152867608460486221e-03,-1.328808566323231632e+00
9.715306540024291948e+00,4.742129240714423530e-03,-1.314000392990560595e+00
9.706768793043721644e+00,-7.034363147528643022e-03,-1.311581243214062331e+00
9.710489743650445149e+00,8.161089537559921767e-03,-1.309178752315885097e+00
9.702372143835559015e+00,-4.917931113686424376e-03,-1.296612196196482714e+00
9.710447047812287735e+00,2.910357122649947191e-03,-1.288028266846475312e+00
9.703012295463720349e+00,-4.296884254094693800e-04,-1.286904764655107725e+00
9.710371041669787928e+00,-1.556084067393558295e-03,-1.283823096319210766e+00
9.717792658395556060e+00,5.196712375882479688e-03,-1.278096497991867420e+00
9.714692256738848286e+00,1.464962555311206515e-03,-1.273473101895702175e+00
9.711674848938290694e+00,-5.082778485547762189e-03,-1.262976154758913339e+00
9.713502046012790103e+00,-9.077465220794458294e-04,-1.246688478153730184e+00
9.716330295015003671e+00,1.762421466001634976e-03,-1.250183076509162161e+00
9.720480434426544747e+00,6.373783909904971734e-03,-1.249604997749592661e+00
9.727507883640882369e+00,-1.871837806423821277e-03,-1.219991366202358929e+00
9.722061919615326175e+00,-6.330905778476991590e-03,-1.230078100329894841e+00
9.721615172916898473e+00,2.327634347984298795e-03,-1.223834987937641783e+00
9.721553165416759512e+00,-4.153800092841015285e-03,-1.210791880392797060e+00
9.723752303318287105e+00,5.019421682556964980e-04,-1.209383864369189654e+00
9.716055575286652868e+00,1.075399858817505799e-02,-1.202499828009909955e+00
9.723607893786939016e+00,3.005101354759166961e-03,-1.179489579734714466e+00
9.726368786037873804e+00,1.192974882563646154e-03,-1.194586446664035906e+00
9.725539479419341049e+00,1.867773799432896490e-03,-1.183427684991996909e+00
9.723372219120241411e+00,1.868975255643560074e-03,-1.180224851132154917e+00
9.724109753335991257e+00,4.765909133414205495e-03,-1.168521329943209341e+00
9.724769460986316005e+00,3.171710831730203267e-03,-1.162255780903732383e+00
9.721405515812220344e+00,5.003053231528921830e-04,-1.149326606845335164e+00
9.729760038734054817e+00,-8.078998362561777905e-03,-1.156708139996832418e+00
9.731064544865745347e+00,-4.163553631674311341e-03,-1.146857377842581904e+00
9.726886529360095679e+00,2.831100190545255378e-03,-1.140355408217168964e+00
9.728036590112393966e+00,-4.944316170075571497e-03,-1.129061221223986777e+00
9.728102965975770289e+00,-1.825056877021852958e-03,-1.121445062568961371e+00
9.728184874337447496e+00,-9.185463210181325083e-03,-1.111927938050996767e+00
9.728914932711814956e+00,-4.073869652973675926e-03,-1.107824523410813500e+00
9.725603439261149674e+00,4.598170422933388346e-03,-1.109068048854676469e+00
9.726647457761943727e+00,1.139343659248308674e-02,-1.107352038741498124e+00
9.736042038916618679e+00,-4.972077454088182080e-03,-1.098182371125012491e+00
9.734640692303395682e+00,-7.176806636139439720e-03,-1.088925921825766086e+00
9.734210982259188683e+00,8.401786012270774304e-03,-1.082312171930925659e+00
9.735590792693395557e+00,-5.023901763321895163e-03,-1.075129079055157089e+00
9.725853302786298116e+00,7.756076347683167616e-03,-1.077218695494354783e+00
9.734064317430510371e+00,6.430392276102323348e-03,-1.071171118759428609e+00
9.742942110033206760e+00,2.739034497321585389e-03,-1.061733709952950022e+00
9.737164742947205909e+00,4.140928511745038156e-03,-1.058682639178308849e+00
9.731630250861496023e+00,4.965265835719019118e-03,-1.051461776025599981e+00
9.742557403489312762e+00,7.431752623516211121e-04,-1.057283633691623814e+00
9.740185167350571049e+00,3.469299783323098567e-04,-1.040144985721757953e+00
9.737856215447648012e+00,1.257389505220680428e-03,-1.039078362665517119e+00
9.741454555586608777e+00,-8.967876537160123299e-04,-1.027602004208255648e+00
9.739257591346117238e+00,3.367224353703237097e-03,-1.037974588517684316e+00
9.746011806371491559e+00,3.397669430380877501e-03,-1.016281829708150397e+00
9.732479863952324450e+00,-4.152334421841218787e-03,-1.004623289355027094e+00
9.747421258628374829e+00,2.238846075161353335e-03,-9.998025724725436714e-01
9.740022496990150103e+00,-3.334506426847128058e-03,-1.008333841191275670e+00
9.753433970023811739e+00,1.315744898019303760e-04,-1.004581434653789351e+00
9.748407383339669607e+00,-9.924606156429672914e-04,-9.901266635920669135e-01
9.753729615698540911e+00,6.739155404194850478e-03,-9.930447579010620585e-01
9.755602356080583348e+00,-2.366865341349126163e-03,-9.818310532882477126e-01
9.747055512121631793e+00,3.612190292824460358e-03,-9.853520800070143526e-01
9.744508178042714519e+00,6.368730648996837572e-04,-9.838002106495812304e-01
9.744743865618641365e+00,8.914588472742758334e-04,-9.722021974662964361e-01
9.746602703161705961e+00,3.992556167994248256e-03,-9.680073476234787311e-01
9.744766744904817202e+00,-1.089814668570402312e-03,-9.512082274967611495e-01
9.752208650868842810e+00,5.907166322081287575e-04,-9.517399267054340584e-01
9.749501501412389359e+00,2.603085348206848979e-03,-9.493441990712299106e-01
9.750300494338864254e+00,-7.652323674325986480e-03,-9.390769290407049441e-01
9.753592112966211758e+00,4.778478478036691027e-03,-9.289438786753082544e-01
9.753128580643542378e+00,-2.618546543115683745e-03,-9.406980460349864126e-01
9.749168358805846424e+00,-2.553215958093201735e-03,-9.268990192510094817e-01
9.760613016619311466e+00,1.639828289929400008e-03,-9.286048115860369156e-01
9.755103706748636583e+00,9.327782940172776177e-03,-9.102719315114515819e-01
9.750731441264367305e+00,-6.387071344355982339e-03,-9.196088286766838094e-01
9.752912897313327889e+00,2.544524884001466043e-03,-9.004920893106203028e-01
9.757534908556515063e+00,-3.021282907557132878e-03,-9.074577927730734794e-01
9.762255119521338287e+00,2.439093302387827702e-03,-9.020993758902166038e-01
9.755895997958571542e+00,4.281276282057870641e-03,-8.989342393739854220e-01
9.753713819599063584e+00,2.851925466513807999e-03,-8.835794077498971832e-01
9.751941498557183508e+00,3.851853155574349978e-03,-8.799937896950350558e-01
9.747831802605306351e+00,3.786826881374005978e-03,-8.830916413225924355e-01
9.759630796390895924e+00,4.649648025427812782e-03,-8.772392766264811570e-01
9.752108677927115110e+00,-7.952724204102604166e-03,-8.646977486263021095e-01
9.751284575361756524e+00,1.180205734940137103e-03,-8.692371732295351983e-01
9.751998009027531111e+00,-7.558415131545423611e-03,-8.659398655904947395e-01
9.758618755461045069e+00,5.018799301946924064e-03,-8.599245906684380714e-01
9.768286157393356817e+00,8.273989257455392765e-03,-8.566106819942734818e-01
9.757393069430719379e+00,1.142476341039299357e-03,-8.488950554756652389e-01
9.760935167037233740e+00,-3.452728274390875433e-03,-8.491263029586731959e-01
9.759867558764964812e+00,1.061887098665565375e-03,-8.469383364328425534e-01
9.763903663378442843e+00,-3.116189902894524015e-03,-8.373627224128205038e-01
9.758146688260428192e+00,6.304954492518864868e-03,-8.354344548451977381e-01
9.762597078020464281e+00,5.504229800792666142e-04,-8.181922452730346906e-01
9.756598848537066715e+00,-4.807003198994266391e-04,-8.277359559944050815e-01
9.758213631418746203e+00,-1.121558718647541145e-03,-8.191795387008827811e-01
9.753424311287641757e+00,-5.969900686259465477e-04,-8.120751529536262003e-01
9.766316375179362907e+00,-3.758132997620094572e-03,-8.019034506426662157e-01
9.755988382389995550e+00,4.523072660643189837e-03,-8.025821274154963936e-01
9.758821692675349269e+00,-7.967758271163204870e-03,-8.022782830744792371e-01
9.765787165586580443e+00,3.576617675934279286e-03,-8.030668320334524157e-01
9.770815909629746443e+00,-5.851879037928901274e-03,-7.905707037602781595e-01
9.763654631806399919e+00,4.677094691006061962e-03,-7.873961109756724142e-01
9.770051069869360560e+00,3.926805827485052927e-03,-7.848639098910767942e-01
9.769085155527067243e+00,5.118934044146089893e-03,-7.752587153511287799e-01
9.765086282568026022e+00,1.393123037453097499e-03,-7.728243708763750108e-01
9.760970962356319447e+00,-9.594838942776656721e-03,-7.748258679656826464e-01
9.762605696191272386e+00,3.763761210587518793e-03,-7.682041910990397016e-01
9.765906304624801137e+00,1.155387903822711546e-02,-7.525995059280272681e-01
9.757549869428988387e+00,6.195312763201617050e-03,-7.674754435586678136e-01
9.762309631086477424e+00,1.148622108523459501e-02,-7.576135685187032065e-01
9.758152777252547594e+00,4.519562216014700456e-03,-7.537228491869469860e-01
9.760772199958232420e+00,-3.285699952691681618e-03,-7.498664320986906384e-01
9.768340491137163184e+00,-6.066867323731528656e-03,-7.423035601905059178e-01
9.762729334731000463e+00,7.384758110043181979e-03,-7.379528757282204365e-01
9.771820117885853918e+00,-6.499861630771259884e-04,-7.352313051260540577e-01
9.763683469720296770e+00,3.796660691513808333e-03,-7.336216936502649721e-01
9.765050723922135134e+00,-4.304297969930701191e-03,-7.202120553456342611e-01
9.769242203245498857e+00,-3.609257563112973181e-03,-7.266091188275882740e-01
9.765019867417251476e+00,1.818791429332596542e-05,-7.228260810886830701e-01
9.765251486701643557e+00,6.330587269641564652e-03,-7.168149451121439419e-01
9.774431407540134842e+00,-8.965720963510687190e-04,-7.138437475353353046e-01
9.761500879326620250e+00,-4.874404903597089229e-03,-7.198622675142191119e-01
9.773521833878682230e+00,4.528837552339281917e-03,-7.118418040729191931e-01
9.772992730915751380e+00,2.931005314679296925e-03,-7.125445374715460023e-01
9.773531229982095780e+00,7.024339192487153057e-03,-7.003569213725647780e-01
9.778566953043807075e+00,2.244893655282510087e-03,-7.015347491351918707e-01
9.771534398364888574e+00,3.174949483636067653e-03,-6.874888845445663588e-01
9.765375723519566620e+00,1.485035002866118975e-02,-6.773629470325795987e-01
9.773772268039710553e+00,-4.380478876564007510e-04,-6.754877684488346246e-01
9.772037733017432615e+00,-2.824977526587875085e-03,-6.896976898160657177e-01
9.777876273940883323e+00,1.892584370893698889e-04,-6.772796528151534545e-01
9.771350233717493339e+00,8.075188450974135276e-03,-6.814796860727674321e-01
9.778035989672575923e+00,-2.507448564895059778e-03,-6.791816586660837096e-01
9.772969237162772771e+00,3.893230037353071719e-03,-6.746103453474802114e-01
9.776194228763078087e+00,-7.810902795066233112e-03,-6.652775477617666189e-01
9.767488322021797842e+00,7.703337235913651666e-03,-6.580590887577711934e-01
9.772714426160247214e+00,-1.440838359583802245e-03,-6.460108470178933526e-01
9.771354369657222705e+00,2.537086551061139023e-03,-6.562017580938821482e-01
9.775373586811218374e+00,2.535950428959193610e-03,-6.586171674275448362e-01
9.772728375843035664e+00,-4.596610349665275139e-03,-6.408260393566415081e-01
9.769984227810848409e+00,1.471398972162110425e-03,-6.344637247914893807e-01
9.776672233731401818e+00,-1.184852061142049537e-02,-6.444153015658453665e-01
9.775120073174685231e+00,-2.344457616708546521e-04,-6.482608678026056115e-01
9.776843298859155595e+00,3.059570658268277732e-03,-6.421500692510085928e-01
9.781027577402079842e+00,2.517733547560702372e-03,-6.257655919364284447e-01
9.766169135797373002e+00,6.894048187220643345e-03,-6.230096531459334841e-01
9.777909010922920530e+00,-7.467747022498253100e-05,-6.273216656590550055e-01
9.784210777712239349e+00,-1.459359941845034172e-05,-6.280849319052577151e-01
9.768394605070783498e+00,8.401326373975699993e-03,-6.220089890801250299e-01
9.776461382814305878e+00,1.786680811555122709e-03,-6.136709035269600765e-01
9.770482060216858500e+00,5.398345854875739348e-03,-6.192814627654562587e-01
9.774317366810249652e+00,-3.613209751551389303e-03,-5.996872034028959408e-01
9.778771244233231741e+00,-1.076765127003910787e-03,-6.033266001931889555e-01
9.777637631673561813e+00,-1.443207419150802345e-03,-5.982922390889701125e-01
9.775089724392195478e+00,1.657510700668115601e-03,-5.946834078436228355e-01
9.775453559202921028e+00,-4.704821762193859766e-03,-5.948075728071612334e-01
9.774828058536730424e+00,-6.521112870574926083e-04,-5.895416341906095647e-01
9.776843572257016390e+00,1.068468120173499472e-02,-5.848497332413395977e-01
9.775481592904812445e+00,-6.152407821032702473e-04,-5.906844683902537918e-01
9.776841826491619258e+00,4.982260343935940132e-03,-5.940362670543766210e-01
9.780449220329025195e+00,4.431182280762593385e-03,-5.767067424235976514e-01
9.775986447741992436e+00,4.039261040424469915e-03,-5.740057196073931056e-01
9.780148034001838298e+00,4.214883661633499722e-03,-5.681673365669973608e-01
9.780275904315590907e+00,4.239408950726211364e-03,-5.666364979274829405e-01
9.784517700453964295e+00,6.323735323340513685e-03,-5.550478659305599916e-01
9.774229846327115112e+00,4.687517487471568739e-03,-5.631651872595095920e-01
9.776362085624262122e+00,-5.109526925707451317e-03,-5.524394265477230448e-01
9.793677654470361205e+00,-1.627157980439748871e-03,-5.531771331127715019e-01
9.780490298213823763e+00,5.372897027546960982e-03,-5.529447867664973870e-01
9.779487559726709023e+00,7.637497958558964010e-03,-5.467310765292876518e-01
9.774315165380921044e+00,2.290403074919307620e-03,-5.514907043369050577e-01
9.796441936781681292e+00,3.883343818506198187e-03,-5.455777046410094089e-01
9.777139449066623911e+00,-6.534606571456523690e-04,-5.482298244014240929e-01
9.779633905956030659e+00,-3.819779773306786804e-03,-5.466195621259343218e-01
9.781524257933147837e+00,6.624547142294098974e-03,-5.432499719798132842e-01
9.781618779546484177e+00,3.056001736615470907e-03,-5.329207895894023661e-01
9.783016734993037034e+00,2.005084939422883093e-03,-5.387952979576757784e-01
9.776546328802432129e+00,4.373282743134213058e-03,-5.255935349460658657e-01
9.776575536762365459e+00,7.587729978283457802e-04,-5.250563232833201921e-01
9.782701836430605979e+00,3.135741606408022804e-03,-5.186959012412403203e-01
9.777518886843141743e+00,-8.249865247517806487e-04,-5.116494333709656894e-01
9.774961138732802368e+00,-1.809837243093985167e-03,-5.135826683769812995e-01
9.779939081042503091e+00,-3.529359621557697380e-03,-5.179201732753226928e-01
9.779547690718857211e+00,-2.867149179332690451e-03,-5.055551367584062428e-01
9.780679964507397628e+00,-5.510568201039378264e-03,-5.098849657559542115e-01
9.779758755486065880e+00,2.368601011401794132e-03,-5.177442242536999251e-01
9.783329190145096277e+00,-6.189982910034763815e-03,-5.105454067303847321e-01
9.776085939457136220e+00,1.873690206732360735e-03,-4.984565297989246857e-01
9.777710020157169168e+00,-7.112342402411542253e-03,-4.930590062667317142e-01
9.783601012254388607e+00,-1.594983946377896309e-03,-5.021704169771290527e-01
9.785216022672930336e+00,-1.683448705659788130e-03,-4.950302115127555025e-01
9.786657086861881183e+00,-1.308469930875361641e-03,-4.855345525234509019e-01
9.779101771667818355e+00,-2.552356722148184549e-03,-4.959367859057773886e-01
9.779868155966903842e+00,8.224920905288753831e-03,-4.932025185646060628e-01
9.784562657729539481e+00,-3.873229751709718512e-03,-4.833852510135235869e-01
9.779502385319659652e+00,-6.953409311178319896e-03,-4.815737434646849002e-01
9.785761800531640020e+00,-2.128086418212739566e-04,-4.773006182753636861e-01
9.791621472481097044e+00,-5.964813012891447257e-04,-4.736270366872077919e-01
9.784645635480009318e+00,4.325447037582924245e-03,-4.674123797085504295e-01
9.783186898361281081e+00,1.394532278759181079e-03,-4.726829302237377517e-01
9.781860868450593216e+00,1.007050489046510539e-03,-4.660098033299439058e-01
9.796011496667144769e+00,-3.652099667970525911e-03,-4.599694559037584285e-01
9.776870992327276966e+00,-5.921770458663340626e-03,-4.667343045874314256e-01
9.779459668133871020e+00,3.455650373483513428e-03,-4.602413849948053248e-01
9.782897518819167360e+00,-7.700523830731412396e-03,-4.552575353388478296e-01
9.784779008851721471e+00,3.255543039918744157e-03,-4.591625146802031932e-01
9.789346005779929527e+00,-7.108857015678420911e-04,-4.492783152044628747e-01
9.783820986105224549e+00,1.373373109873711473e-03,-4.524289796842758116e-01
9.775093820300600811e+00,1.149095537011618484e-03,-4.581723665735902840e-01
9.782198274692149198e+00,3.391948549073761816e-03,-4.495151989086967337e-01
9.786275383772762737e+00,-7.768156424096223436e-03,-4.516705980892847250e-01
9.789950577414039401e+00,-3.992749938432411938e-03,-4.453801733684953357e-01
9.788340490511934888e+00,1.288440737732360081e-03,-4.319391722854166726e-01
9.786470020869574071e+00,6.985084986228966893e-04,-4.351818957582705982e-01
9.782270252952367073e+00,2.240486287314946007e-03,-4.343802700008435047e-01
9.790077329251424487e+00,-6.518238203693620114e-03,-4.379144770135331433e-01
9.782322303132781727e+00,-2.913881161590455536e-03,-4.300511230722198208e-01
9.784093430054296547e+00,-4.054497708932899153e-03,-4.220355666326152111e-01
9.787189403053323744e+00,1.142732129879851267e-02,-4.250717802269560752e-01
9.785122671154226737e+00,3.327531931298325675e-03,-4.208530212628306399e-01
9.779945439769571536e+00,-1.668818405098064549e-03,-4.224268934412009902e-01
9.787761927115738558e+00,5.544702817723178544e-03,-4.198987642929160047e-01
9.787490853039406247e+00,-2.420647388223471762e-03,-4.189477788522363300e-01
9.776728734919775121e+00,-1.860036769781867180e-03,-4.129433115389917197e-01
9.796296008037948866e+00,-3.310321992417587095e-04,-4.116370712321320013e-01
9.783776996113806135e+00,5.942829779864805713e-03,-4.139427112160093403e-01
9.784109546493917620e+00,-2.502337665582665682e-03,-4.079224287000935423e-01
9.784088777910096013e+00,1.819209014956566601e-03,-4.009971668353844998e-01
9.775920377871150535e+00,6.518715263159010655e-03,-4.095006276108068555e-01
9.785307162740352283e+00,-2.687998852990076612e-03,-3.970792396320131923e-01
9.786344904158230662e+00,1.473316822883223055e-03,-4.057176971761383144e-01
9.790869909518878700e+00,1.634700506182987451e-03,-3.982523447072675582e-01
9.784798168036944688e+00,1.678134139779616013e-03,-3.998020023532508072e-01
9.795413137934289693e+00,-3.806759898467612212e-04,-3.916506121347604896e-01
9.791983689460938223e+00,4.820116127163383279e-03,-3.952919832205479267e-01
9.783463228966546410e+00,2.768155201199676285e-03,-3.864842977501515842e-01
9.792828812419825724e+00,-3.706113526345589104e-03,-3.869525447959841213e-01
9.783077240244081096e+00,-9.522761060999571092e-03,-3.855868642500400734e-01
9.786281661695110046e+00,1.162218397439684480e-03,-3.787238141598978092e-01
9.794496850320141945e+00,2.108190561810958669e-03,-3.786545967795924561e-01
9.790550938201146636e+00,5.882950773217001132e-04,-3.681195352731176929e-01
9.793265920218086507e+00,-1.172674797659522747e-02,-3.771333661209039789e-01
9.788188214819269817e+00,-9.286074971467502210e-04,-3.781582591053739284e-01
9.798399660196066563e+00,-6.145512869035866382e-03,-3.775228806087196909e-01
9.783746107599736064e+00,1.460217701048332432e-03,-3.789332591316714738e-01
9.792186394799536231e+00,-1.184194022355584356e-03,-3.779187144410565136e-01
9.787205128079575545e+00,-9.181323487495901201e-03,-3.714200487065066336e-01
9.787302516719398326e+00,1.673526274163952658e-03,-3.633321279867690046e-01
9.781755521441438006e+00,-6.150205481910637866e-03,-3.670729987774869474e-01
9.791023547260660820e+00,3.700872740484853572e-04,-3.609261399335803588e-01
9.790773997827724173e+00,1.069539570765029850e-03,-3.618171226153396036e-01
9.786327285224261985e+00,-4.411320551836459165e-03,-3.553433458874297179e-01
9.789102489610916891e+00,2.014217554631330016e-03,-3.629062166842395021e-01
9.785203710598155524e+00,-3.064932658569483482e-03,-3.557119722255395189e-01
9.795934069193032556e+00,5.971050582852047975e-04,-3.517249558856552216e-01
9.785087340774442310e+00,4.770008785573171678e-03,-3.563569565370410253e-01
9.791299810330881925e+00,9.467186809724123520e-03,-3.466346508796656622e-01
9.782080945683237161e+00,5.865899292523804381e-04,-3.580712542485816052e-01
9.796895334055440330e+00,-2.905394547239701416e-03,-3.618832599333961508e-01
9.796478025575577675e+00,5.276366969778659502e-03,-3.438428114896958654e-01
9.798970288793489303e+00,4.381585447881750908e-05,-3.345253487163639683e-01
9.789811718503850457e+00,-5.999514003628182018e-03,-3.396102133583871474e-01
9.786123304270979872e+00,-5.084674622735567938e-03,-3.431534580853854433e-01
9.788599343471137360e+00,4.791520471470415293e-03,-3.318303296989694173e-01
9.788406973251522203e+00,9.599675986153395277e-03,-3.147883488408443342e-01
9.784066878717764482e+00,-2.873477678146312692e-03,-3.359058174832572630e-01
9.788429447828042029e+00,-3.448516500003836072e-03,-3.355838728343666921e-01
9.799425635664725576e+00,8.098100933674314082e-04,-3.223109876149014008e-01
9.789068493493415346e+00,7.636414769810277378e-03,-3.230054000843015083e-01
9.795467460904703216e+00,1.983311700210849994e-03,-3.226029182187127309e-01
9.800659493662280397e+00,-3.033503651005215775e-03,-3.195446217738900363e-01
9.788066181663733545e+00,2.247709268086633700e-03,-3.187425240303897178e-01
9.787697921061274897e+00,1.464298257114087019e-04,-3.258937332906291506e-01
9.783630781541441834e+00,-4.104328953414482749e-03,-3.182420821169164027e-01
9.790463034479927273e+00,-5.841836689158166722e-03,-3.207669937574662011e-01
9.787780376096520740e+00,-1.879372246826184305e-03,-3.121660121531866228e-01
9.791570550460562572e+00,-2.888544787243718399e-03,-3.189042594495586913e-01
9.793947402356218745e+00,1.302275852719897388e-04,-3.161098789289652489e-01
9.790204811975787180e+00,3.977897646714888985e-04,-3.109995514447432829e-01
9.781120349354569754e+00,2.663094458003211276e-03,-3.098652123567229855e-01
9.785081718570937781e+00,2.297191729833985424e-03,-3.058527527344077068e-01
9.784834683100905650e+00,-4.436189119502598026e-03,-3.063134144863496888e-01
9.786048707327847040e+00,9.563865472215896113e-03,-2.988373309128030675e-01
9.785978560336571874e+00,5.019025940541660923e-03,-3.044438485100232072e-01
9.793282364121978389e+00,-3.832973794621526500e-03,-2.962059913204779238e-01
9.792293459609309636e+00,2.485266858598667288e-03,-3.055225290747793920e-01
9.801430720794256146e+00,3.776687703074266267e-03,-2.968636739855295970e-01
9.786455048627264119e+00,4.979219173340478262e-03,-2.912628065960005119e-01
9.796851022859037528e+00,-8.517788162567806751e-04,-2.927209022540926964e-01
9.785272209540291755e+00,-1.100067024834157012e-03,-2.955784990414067059e-01
9.792953705684155352e+00,-6.097733765592481051e-03,-2.920096840108741265e-01
9.794414814021275006e+00,6.984791656045163249e-03,-2.927644107092194914e-01
9.787804710804204333e+00,4.785324824406707485e-03,-2.886101736125522010e-01
9.792992203698604570e+00,-6.516199430867787926e-03,-2.909508576985163630e-01
9.792153948823591136e+00,5.050998043506333204e-03,-2.837009806689177460e-01
9.799144359879147004e+00,-1.062631662240974550e-02,-2.757902958473172350e-01
9.800119604707701271e+00,5.470303872198939085e-03,-2.862941020764794287e-01
9.790244670564726803e+00,3.753215057638802869e-03,-2.918425896247555107e-01
9.784213174552187198e+00,-8.416648185645784000e-03,-2.780059208650314528e-01
9.786332976449969578e+00,-7.866551567858520028e-03,-2.786882628124038863e-01
9.791528375864507083e+00,4.625257178781468602e-03,-2.765409151872826876e-01
9.782416247372117013e+00,-1.939348805123304207e-03,-2.790351038152217300e-01
9.787156622163990960e+00,4.602736348321731334e-03,-2.813890387855630393e-01
9.784560296147345682e+00,-6.204829940952113349e-03,-2.834021661884483234e-01
9.793546872254635716e+00,1.038383838358653173e-02,-2.753236132356573496e-01
9.784783412007328707e+00,1.932384534175581470e-03,-2.646206139378002864e-01
9.788569048431218889e+00,4.871366474618695278e-03,-2.657723466098880216e-01
9.787171961626507155e+00,-1.095946013631057207e-03,-2.741189468151530861e-01
9.794386081597490801e+00,-2.899137619356754233e-03,-2.559238596738460658e-01
9.791544263430758122e+00,1.061128733273714042e-02,-2.656737190422275297e-01
9.804240488469924131e+00,9.200621211894880521e-04,-2.616438073633130523e-01
9.773658551663462646e+00,-4.962716906948921175e-03,-2.591320745567405326e-01
9.789100296769627008e+00,9.926011116595646975e-04,-2.514461461661582908e-01
9.788891023885657461e+00,3.638957422328953882e-03,-2.588799441945147661e-01
9.788748500674977038e+00,-1.183375905570115127e-02,-2.536037005679059875e-01
9.797148692372378065e+00,1.089611085698601088e-03,-2.543498365355241764e-01
9.793111517057674575e+00,-2.354309082411041275e-03,-2.683416260995733493e-01
9.786318422259094874e+00,1.187645947649700572e-02,-2.497415198719328544e-01
9.799388161672935027e+00,-2.421527127942186500e-03,-2.399323062872322776e-01
9.800819027227364089e+00,1.164674469826936128e-03,-2.555137740493614862e-01
9.792459865953578202e+00,-1.985460674586088034e-03,-2.491080156700128390e-01
9.793653847099919929e+00,-3.610959573757044870e-03,-2.474059677487497610e-01
9.789252258698905251e+00,2.574790124639197379e-03,-2.461233800078605483e-01
9.793181646467266077e+00,1.025663020520063088e-03,-2.476058830989368298e-01
9.789714372686466604e+00,-4.653667439517611762e-03,-2.449307315808884333e-01
9.786129134540599850e+00,1.896053944652629532e-03,-2.376854697996716448e-01
9.795843138811944684e+00,-2.929193455941345517e-03,-2.465987884483788195e-01
9.804259110461819304e+00,2.543456999419981598e-03,-2.377740867500337529e-01
9.794640075791551936e+00,3.030004273294607635e-03,-2.409618851331176148e-01
9.781176377311165737e+00,5.660289719621057394e-04,-2.427981218805373986e-01
9.792676532253684840e+00,9.771705312291554049e-03,-2.327417196861154836e-01
9.794044911795287689e+00,3.663085120501605174e-03,-2.387487511453739719e-01
9.789621056430426904e+00,-1.019588711621803459e-04,-2.345713459526483635e-01
9.794587309901565675e+00,-5.505418005007397912e-03,-2.286593762426415710e-01
9.801041756741090794e+00,8.077526174629515512e-03,-2.299825060603019611e-01
9.801678170274952251e+00,-2.001069579997021182e-03,-2.288961090340675686e-01
9.798002689140576038e+00,7.107713146682414357e-03,-2.220265273306148424e-01
9.795391778934995131e+00,-1.163847048992451127e-03,-2.346339269640155822e-01
9.794494217532085045e+00,-5.926138930921294110e-04,-2.291541516422148650e-01
9.799225241820201049e+00,2.921950087493093914e-03,-2.232558851293487412e-01
9.799325014882251494e+00,-5.134896133162402884e-03,-2.222064345151096298e-01
9.799792532262470601e+00,-7.950820497186170425e-04,-2.239173759324099566e-01
9.796260188895800525e+00,2.808213098596838535e-03,-2.272135032536327925e-01
9.791716603718258582e+00,-2.718391239694732068e-04,-2.115362822980033086e-01
9.796170779052502553e+00,-9.814872869580450708e-04,-2.253218972513850171e-01
9.794291051060328712e+00,2.870317328358084046e-03,-2.230759742913463461e-01
9.792364996736374394e+00,-5.021835789851415710e-03,-2.122719370732774891e-01
9.790282626721580783e+00,-1.741784023309445864e-04,-2.205127243570549900e-01
9.790889809827266532e+00,2.893870090550153956e-03,-2.159022765871973226e-01
9.796394688913942161e+00,-9.990602203190247083e-04,-2.121818877042944695e-01
9.793837800426716811e+00,1.562028113738341689e-03,-2.128901214377407480e-01
9.794158787457501347e+00,-3.688664812747161157e-03,-2.024306322284023241e-01
9.789179180205282549e+00,-4.882042846204349279e-03,-2.025621452088391117e-01
9.799711708543725308e+00,6.173238988573927308e-04,-2.137362543433403428e-01
9.793808111473751410e+00,1.029359761342216011e-02,-2.064949627950904421e-01
9.791085380795850668e+00,4.078454626750957143e-03,-1.993526689244575767e-01
9.793821736248549570e+00,6.822221107554744465e-03,-2.021811776235008795e-01
9.788096070278777816e+00,-3.722484293643875571e-03,-2.090584235362269450e-01
9.805760295796082104e+00,-4.575688085059839011e-03,-1.902752355638272219e-01
9.806862222267461959e+00,-6.810595314317838267e-03,-2.048031472093773397e-01
9.791691183414920729e+00,2.779657977861816308e-03,-1.964915364759528826e-01
9.795103477746941678e+00,1.336235143655889121e-03,-1.978759623933055989e-01
9.789640435489937786e+00,7.487246542257631511e-03,-1.952267559251032181e-01
9.794747144584524889e+00,-7.237514148225121860e-04,-1.997708042563761666e-01
9.787210819101369808e+00,1.903699706216747858e-03,-2.023969208189234092e-01
9.789600640359399364e+00,-5.861530712219868364e-03,-1.979296702048698731e-01
9.787736323211946754e+00,-7.908087815732278009e-03,-1.914491172397526086e-01
9.786979185967094708e+00,-3.081451687063948945e-03,-2.005634908212634848e-01
9.792220117484569997e+00,5.469247981951174016e-03,-1.941465976990515152e-01
9.790966225131754186e+00,3.433438860911592477e-03,-1.953190140771035033e-01
9.791224285644313241e+00,-2.606062944940770731e-03,-1.887984146036043032e-01
9.795965908471877981e+00,-4.852406222353587012e-03,-1.867072747863612880e-01
9.793477993902499179e+00,-1.844632258745190333e-03,-1.925211566604987379e-01
9.794666188211719415e+00,4.841268458257196212e-03,-1.959214426218227612e-01
9.795727098790631970e+00,1.769791043628054887e-03,-1.811522143603212509e-01
9.794220587574484327e+00,3.044531166717622406e-03,-1.838186295907301426e-01
9.791713097704340285e+00,1.222584548584061334e-02,-1.840600338505206102e-01
9.790686257528138370e+00,1.006769506526149043e-02,-1.837863238840307112e-01
9.795990863780371427e+00,3.910012249273999915e-03,-1.899009541019727187e-01
9.793882594350717952e+00,6.015951303820706074e-04,-1.846516479053644244e-01
9.803368307696274542e+00,-3.556816260452117092e-04,-1.830170194882060619e-01
9.794603833975125795e+00,6.892533993436083346e-04,-1.866059098426758600e-01
9.801846110228808584e+00,-1.079291424805570686e-02,-1.800750953506634611e-01
9.788863605157793302e+00,5.555999934670883926e-03,-1.729981660537913413e-01
9.799268591622773528e+00,1.276068808542928784e-02,-1.840932834696197284e-01
9.795563895970269996e+00,1.754869191387754216e-03,-1.825757082151745758e-01
9.787985058655694459e+00,-4.756394000768305284e-03,-1.729915690510956117e-01
9.798137931284584212e+00,1.190749223582820461e-02,-1.750695060677710524e-01
9.791223266073695086e+00,-1.528515053272965721e-04,-1.702624701071083213e-01
9.785280649634207961e+00,1.005716920229420257e-03,-1.706375064420543597e-01
9.789509090007475933e+00,1.384923303755910108e-03,-1.769797455668841724e-01
9.801053744901084386e+00,1.520100996033246039e-03,-1.721196538472622994e-01
9.784433960712886957e+00,-2.116894422824160040e-03,-1.640720512129379416e-01
9.789931223635409907e+00,-1.513084276049692263e-03,-1.720942160942565691e-01
9.791537724393300834e+00,9.375182625406883533e-03,-1.718986668070541235e-01
9.801254448724240120e+00,3.302366103685699938e-03,-1.709201105265207021e-01
9.788190492065917070e+00,-5.005984150069737668e-03,-1.694423805021416929e-01
9.800007270238184631e+00,-7.044806952236510808e-03,-1.728763498576515178e-01
9.798885647255179521e+00,-1.406105201762809960e-03,-1.641095528104308532e-01
9.787778660950458232e+00,-1.226664105037857458e-02,-1.627172719208743734e-01
9.799999563695367399e+00,-3.923909289737364256e-04,-1.640376271681397990e-01
9.794877989838665755e+00,-1.504870404896322148e-03,-1.584132799968594740e-01
9.796964755789046464e+00,-7.715420223497217872e-03,-1.550437030640007263e-01
9.791378185558389902e+00,2.897859480828137314e-04,-1.661503178421096516e-01
9.781098760611842025e+00,3.582178614470485876e-03,-1.480827142336009483e-01
9.793354433378874901e+00,2.382694442142719443e-03,-1.595582384308665003e-01
9.793219885457808971e+00,-4.379551729672461098e-03,-1.579919002124808014e-01
9.792439218401495893e+00,1.093423997796822561e-02,-1.579345100646559197e-01
9.790342985646688589e+00,3.970784516510693363e-03,-1.543934761160578872e-01
9.799704744057800454e+00,3.165261412816918613e-03,-1.543263662693183935e-01
9.797288386139577199e+00,-8.879214181218671870e-03,-1.543478387699093735e-01
9.791101108154432353e+00,4.487745825011840543e-03,-1.587252996351651846e-01
9.795012382634000758e+00,-5.739663211223221088e-03,-1.486448599229993617e-01
9.792187670982620773e+00,1.367046035841201768e-03,-1.522237279709608704e-01
9.786559135299583545e+00,-2.091958928034772392e-03,-1.474876855836522171e-01
9.796527508202693468e+00,7.637386194374520300e-03,-1.546442298487297196e-01
9.786911644990388126e+00,-8.058542550913764396e-03,-1.594216990931668909e-01
9.792314782025094644e+00,2.556234441347393638e-03,-1.413977222851042492e-01
9.798607057228213790e+00,-3.559680039809040141e-03,-1.441398750065017997e-01
9.796185862538914435e+00,7.420505795134946583e-04,-1.495079959599211750e-01
9.792792342481579482e+00,1.780755857788046941e-03,-1.468559753821564451e-01
9.793097595610756656e+00,-2.623580434673026228e-03,-1.550683884437460136e-01
9.789792332596938707e+00,5.474194523384648056e-04,-1.471740814665634667e-01
9.790665081924528224e+00,7.084191319575255247e-03,-1.403965575590860881e-01
9.793658037573941044e+00,2.562801160357861506e-03,-1.491391493988085681e-01
9.800003489676166524e+00,-7.397347917457032518e-03,-1.457842877554991756e-01
9.793877085861323550e+00,9.020859591191265209e-04,-1.401873090913356157e-01
9.804551340177528829e+00,-4.048732733735046010e-03,-1.360876858167707204e-01
9.792047105385959682e+00,-2.989940053429201560e-03,-1.444721561870032367e-01
9.791133580915493795e+00,1.726268439296587374e-03,-1.448145504183873666e-01
9.798930206355279893e+00,3.286867353518131609e-03,-1.426400881189283376e-01
9.797882546889200128e+00,1.816250138978761381e-03,-1.398133628506182669e-01
9.792840748894352743e+00,-2.358473702543663038e-04,-1.358034900283350832e-01
9.787401387558546162e+00,-5.945033636914335250e-03,-1.334707562319378260e-01
9.800751044822957780e+00,5.374799847333839795e-03,-1.393873060913360107e-01
9.785844081455893573e+00,-1.253770439358730358e-03,-1.389350410331401109e-01
9.794444899168933460e+00,6.409783607364084868e-03,-1.342441093524419649e-01
9.793454286262514685e+00,-2.733805955899380660e-03,-1.319321154578657618e-01
9.791028003814727043e+00,5.874944236472221144e-03,-1.360132656984316679e-01
9.792497445182853255e+00,-7.487169255421963210e-03,-1.454378441173566350e-01
9.800216224595127201e+00,-3.098453508528956069e-03,-1.418359171779888239e-01
9.793535711038417801e+00,3.066064808420914702e-04,-1.293714759449293705e-01
9.792308395234508467e+00,-5.689098965484912576e-03,-1.396962304836408542e-01
9.785155660540898026e+00,-1.956840147490672508e-03,-1.341809938679356662e-01
9.793469035434043235e+00,3.497655346679531233e-04,-1.317718451229393517e-01
9.805821416806104196e+00,7.324951943598413499e-03,-1.327160337684257230e-01
9.795541968827864210e+00,-1.419364107489618117e-03,-1.281772148863244143e-01
9.786700551165875339e+00,1.095717846919446944e-02,-1.265568615607952363e-01
9.790552616800813013e+00,6.975847016980648088e-03,-1.293974910563353842e-01
9.788880411301073892e+00,5.172695918354281233e-03,-1.321475900522346425e-01
9.789031699934380271e+00,-3.146440567983521674e-03,-1.334999583761714015e-01
9.784265359795288219e+00,-1.887256536116432848e-03,-1.241372475484405491e-01
9.796684363151358710e+00,5.959614986199449592e-03,-1.306072635513422231e-01
9.803039377240152064e+00,3.161020569649506447e-03,-1.277646465175291401e-01
9.796437139738971567e+00,-5.764456205922943244e-04,-1.251024459310635661e-01
9.792819455871697443e+00,1.013167056070811943e-02,-1.225081053684098364e-01
9.792719876790586753e+00,-1.367051509474355268e-03,-1.225588041068976092e-01
9.789971662491732118e+00,2.446180898097202565e-03,-1.218872044192878812e-01
9.793200685063611743e+00,2.449788927683970927e-03,-1.269480346785552272e-01
9.805219637954586176e+00,-7.995591408169896996e-03,-1.131642922973121190e-01
9.793521326037753383e+00,-1.086070299917654691e-03,-1.163273365729821651e-01
9.790941556236955279e+00,5.847835913150774625e-03,-1.146011943506601849e-01
9.795017272272820819e+00,4.898034399848524845e-03,-1.228852934642191974e-01
9.789151513712599950e+00,-7.570422366736899791e-03,-1.161828000994768600e-01
9.798263814055180987e+00,-5.153836932389316977e-03,-1.181340832196363794e-01
9.801203869811217828e+00,1.034102607109381716e-03,-1.227274519384005530e-01
9.784170924063774422e+00,5.246919048614536937e-03,-1.144737356268187428e-01
9.790041763244953898e+00,2.637258980946580221e-04,-1.108619617918518985e-01
9.791471118182748512e+00,9.205633756741975898e-04,-1.143842175924823928e-01
9.791722689221614928e+00,-4.665565607464242093e-03,-1.179441629619624177e-01
9.794505519795549731e+00,1.001715621124308481e-02,-1.145061274953673713e-01
9.788501482954904631e+00,5.315395614260884881e-03,-1.031377157394599842e-01
9.796219112577547961e+00,2.725296091929410146e-03,-1.115084421039807261e-01
9.805042405716950071e+00,-7.065487593264475376e-03,-1.114210998078119935e-01
9.802661488275763446e+00,-9.678283038528582433e-05,-1.107005276180387798e-01
9.791001100062358020e+00,-9.245124463697675923e-04,-1.039040875172192180e-01
9.786146711061974202e+00,3.113370004582872996e-03,-1.016786106361341896e-01
9.791533016634344833e+00,6.393141906256867698e-04,-1.058461816645690778e-01
9.793581104992743036e+00,-2.676012780972446183e-03,-1.008401485701941880e-01
9.796418764545650859e+00,-2.507574656666718659e-03,-1.061506508629954521e-01
9.799106422219107770e+00,3.835573852912953479e-03,-1.038191824077293740e-01
9.793963323062206072e+00,8.665576835422180574e-03,-1.138564275903618389e-01
9.785519311787199470e+00,-2.550284276581549214e-03,-1.042816728787418906e-01
9.791781066314451110e+00,6.495083889347149329e-03,-1.013251604671009665e-01
9.794540110513123565e+00,-3.319167291662866205e-04,-1.008667162816305890e-01
9.794993265400638194e+00,-4.743264449728978524e-03,-1.038832412763850271e-01
9.786177027316028898e+00,8.188617756679197196e-03,-1.091253224024316126e-01
9.801862413698485099e+00,-1.487696857532755466e-04,-9.836532668131602042e-02
9.797726422485544262e+00,-3.769502577435020468e-03,-1.082711273824117915e-01
9.801769200350616273e+00,5.151092629057961447e-03,-1.030191644199293516e-01
9.789556124295383910e+00,7.200264820768711299e-03,-1.036772647213236309e-01
9.794350965846344792e+00,3.239510708058833052e-03,-1.009496679328584362e-01
9.797844201301368017e+00,2.187195070595060898e-03,-1.041965777798023601e-01
9.791688715611851279e+00,-1.844564089557619926e-04,-9.764430195022824610e-02
9.788260941313035701e+00,-7.407815534333340481e-03,-9.753124444720757957e-02
9.797581191427633840e+00,-7.097999532863519603e-03,-8.769101134819881627e-02
9.794111378156285852e+00,1.117850680963822577e-02,-8.657912508196972945e-02
9.792890148119647975e+00,7.178626937232865553e-03,-1.025062034182366161e-01
9.796980839375368788e+00,-6.538141417310232295e-03,-9.823617049642834054e-02
9.792211040618321150e+00,5.358970249312569947e-03,-8.969297496586815799e-02
9.791848727349764303e+00,4.978831067043523913e-03,-9.767701514335205837e-02
9.794270308017265947e+00,-2.376976611169889699e-03,-9.091569034246367587e-02
9.797466046268276330e+00,1.601314839709843708e-03,-1.036312134768852117e-01
9.793940907668307716e+00,7.958266460922901490e-04,-8.974497701164523000e-02
9.811435692464538505e+00,6.289075115646988387e-03,-9.386756421538776374e-02
9.792515239167762786e+00,-7.259763457930569139e-03,-8.835260536383401919e-02
9.786849475144602906e+00,2.076666808233389953e-03,-9.397372743747485491e-02
9.789871448250632824e+00,4.052265653315112286e-03,-8.866265588676659759e-02
9.780270116574007133e+00,9.444610334666793394e-03,-9.657874736508743896e-02
9.800215246364910371e+00,3.850988041567335145e-03,-9.188776319945683724e-02
9.790379701687866643e+00,8.606091496976196048e-03,-8.714405371564132308e-02
9.803860056987170779e+00,-7.462215086934013497e-04,-8.525501540609559115e-02
9.794626166152978541e+00,-1.828525851615133997e-03,-8.794661309095723467e-02
9.794186225703915838e+00,7.964915778205626171e-03,-8.290073910866416207e-02
9.795777577412206227e+00,-8.448058286260318878e-03,-9.312452960390064927e-02
9.796878220632279977e+00,5.336406658924383942e-03,-8.765127627121126197e-02
9.790745591818167171e+00,2.572339830905098941e-03,-9.582213304401804299e-02
9.787427988551868907e+00,-5.481659576759451667e-03,-9.290099348275940305e-02
9.796171275565043857e+00,7.530411288391447317e-04,-9.011170345215004096e-02
9.800084341302619961e+00,-9.973387756943049697e-05,-9.147198749326286571e-02
9.795980825654737600e+00,5.254608534202403472e-04,-8.415536809461290901e-02
9.791505341372310767e+00,-5.396074588053551002e-03,-8.018859472174473535e-02
9.792525943440079317e+00,-3.494773448255123621e-03,-8.403386327947995338e-02
9.792666021253481290e+00,-6.872764081666943997e-03,-8.257529690340968676e-02
9.796751618201108514e+00,-1.621294187094468077e-03,-8.300148455917580326e-02
9.793252249441456669e+00,1.004745441203206205e-02,-8.273096281497904769e-02
9.795252553116245764e+00,7.727960542612526823e-03,-7.822661665038682655e-02
9.793938958951772022e+00,4.805010898060072672e-03,-8.206486324679178324e-02
9.783914395728480429e+00,4.517470486103147310e-03,-8.685907906788929711e-02
9.799767613617326845e+00,-5.938487547377040935e-04,-9.121288458320966908e-02
9.789777408335039510e+00,2.840356701742201284e-03,-8.013567223632167558e-02
9.791286969375130766e+00,-2.881986060721607873e-03,-7.565190899033426286e-02
9.802468601866261011e+00,7.032647832292317040e-03,-8.247277300728499128e-02
9.786301639557354548e+00,3.186769993256537668e-03,-8.403427592715131955e-02
9.786493706438987417e+00,-8.443741274856038370e-03,-8.689004968145244701e-02
9.797165793817550039e+00,7.533091794967521071e-03,-8.313275786278728763e-02
9.791297548335954559e+00,4.160091028980751268e-03,-8.162449879148450660e-02
9.793072863866116862e+00,-1.229205740874883502e-03,-8.266999908939726138e-02
9.782682905357445335e+00,3.249556047000289310e-03,-7.821614698525959641e-02
9.794878707910211091e+00,2.162970012836088265e-03,-7.409383036853148252e-02
9.794421355234309345e+00,-2.120824381226886751e-04,-7.251085451860943276e-02
9.795764699116039864e+00,-4.190081948977414025e-03,-8.808437918168066094e-02
9.797214693025926735e+00,-2.249094319661189105e-03,-8.124959081470610467e-02
9.792580528616829483e+00,-2.187284910368086747e-03,-7.708872929442865674e-02
9.796888750402619195e+00,4.276091953438741246e-03,-7.176049835888903550e-02
9.799719679028763508e+00,-4.353462990368090705e-04,-7.576757339676110092e-02
9.803356450504548292e+00,-9.180476478567831111e-03,-7.296348617458997543e-02
9.789576176919439376e+00,1.920320947033906040e-04,-8.424580852090825245e-02
9.791740710815961535e+00,-1.195304463874695064e-02,-7.342229942807856902e-02
9.806307250345840387e+00,7.282556358497308154e-03,-7.909752768543991397e-02
9.791427457073615059e+00,-4.746826667535413227e-03,-8.443366502906814175e-02
9.791994531367025800e+00,-3.045791194061008098e-03,-7.003563595262581043e-02
9.790755668763781117e+00,5.350972703110532750e-05,-7.408783806679476724e-02
9.794744067362895379e+00,5.127709081836619338e-03,-8.169542750417141397e-02
9.796592291302809841e+00,-1.065065651716987907e-03,-8.529455218847850628e-02
9.793071571630305172e+00,-5.799018951377619448e-04,-7.373219360756169682e-02
9.794177380836305957e+00,9.990284346540152793e-03,-6.861576667684461672e-02
9.797407343729592100e+00,-4.104614087620907410e-03,-6.850379463553335491e-02
9.795926953837106765e+00,1.821372015681264802e-03,-6.797816785987148558e-02
9.790429760085569200e+00,-4.757736166392408355e-04,-6.683266484853968292e-02
9.798824037053543989e+00,1.361059650751413660e-03,-7.004524576181174467e-02
9.790255377214998944e+00,2.328818782196526486e-04,-7.322762714129960049e-02
9.801542310679723258e+00,1.413431563291879869e-02,-6.882267325782670531e-02
9.791091121061377578e+00,-2.207033530183392586e-03,-6.625196395478107070e-02
9.797363332051016727e+00,1.915022305883377386e-03,-6.795783701758137396e-02
9.795343586956271054e+00,5.023692368635798711e-03,-7.757509014526042801e-02
9.794462587251729246e+00,-5.045511844998198936e-03,-6.537915305943205191e-02
9.792642496714092815e+00,-5.364673257196543067e-03,-6.706481304907228880e-02
9.796586739768684993e+00,8.028469363860696664e-03,-6.052934540785246537e-02
9.796172381635908977e+00,1.515238824042659544e-04,-6.500468584784999115e-02
9.797955492957235890e+00,-7.391329412505748611e-03,-6.120201598452878339e-02
9.792185486033581299e+00,5.616074041402005501e-03,-6.836441001626675229e-02
9.799952195642410047e+00,6.200945116522417824e-03,-7.206123343153394978e-02
9.800541649917931863e+00,1.262193001977521441e-02,-7.329874690324324205e-02
9.796928339861638690e+00,2.315556281586585510e-03,-5.909825901859768610e-02
9.793525567862005232e+00,-2.565465888214602409e-03,-6.272749763253658573e-02
9.797720937956164278e+00,-2.792575039342105360e-04,-6.650977871649570161e-02
9.795549637315270175e+00,-3.878179760219256731e-03,-6.151644813601624823e-02
9.791335043078436939e+00,-2.994700269655775453e-03,-5.810469239797060037e-02
9.798348273239909645e+00,-6.655443650008853202e-04,-5.767879117154380703e-02
9.791022880710388065e+00,2.220126983544311317e-03,-4.890777753966056574e-02
9.793910557461298794e+00,4.261800644145967085e-03,-6.127443261368032551e-02
9.794597916342116406e+00,1.402605562113247136e-03,-5.147096464610781408e-02
9.790734312636486081e+00,3.261526675542265191e-03,-6.357939756242961260e-02
9.797925664087889785e+00,2.120999922800203153e-03,-7.081198035378308275e-02
9.795761674509202876e+00,2.890630091239737923e-03,-6.077446742155820369e-02
9.794199613338442134e+00,5.297020120502127748e-04,-6.291600103321196014e-02
9.792822354499927329e+00,4.581303221652803861e-03,-5.872414833385123517e-02
9.792469023874696532e+00,-4.456227245645156231e-03,-5.534565640393931951e-02
9.791617298874388808e+00,-2.735997746161180581e-03,-6.151104229798403517e-02
9.793138774417437631e+00,5.661416695113130962e-03,-6.627874825048057916e-02
9.794973524537988752e+00,7.212160513041522905e-03,-6.037291814277072344e-02
9.791440123619418401e+00,2.366789814678799033e-03,-6.810503806703654961e-02
9.800592219600101629e+00,3.246138531181695826e-03,-6.114539606954859374e-02
9.790434541762527587e+00,1.769283243995454667e-03,-5.529172733346789798e-02
9.797425527740138307e+00,-3.040190063677869307e-04,-5.562341984559730779e-02
9.804538800418168165e+00,6.422258444708785555e-03,-4.987117142441412077e-02
9.791753184702205459e+00,3.515590278809883028e-03,-6.114850316281215947e-02
9.797659137000071183e+00,9.585985197406148711e-03,-5.276071196347312253e-02
9.795294854605121060e+00,5.587795456289573401e-03,-6.228861047111377419e-02
9.792625978417540011e+00,2.579218721803513536e-03,-6.246775491466252661e-02
9.792651496054979532e+00,1.774921268884129422e-03,-5.226767494676597126e-02
9.801858394022202603e+00,6.858766506783998962e-03,-5.185346788466476536e-02
9.797244013874946589e+00,-7.909459982266748602e-06,-5.034575201854264714e-02
9.788229240349204829e+00,3.027125034952237587e-03,-5.818608985315411319e-02
9.793057289174031510e+00,7.490917381035364433e-03,-6.444740139221445674e-02
9.797540726425689073e+00,-4.626542134063726247e-03,-5.689998628901671296e-02
9.788418736882269044e+00,1.593659406200893976e-03,-5.698894647358603710e-02
9.801017722253407172e+00,-1.985674743506720373e-03,-4.727140030010865135e-02
9.800267488373917146e+00,1.105624824062897494e-03,-5.688232992921019721e-02
9.795748521350940763e+00,-5.618812078626826342e-03,-5.579449894779171804e-02
9.794068761869059614e+00,-3.765828758515280027e-04,-4.915527180758078041e-02
9.786011808330412620e+00,3.450513432300238680e-03,-4.913343850897507192e-02
9.795119452382550662e+00,1.723456261012038535e-03,-5.853014681942299291e-02
9.790110572002355127e+00,-2.827573828531025797e-03,-4.529913482907641648e-02
9.787834488576782732e+00,7.241319993512325762e-03,-5.078556879330291263e-02
9.794813966774873037e+00,2.504350245012288909e-03,-5.075313290448346670e-02
9.802694699468188944e+00,-1.948305929977467432e-03,-4.087390466333849781e-02
9.789060750868339156e+00,9.147279203798234712e-03,-4.437240860505121259e-02
9.792637996269888845e+00,-6.571957870883943752e-03,-4.789861046500407116e-02
9.799999287364757450e+00,-5.550605256327643261e-04,-5.506811620824023784e-02
9.798650433460007747e+00,6.704414426199388835e-03,-5.540713574930770241e-02
9.788496231536729653e+00,3.660335860352609706e-03,-5.105118487026318042e-02
9.798532637594432160e+00,-1.160862458245678300e-03,-4.274517097681197753e-02
9.804141700424912287e+00,-3.108995466904892167e-03,-4.569122644892301827e-02
9.795238570481703988e+00,7.621310857250365375e-03,-4.964745293429066036e-02
9.794838166124216983e+00,3.770920164094457294e-04,-4.963095939525963979e-02
9.797086010167308956e+00,2.169271796717740786e-03,-4.806602390521991230e-02
9.796461897503309757e+00,8.084240210475450786e-04,-5.335713628069491815e-02
9.791779172329482250e+00,1.562459835212616499e-03,-5.131557998269235116e-02
9.792463733796063607e+00,4.510555574942670155e-03,-5.376061602769405950e-02
9.799772281472636237e+00,-1.083412648532133121e-03,-4.326699821104614679e-02
9.802017568724728847e+00,9.815631999299401916e-03,-5.693776936558980761e-02
9.801793234107348596e+00,-5.952502053660724225e-04,-4.312335381048023469e-02
9.793287372120747847e+00,6.823535772332397185e-03,-5.402959124350549536e-02
9.792864766021468270e+00,1.807639762316718638e-03,-5.177570931021951983e-02
9.784373409599195881e+00,-9.209015010584442043e-04,-4.574590852485108106e-02
9.807415794654094299e+00,3.681712221847777307e-03,-4.570072838135156440e-02
9.788165451839949682e+00,-7.385605250481513083e-04,-3.818740680379696661e-02
9.796020140127239983e+00,6.358775338842432949e-03,-4.390948227572267354e-02
9.802402217888291247e+00,5.929338749630714417e-03,-4.297450918715025464e-02
9.797044584631565911e+00,-3.210593006273046186e-03,-4.956003198852015207e-02
9.788415206472873109e+00,7.695501965789127048e-03,-4.006508061410207766e-02
9.792676772301330601e+00,5.027496958776874305e-04,-4.520590608418087464e-02
9.797146330283524662e+00,8.261287623838271810e-03,-3.764799465957045788e-02
9.794991829856023458e+00,-3.782339582356056187e-03,-4.392388888088475524e-02
9.790855915306178048e+00,-4.934907492657685142e-03,-4.309111064411720593e-02
9.790608319271349558e+00,-8.675446193494021005e-03,-4.489424159375002971e-02
9.791807799352744368e+00,3.128948415043385830e-03,-4.457702439169011766e-02
9.799546189288225406e+00,-1.738983826210481476e-04,-4.260736882361461364e-02
9.795756474584134565e+00,1.713870352505556579e-03,-4.513388606895355620e-02
9.799603423425269355e+00,2.145649880700296452e-05,-4.717652142999931297e-02
9.798153973682445894e+00,-5.914596166327459013e-03,-4.651809829384336015e-02
9.798265070458461068e+00,2.670722418921597872e-03,-4.760275624979103115e-02
9.797879198248761412e+00,4.581363694715579089e-03,-3.721421688159788632e-02
9.802112324132750132e+00,5.427479305752209385e-05,-5.509030084253739579e-02
9.791943622342467179e+00,-3.547399827357649530e-03,-4.569144545171908989e-02
9.796314332806110414e+00,1.464183604519051982e-02,-3.865854279557940504e-02
9.787823773733931532e+00,2.517610265644557553e-03,-4.760229538600451588e-02
9.792192664048410933e+00,-2.658658950464230265e-03,-3.673840176757412618e-02
9.796577593199796041e+00,-5.100857897640090170e-03,-3.523911153348848607e-02
9.799964719294690596e+00,-2.886372927713069889e-03,-4.101365323048821593e-02
9.788854684395015937e+00,-3.192662757449830479e-03,-2.953826615635104721e-02
9.790788287574198279e+00,3.853254999901675314e-03,-3.609228142804457584e-02
9.797133420746376942e+00,-2.576295951090839045e-03,-4.239430004567704829e-02
9.799754799422776941e+00,3.869205162920600315e-03,-4.127899691816707545e-02
9.787391105351680665e+00,2.651990813138761956e-03,-4.002786892072777297e-02
9.801242651722882115e+00,-5.938511369069251989e-04,-4.090133013285088270e-02
9.796406087361701154e+00,-9.785096571761548769e-06,-4.065670615525491388e-02
9.799691262975064987e+00,1.041333414188735061e-02,-3.998644014187184570e-02
9.793609009447001412e+00,2.352453678657628368e-03,-5.012711424083296508e-02
9.791583524005243788e+00,-2.520769525321154593e-03,-3.868170469511182652e-02
9.798999358363259304e+00,1.115277672844241499e-03,-3.456932538297693286e-02
9.791326547738059105e+00,2.709343197710857142e-03,-4.257801209745524368e-02
9.803269195128340385e+00,3.704622870769844114e-03,-3.142271292332823873e-02
9.802427973535946748e+00,4.135516044288721667e-03,-3.533491540654672136e-02
9.791171632287763771e+00,2.492900289139833754e-03,-4.283531266300562301e-02
9.804202589583228544e+00,-2.828408063613678698e-03,-4.337588607231881999e-02
9.792839934147711034e+00,3.204895336797751503e-04,-3.453812880929559709e-02
9.799000033717522484e+00,2.698790186572760236e-03,-3.510919431297818138e-02
9.794089495557962266e+00,1.036675026521151344e-02,-3.965452855106671448e-02
9.794964107504814166e+00,-8.454767266146366849e-05,-3.631718217391883413e-02
9.800216636860074715e+00,-1.059970673064748389e-03,-3.511784557245792304e-02
9.793293293722356907e+00,1.904283809993246733e-04,-3.932665410966590391e-02
9.793571636509760481e+00,-1.841437383438170993e-03,-4.001049326784231197e-02
9.798914666335690526e+00,5.276973139658499949e-03,-2.662782961486424849e-02
9.805519060865163894e+00,3.558260140453954612e-03,-3.322375744929008390e-02
9.794041632609708614e+00,-1.909442819773429171e-03,-3.861982755579721621e-02
9.804650006583937483e+00,6.286077291524904201e-03,-3.691970322446996161e-02
9.792804701186659244e+00,2.805252963235227957e-03,-3.908723577197146387e-02
9.797190268825842097e+00,9.213127436490334971e-03,-3.273837160482101494e-02
9.796639108018986519e+00,-1.602706393361870603e-03,-3.057924684352326603e-02
9.793991125250528285e+00,4.296521881256029282e-03,-3.764530706125851500e-02
9.805505285672621696e+00,5.801616928428374870e-03,-2.717409613874241514e-02
9.790602989695468494e+00,6.241196696309707012e-03,-3.107661036496806375e-02
9.796304634637900577e+00,4.067304688883706040e-03,-2.835995000650704326e-02
9.796270433036610825e+00,-1.186586031244967789e-02,-2.933893444584891388e-02
9.793864267443597171e+00,6.619560076434374482e-03,-3.988382484775124248e-02
9.792828344805064589e+00,1.878270796077316940e-03,-3.569977921303834484e-02
9.805174475811607948e+00,2.227341634565714081e-03,-2.949676021014951272e-02
9.789887930778423453e+00,3.702979686751987649e-03,-3.727098505933226780e-02
9.805810919865242781e+00,-4.040418056181940658e-03,-3.745356908672838048e-02
9.786882149822925925e+00,1.418804077479593560e-03,-3.599861944108692646e-02
9.800794794455454095e+00,4.570517382679162299e-03,-3.795005234982641584e-02
9.792114919074798252e+00,3.149379299410712697e-03,-2.908575837884507659e-02
9.791975411908945048e+00,-6.425212540436568351e-03,-3.640185915370953290e-02
9.795543283817631064e+00,-7.582290140691370223e-03,-3.277436714431820886e-02
9.800579197592403702e+00,-8.890652175572734926e-04,-3.661885577539213815e-02
9.796640332702779119e+00,-3.489882310488880840e-03,-3.098883297455090613e-02
9.795556056341071738e+00,-6.803296661306822146e-03,-3.110354151044327289e-02
9.795561409801560870e+00,2.599275444589330478e-03,-3.553617958164562163e-02
9.790681328701502650e+00,-5.300026103590378679e-03,-3.229544074994118719e-02
9.792612725797011919e+00,3.417792023568719251e-03,-3.565917150845963890e-02
9.788920846291029321e+00,1.549969053189792847e-03,-3.033528137609456041e-02
9.794991113907700608e+00,-2.989643024616572831e-03,-3.771232025815898781e-02
9.795280526091071138e+00,-5.880951344658804682e-03,-3.439835808308783910e-02
9.802721816739587979e+00,7.377645619865895107e-03,-3.119626700791625767e-02
9.793979423252025640e+00,1.123935562916239528e-02,-2.795215119577335039e-02
9.794517160762596930e+00,6.320440927166539160e-04,-3.805364184402956762e-02
9.781600309272320715e+00,-2.660512168737327789e-03,-3.296975716140412155e-02
9.790042363384710455e+00,4.636708785602516002e-03,-3.186855309418353682e-02
9.790034327575819262e+00,-6.601375438425284396e-03,-2.069413620282924832e-02
9.789984132724807608e+00,5.472569815842956605e-03,-2.325755042188838023e-02
9.800397218768111429e+00,-1.209418055999905706e-02,-4.424575371432701992e-02
9.795895937587463465e+00,8.495917835989519329e-03,-3.416779968247073834e-02
9.791123993249071233e+00,-1.005255718628301521e-02,-2.650064608087960780e-02
9.799275850563953227e+00,4.167241480153665548e-04,-2.293067514170911078e-02
9.801191569502353929e+00,1.234020901526990295e-02,-2.837233517702791169e-02
9.788219032989802670e+00,3.691337193121759300e-03,-3.739014135363305513e-02
9.807348159139511523e+00,4.489282355582996029e-03,-2.289091460417580839e-02
9.794296760417422476e+00,6.388877716718720234e-03,-2.503020263525850692e-02
9.791047723465831965e+00,7.169918664873779898e-04,-3.617324679322626163e-02
9.794004531514946876e+00,9.517257894351092637e-03,-3.147948907366421301e-02
9.789431150514776192e+00,-3.262036691412122276e-03,-3.214244122183694541e-02
9.797351060934747835e+00,1.969541175398031169e-03,-2.179884283221326588e-02
9.793761685335674372e+00,1.889814636468576487e-03,-2.718243951270899600e-02
9.791122241864497866e+00,2.213771783904778558e-03,-2.985417608753893406e-02
9.794257248119475179e+00,1.116878537101871800e-02,-3.262382217108544119e-02
9.798343242798488006e+00,-8.144723795059725935e-03,-2.419516758219272812e-02
9.788281268753339148e+00,1.957893484822142115e-03,-2.252266128738558693e-02
9.795603619292696962e+00,-4.053972064766515372e-03,-2.077651881995935465e-02
9.798682894001268906e+00,4.914645236209847293e-03,-2.189658022267225793e-02
9.792234721510851614e+00,1.136861740315681883e-03,-2.806223655625451202e-02
9.782294546113744715e+00,-2.436272732255635211e-03,-3.439533314510091755e-02
9.794367047783264724e+00,7.594199226306299483e-03,-2.764434359131959576e-02
9.791562140682714244e+00,5.330918202929735110e-03,-2.443500704553477551e-02
9.798770588333249876e+00,8.657320677047650181e-03,-3.513284615922224186e-02
9.797870252193245477e+00,3.954369662304987876e-03,-2.288503069488567743e-02
9.797345401070405302e+00,-3.808614616780176074e-03,-2.497261786332978864e-02
9.789925267535807052e+00,4.941856929510680778e-03,-3.568267351106953894e-02
9.790958958988507987e+00,-6.318983167968145707e-05,-2.989761458233632790e-02
9.797996848843535389e+00,-3.945472112008242306e-03,-1.826649802139755641e-02
9.795775276430360279e+00,-1.024260651021499484e-02,-2.219577493556786421e-02
9.788554094153813168e+00,-7.359658790159969398e-03,-2.524834114037232888e-02
9.788655493112234041e+00,4.598663750365281425e-03,-2.416825919638104087e-02
9.797040364901324239e+00,1.917719403342625379e-03,-1.217366598054591895e-02
9.793980424758908399e+00,2.605100492925864573e-03,-2.220590532539614206e-02
9.799620402018007326e+00,-8.650333475566332475e-03,-2.470662905544757093e-02
9.798649636731209256e+00,2.698587864976795280e-04,-3.035335935228992976e-02
9.798376299258693578e+00,9.473504186808996003e-03,-2.449502359156919759e-02
9.800584625601700850e+00,-4.984064343206856020e-03,-2.481734287086654125e-02
9.804026984465654238e+00,7.113928523087083462e-04,-2.588676436896915345e-02
9.794189327453798555e+00,-7.373381191174234461e-03,-2.445439547351459589e-02
9.794894990509060761e+00,-4.714000242627673469e-03,-2.429785971923015958e-02
9.787526560776441897e+00,4.860714331370637881e-04,-2.107778816252758175e-02
9.800180603683941172e+00,-6.506288888659533809e-03,-2.615966490371957748e-02
9.795292284683446482e+00,6.819236041121818845e-03,-3.014233601353392619e-02
9.782755211500926862e+00,-4.164336125322992688e-03,-2.397009089879130472e-02
9.798124307643114150e+00,8.648817342629042809e-03,-1.857035099937008257e-02
9.793624134462579178e+00,-3.089680877914053984e-03,-1.940790008685282578e-02
9.790494576553479433e+00,8.074923106968545693e-04,-3.235589649274585311e-02
9.794705890034176576e+00,7.788539292493745075e-03,-3.027394296072790161e-02
9.804151998681119196e+00,2.451338796356506301e-03,-3.261927051496430613e-02
9.795743801178426580e+00,5.597367272963909082e-03,-2.565659239898963884e-02
9.790663760589698228e+00,1.395337511440345769e-03,-3.104384498425585837e-02
9.795095710332239136e+00,-3.149260333340609536e-03,-3.042705402824544270e-02
9.798506086225813760e+00,5.582855768381177978e-04,-2.512144829829458109e-02
9.792010708684511400e+00,1.213859299629392553e-03,-2.181062170898657657e-02
9.802433290073421901e+00,3.220703527999332948e-04,-2.202689493096203141e-02
9.799951207068776426e+00,-1.502446435857013405e-04,-2.257076815922381269e-02
9.790906734875933992e+00,-1.092531936057664207e-03,-2.037308329952790958e-02
9.789924028416340462e+00,-4.963259223661031349e-04,-3.192808406751834749e-02
9.800722635684861572e+00,4.059648380166734800e-03,-2.198130927104884752e-02
9.802176148216906526e+00,1.752340264998075801e-03,-1.680052234890019522e-02
9.796285362832897192e+00,2.975994408834586012e-03,-1.985399773597927575e-02
9.799166603826126476e+00,2.817647694615134021e-03,-2.953382554867856058e-02
9.787876945916046623e+00,1.015134635769303307e-03,-2.370793030746291830e-02
9.790952054625083889e+00,2.362252441338300556e-03,-1.348714214043749207e-02
9.794947030916647535e+00,1.623818346201635681e-03,-2.699097784826560292e-02
9.790947029390389744e+00,-2.255505946949145496e-03,-1.994523131767002994e-02
9.800625562113486566e+00,1.559330235899964107e-04,-2.315091139196582409e-02
9.790473199426324769e+00,-3.177404985410629389e-03,-1.868569037542769373e-02
9.792754378835510920e+00,-2.172706595227952807e-03,-1.916435929714711481e-02
9.791903786122308162e+00,5.380087872795737136e-03,-2.419240256466319641e-02
9.798663724300356037e+00,-6.837681860160140998e-03,-2.476167595009750796e-02
9.799935132254706360e+00,2.667559794896568609e-03,-1.778964761375204789e-02
9.796339118276907953e+00,-2.468298051663319302e-03,-1.261719952335294687e-02
9.787936021020454902e+00,-4.068754563347968915e-04,-1.238138580523651111e-02
9.801758357294350077e+00,5.078780733715111424e-04,-1.729960086310702513e-02
9.807679912194497973e+00,-3.149427760465655507e-03,-1.730121354056879390e-02
9.799077933038486066e+00,-1.768120922047048934e-03,-2.271560667179436596e-02
9.799387169325958880e+00,6.770913047967206527e-03,-1.187449830742324033e-02
9.796510582618791929e+00,-3.523674162799678763e-04,-1.499081221404262310e-02
9.794417443753781427e+00,2.803847430278566186e-03,-2.367205417165125364e-02
9.788899175055687962e+00,4.768436667749318325e-04,-1.738462361044120982e-02
9.790531207995130103e+00,3.808951107779340230e-03,-1.513370473666374172e-02
9.790055267154919250e+00,1.044241455992260450e-03,-1.364872118749311733e-02
9.799922264938150107e+00,-1.267403815424211506e-03,-1.469667986636181978e-02
9.790272087848281402e+00,4.092769990460848328e-03,-2.763433786748996368e-02
9.796225639477547986e+00,1.174751708659251426e-03,-1.629076892287596723e-02
9.789475196354548103e+00,6.930969489975439060e-03,-1.206495148086418612e-02
9.806894309470079563e+00,2.627545210567927905e-04,-1.871375822216115800e-02
9.790583972433299920e+00,-3.420609910667304389e-03,-1.751882758397278750e-02
9.791409743449296599e+00,4.011330860473848875e-03,-1.410571234666726029e-02
9.799115837245691907e+00,-1.042548389459820729e-02,-2.084483665695515894e-02
9.794484172147990719e+00,2.886167840570172741e-03,-1.795128287476308038e-02
9.802277328800448331e+00,1.585207003349454764e-03,-2.727010778633566501e-02
9.793845043700297737e+00,-2.748054921558796930e-03,-2.320498187956658923e-02
9.785622487263637481e+00,2.144690339858780319e-04,-2.316266226228350447e-02
9.794133870516427365e+00,-1.183864558290531827e-03,-2.656229520445761716e-02
9.792830954717473446e+00,-1.056311267073391930e-03,-2.115211160032539825e-02
9.799950454900120178e+00,9.508124312780799267e-03,-7.673277184093829639e-03
9.804335190017356538e+00,-2.968030272933051567e-03,-1.463818055621334338e-02
9.793433843210564760e+00,2.749942090150440943e-03,-2.186442361108056204e-02
9.789174306387462110e+00,-7.830035143355991737e-04,-1.513342182263226025e-02
9.791850043154045835e+00,5.821310460320056057e-03,-1.797344768328057105e-02
9.793754658692414239e+00,3.016944286277039103e-03,-1.287291347494878835e-02
9.799066853804607291e+00,-1.016487653288090454e-03,-1.165657676337350859e-02
9.799339632839945580e+00,1.095280571842957920e-02,-2.182858875867445606e-02
9.796070509669737802e+00,6.992503166153379857e-03,-1.461340694628349146e-02
9.789993799690819287e+00,1.148563770304181350e-03,-1.522754174760700997e-02
9.792710206658799876e+00,-1.488653143933014967e-03,-1.523070456415752741e-02
9.788567818478485449e+00,-6.298785203573286154e-03,-1.193614184443524476e-02
9.794314256874338653e+00,4.270817812744670712e-03,-1.977569209591641813e-02
9.795514352220887844e+00,-1.462424012709663762e-03,-1.650824216270741981e-02
9.787792391991890995e+00,-9.840072518070542250e-04,-1.753009136663957745e-02
9.797229902949988301e+00,-1.293304178573580210e-02,-1.695856611341329048e-02
9.798956687386926490e+00,-6.615661408174872485e-03,-2.781966046151248401e-02
9.798352289919636249e+00,-6.945916153438876084e-03,-1.722609346287597501e-02
9.792884874737255885e+00,3.109532605161703656e-04,-1.933410075256348365e-02
9.797419054330774202e+00,3.065561125682142278e-04,-1.449977427325646606e-02
9.801884060383963870e+00,-1.218259035618548874e-04,-4.279397497457128330e-03
9.799091634157694131e+00,3.562355836876537809e-03,-1.069692688886331525e-02
9.792505992214183053e+00,5.609701496156374156e-04,-1.802678875649510806e-02
9.792609878865331297e+00,-1.131254766905333276e-02,-2.082672816903322760e-02
9.794856647885891832e+00,1.447827210763823983e-05,-2.373480358164257314e-02
9.793403596681294232e+00,-6.007132969023002778e-04,-8.423592301321922854e-03
9.800877491089623916e+00,-1.612987463865116428e-03,-1.020891956988458082e-02
9.793434030429017056e+00,6.000671962677290921e-04,-1.149770940021447620e-02
9.792393909879450575e+00,-1.698614951986044232e-03,-1.705396610581271996e-02
9.795945791899848487e+00,1.095209816900001402e-03,-1.237622173085394309e-02
9.804318323813689062e+00,3.155585044723712828e-04,-1.769319138990112575e-02
9.795220381107466068e+00,1.000575687897156847e-02,-8.916314349697921499e-03
9.793334889267775623e+00,5.045221027280720992e-03,-1.054995874680847087e-02
9.799399437043518901e+00,-3.100480265618434008e-03,-7.841380381597779642e-03
9.793200978602094153e+00,-5.633124751376019550e-04,-2.970288182601564519e-02
9.786756046390262753e+00,3.313197307943236379e-03,-1.422611288578650920e-02
9.800080708839088217e+00,-3.633061430722175737e-03,-1.149824650870249348e-02
9.806798378145881401e+00,-2.258718133228497949e-03,-9.329973004999304875e-03
9.799384315728927319e+00,1.895495452332345270e-03,-1.125010910328532593e-02
9.792661264395123411e+00,3.821553021272264001e-03,-2.030006203443755763e-02
9.798863246485467471e+00,2.729192575075770066e-03,-1.716055567445324420e-02
9.798307000630380514e+00,-6.146893559008653231e-03,-1.002992247083735883e-02
9.790214955036731226e+00,4.253856306802218266e-04,-4.619409047738309501e-03
9.798225448486059364e+00,6.345498653087431988e-03,-5.245611272744143960e-03
9.798236336655993028e+00,-3.637027771657671063e-03,-7.888247008867123322e-03
9.804440353654124252e+00,-1.275426987412049988e-04,7.036728335513917770e-04
9.792351759376900944e+00,-4.705426921331866234e-03,-1.132660030508545780e-02
9.794160640913883498e+00,4.877451957246077205e-03,-1.265761260816546455e-02
9.795264220107315012e+00,-2.437611642215758989e-03,-7.094008038646499800e-03
9.806752639856952669e+00,1.114927329011993623e-02,-1.302666444828774750e-02
9.795383297285363611e+00,7.057486849288258611e-04,-1.114683419687655282e-02
9.797684279029208909e+00,9.635023154187315197e-03,-8.327656529370461649e-03
9.797255818152157403e+00,-4.666888836154219761e-03,-1.075663357492489050e-02
9.797688198457411346e+00,6.447140683377636239e-04,-1.374389940899484880e-02
9.796922951943017210e+00,-1.088447455725639196e-02,-1.027068555935893232e-02
9.801216066337246957e+00,-7.014478315299846334e-03,-7.511476985003271226e-03
9.798846318369522024e+00,-2.205462956752016201e-03,-9.295194772590378504e-03
9.797781177860821700e+00,8.323645176475139365e-03,-1.111574936551697548e-02
9.797248553844802643e+00,8.318582963145455464e-03,-1.901489470183756816e-02
9.790052807033823967e+00,2.372992053446409282e-04,-1.869415186479386759e-02
9.794768571381506916e+00,8.013914986051005190e-03,-1.897133658502159551e-02
9.796788028644279223e+00,7.438561238943597114e-04,-1.141555814269220454e-02
9.797589916912832209e+00,7.578855836580985703e-03,-8.674923519183343201e-03
9.799363543764773254e+00,3.838550833423424059e-03,-1.666152515871385451e-02
9.788083028434789057e+00,-3.902656714998053826e-03,-1.851827941536964006e-02
9.796596362159496252e+00,-4.914962297506984476e-03,-3.801836947912794543e-03
9.804627667233640764e+00,-1.484440561570433015e-03,-6.993346269692452509e-03
9.789522488229028596e+00,-1.167335846362124729e-03,-1.021416080532589095e-02
9.797664994841394304e+00,9.463019695350873700e-03,-1.463530709418204255e-02
9.792117697109389951e+00,1.395672121975622022e-04,-1.414765815956786806e-02
9.792202226097595386e+00,-3.452109983903857557e-04,-8.461061936253644680e-03
9.796851376594712946e+00,-2.482772093901798073e-03,-1.348926904445110417e-02
9.790149149042091992e+00,4.221438459600804563e-03,-1.487996346740037140e-02
9.792250356960440882e+00,-8.952444996954912661e-04,-1.645331415334451083e-02
9.806070074276648896e+00,-2.121488587315618814e-03,-2.148682567751021566e-02
9.796082476493698010e+00,1.145873157936646560e-03,-6.671305334232369849e-03
9.792027461783826325e+00,2.745049223958486578e-03,-1.102143836481963429e-02
9.793988021371927033e+00,-2.104595706298875192e-03,-1.294542940517512571e-02
9.798925295867439544e+00,-5.870265002564762583e-04,-1.813040127098052706e-02
9.801740011278916143e+00,3.355642714809158739e-04,-7.278926966671069379e-03
9.791556807216737823e+00,-2.993629333866126840e-03,-1.310398810207964032e-02
9.797789069110043769e+00,3.166165885131626279e-03,-9.279215306314345796e-03
9.796124169294033734e+00,-2.815939924015651262e-03,-1.830581192587948589e-02
9.800213594205283485e+00,6.422237675610251899e-04,-1.666835851324648121e-02
9.792538794374651800e+00,-9.196526398848612130e-04,-1.159443318837525411e-02
9.790679027412796387e+00,-4.914231033744255461e-03,-1.137901521522578785e-02
9.793908772547606389e+00,5.612493787121581972e-03,-1.256151211871474500e-02
9.790177220026494709e+00,-1.088090731499108572e-03,-7.535637779357846899e-03
9.793775966102931108e+00,-4.407706617556721856e-03,-8.557529883664467471e-03
9.787263879917563969e+00,-7.264974154603554566e-04,-1.433498368329787914e-02
9.793947207261512133e+00,-3.771417214509630543e-03,-1.517665216603083893e-02
9.797657431448724807e+00,-2.001080395189697506e-03,-1.195348744765630487e-02
9.791761001252920593e+00,8.238333210694366929e-03,-9.148574577217271839e-03
9.797285286987245101e+00,5.145013532908483331e-03,-9.710433254368825567e-03
9.786061813742483295e+00,1.064084198188594912e-02,-1.207171309591321268e-02
9.800019233243812522e+00,-1.709664359289214328e-03,-1.321495245561630540e-02
9.803163772164470657e+00,2.196761019433576042e-03,-5.216467679700565602e-03
9.796870158355281077e+00,1.434616699602694456e-03,-1.257593936466868886e-03
9.795744366352511889e+00,-4.646414728196461216e-03,-3.208854398302265869e-03
9.790938521768250524e+00,-8.784118884960428336e-03,-8.717271022127380184e-03
9.801625910432660405e+00,7.440846694042451423e-04,-1.142463238072909289e-02
9.802042357231760761e+00,1.215432951809705502e-02,-6.975111460094575271e-03
9.794909568637860886e+00,2.450339833508198822e-03,-4.621192648714857534e-03
9.791307670115839912e+00,5.197091499840836293e-03,-7.014608075170902790e-03
9.799444848629917715e+00,9.452745121856212865e-03,-5.477706219334263146e-03
9.796107284314791386e+00,2.658142852208662203e-03,-1.300044363127629728e-02
9.789765051788400285e+00,5.138103160972977770e-03,-1.234130896352572497e-02
9.792301850498239091e+00,1.103657651016491442e-03,-5.309766948642649295e-03
9.784553498580898179e+00,-9.891643071435540086e-03,-6.355013047610296416e-03
9.793642987733745642e+00,9.194061833558402758e-03,-1.172548788525871327e-02
9.792837571820163234e+00,5.598419923285234169e-03,-8.858675476719441583e-03
9.793824571396454459e+00,-8.374650643933516728e-03,-9.240960912535779032e-03
9.802598109333272802e+00,3.877543076121858605e-03,-7.064463865349170785e-03
9.799450492744995245e+00,-3.184832742952020505e-03,5.347110312191583753e-03
9.799056731404789389e+00,8.231666546369883477e-04,-4.648406522197605362e-03
9.792500367605867950e+00,5.685250938412033175e-03,-3.671150671603604955e-03
9.793216469427045823e+00,-5.065531963550628895e-03,-1.064586672470243731e-02
9.796838873400050218e+00,2.846629607611846947e-03,-9.166585370434262789e-03
9.800827656857496351e+00,4.144452598802850912e-03,-5.261500062200236832e-03
9.793068085913233745e+00,3.919435078467754406e-04,-1.025316434849828789e-02
9.789370473985677279e+00,3.792033457842363081e-04,-1.634653138350788959e-02
9.796443427631501777e+00,-3.202479113822337235e-03,-1.137244506259580887e-02
9.795037902276705566e+00,-3.090155983741638742e-03,8.300478807797499053e-04
9.791202416833767685e+00,7.088190896191667173e-03,-4.958987728355203177e-03
9.803091257134395775e+00,2.365309741180599652e-04,-3.310347955957910863e-03
9.805486514841421197e+00,1.184619363482828508e-02,-6.466371586476190800e-03
9.791871375375038156e+00,3.632237641913508858e-03,-1.242916978540590904e-02
9.798195386585215161e+00,-6.326245047642607179e-03,-1.363799298738867585e-02
9.797462589848716874e+00,3.368370177427456712e-03,1.963243864573673003e-03
9.792816826183393886e+00,-6.221963424127345717e-03,-7.060465370788447832e-03
9.792735382664831789e+00,-2.733301891933896145e-03,-2.282322267836553106e-03
9.800197246371862292e+00,4.061203162457183331e-03,-2.531908772774372346e-02
9.788479430500879985e+00,2.108605909422998654e-04,-1.597570299021987272e-02
9.792000240094191454e+00,-7.167981029289002565e-04,-1.085156011335922967e-02
9.793744661861587986e+00,-1.158262115631181893e-03,-1.551359220263132284e-02
9.795555310820684980e+00,-6.928900364271620670e-03,-6.766993022970971272e-03
9.799651095982481408e+00,8.244914695493705268e-05,-9.610241811097928674e-03
9.796458546494841713e+00,4.909854964344233762e-03,-9.393858203647744223e-03
9.799147383717404125e+00,-1.527936409084147337e-03,-5.467251377666102613e-03
9.787742226774394538e+00,-2.641765783335556055e-03,-1.686157155298352583e-02
9.796178924098615681e+00,7.752072842231115188e-03,-2.954798773078328583e-03
9.789960695953357828e+00,3.385622398449037243e-03,-6.652332304125357226e-03
9.794027602832223067e+00,2.581972559058497065e-03,-2.530681927450557228e-03
9.795737323438615363e+00,4.018969927574111978e-03,-1.238512247152043395e-02
9.794495732288632794e+00,3.252407830081564810e-03,-5.297500873198397395e-03
9.798165755511258013e+00,2.007404564527344101e-03,-6.511417412489031893e-03
9.798378679193101348e+00,2.835428127607774688e-03,-3.842904096158090456e-03
9.796444951443632476e+00,-5.457408188062961435e-03,-6.883757481202523038e-03
9.796426316223206143e+00,-3.052128248710007756e-03,-6.350436296234005309e-03
9.794268604518649113e+00,-4.707676122815888584e-03,-2.655298991438054430e-03
9.793982746926246818e+00,-7.027274292338125082e-03,-4.812768334341929397e-03
9.794575148016905430e+00,1.147866155107238155e-02,-3.856997137195086484e-03
9.793962837282272460e+00,-4.660753833702833450e-03,8.731032963949494560e-04
9.785625193893325857e+00,-1.555727871290195179e-03,-9.550776792686061292e-03
9.795656498953503544e+00,-6.732589261333874441e-03,-1.068177606870038612e-02
9.802974123227995662e+00,-1.220871357654556904e-03,-1.201030391126125738e-02
9.791663962978395475e+00,-5.163084477139611751e-03,-4.342501590497985925e-03
9.802554738803198831e+00,-2.547125610672881530e-03,-1.181826664403029178e-02
9.796438352056505039e+00,-1.962736644500397143e-03,-4.857813732706854279e-04
9.792571123284451673e+00,-2.677888653768127538e-03,-2.925774335006883255e-03
9.796062148128571678e+00,2.811147250259257713e-03,-6.827012575493222012e-03
9.794681209876120676e+00,2.928624070995446832e-05,-7.177656284314454065e-03
9.794767564044294161e+00,6.843030456403794912e-03,-8.301838752257380272e-03
9.788619114050273851e+00,-1.935693601618330506e-03,-1.858394887277196351e-03
9.793708147394132979e+00,-6.010143158369903255e-04,-1.286460651514872641e-02
9.793518807932459325e+00,2.606817040514027017e-03,-8.858661847109979698e-03
9.796930953581032497e+00,2.038351849124349705e-03,-5.591642349631467841e-03
9.782078350097881625e+00,7.559549672841822015e-04,1.467997212224400778e-03
9.798293342289809971e+00,2.730271380766446845e-03,-8.981008861855523107e-03
9.798669247389291570e+00,-3.653329596746026156e-03,-1.533552366695941499e-02
9.789452307541530729e+00,5.651450157544354001e-03,-1.179136376077296287e-02
9.804210506403906678e+00,2.204845728219645157e-03,2.770805805835175814e-03
9.790704549859297501e+00,1.137389573475081159e-03,-3.559630494646550975e-03
9.795920784382765589e+00,1.487721888814400126e-03,-6.790465796775065066e-03
9.792276889006279461e+00,-6.789254203184688684e-04,-1.114061619604991664e-02
9.795626129470857535e+00,3.984140757494524301e-03,-8.507233992980780396e-03
9.802114983947674887e+00,-2.221172148816375229e-04,-1.297659066327675782e-02
9.790025575260592916e+00,-4.663352787255396238e-05,-8.657707796497632335e-03
9.792940590058961448e+00,-2.373420701646745696e-03,-2.773258741325335987e-03
9.792558632532443852e+00,2.355786271842927847e-03,-9.870161060467921160e-03
9.788153844802463865e+00,-8.175613814353882916e-03,-2.932182795157932311e-03
9.793415381481278104e+00,-1.345284179662332730e-03,-1.470681393286237502e-03
9.798415075436640365e+00,3.420318226555862495e-03,5.222639477143185480e-03
9.794003531127540185e+00,-4.385137852182583937e-03,-5.026875193851323108e-03
9.795748929982227793e+00,8.013664262281599421e-04,-2.690695617534192511e-03
9.798095272841381487e+00,3.610668611123953129e-03,-5.084457450698848593e-04
9.802635491953008540e+00,3.073682728270042686e-03,-3.400965939828375865e-03
9.797790306934077265e+00,1.907518581059446192e-03,-6.414307608481720907e-03
9.797208196102921818e+00,-4.609924120772972839e-03,7.541437460310496110e-03
9.785803373622856682e+00,2.921215767600606784e-03,-4.418344885962201436e-03
9.792824402786447280e+00,-3.927009778230327805e-04,-5.155986226150390504e-03
9.795162357678874443e+00,1.421897035274974656e-04,-1.177608838866138485e-02
9.792952983728715921e+00,7.340926996397208019e-03,-2.563628594166416676e-03
9.793549589942895039e+00,-4.544885767177153212e-04,-9.934645749278599863e-05
9.801224255137899632e+00,5.834886724057694943e-03,-3.836303572175942152e-03
9.792210472172179436e+00,4.484288496979740683e-03,7.190448069116619004e-04
9.800311047206530901e+00,3.793351057681324488e-03,-7.612973612316962201e-03
9.800706615185747594e+00,1.113831327535560328e-03,-1.497759130046667428e-02
9.802431000491475643e+00,-1.343379942955228237e-03,-7.027881568468322473e-03
9.798673176035618937e+00,-1.969917431951592832e-03,-7.686882321158283911e-03
9.799238317375138507e+00,-3.717476911281898406e-03,-5.423115083780383726e-03
9.795513644452579882e+00,3.758791088854798127e-03,-2.052115629673040894e-03
9.800876157918597897e+00,2.591174983497716768e-03,-5.144169603051093956e-03
9.802568124679183370e+00,-9.508133199447666491e-04,-1.395189400616685463e-03
9.802828074235870659e+00,-3.331842157288803299e-03,-1.702430147750492312e-02
9.796779457280949899e+00,5.000089745654681759e-04,-1.361207617433875944e-02
9.794761233201283446e+00,1.579681333552857524e-03,-3.868146784966889490e-03
9.787761559587751847e+00,9.930896963557661866e-04,-1.122471188342341435e-02
9.791660957666211473e+00,2.145200115008346915e-03,-3.406758933845682388e-03
9.797756354305862558e+00,-4.064298134844672797e-03,-1.317771761604871403e-02
9.792901598485006076e+00,-1.741167865218882279e-03,-1.331631573201419103e-02
9.798159769920991025e+00,1.034369378043951265e-02,-8.795675626193950186e-04
9.793992077516211481e+00,-2.327640710030201912e-03,-3.857454889314626892e-03
9.799991416662352961e+00,-6.657870139732870000e-03,-9.495692417256477655e-03
