gyro_x (deg/s),gyro_y (deg/s),gyro_z (deg/s)
5.040628482025573120e-01,7.647265050450260393e-01,5.542124028620514231e-01
5.183236729077672633e-01,1.054909420189002578e+00,4.883104307307063463e-01
5.175045116811277657e-01,1.260572045155679222e+00,5.039842789520403432e-01
5.138689253260357859e-01,1.544467570912999355e+00,5.127244366770395967e-01
4.917936427648451625e-01,1.831525536932858023e+00,5.559738464639445432e-01
5.296190801335715070e-01,2.041363825943919963e+00,5.145219924448856119e-01
4.966941807703945666e-01,2.308095802251642681e+00,4.331354518466924985e-01
4.653538390397136681e-01,2.670332936793096135e+00,5.059853703365709832e-01
5.255960889604723851e-01,2.814372398921084706e+00,4.901210888998613902e-01
5.496197557340294360e-01,3.047105518516521006e+00,5.415746004683854586e-01
5.338051031016263215e-01,3.388581341932451085e+00,4.792031439258352954e-01
5.920155056388114456e-01,3.601830300163406662e+00,5.754352901621809790e-01
5.592262552444335899e-01,3.838918921517345151e+00,5.482815923533582714e-01
5.287075523370854402e-01,4.076602780093363521e+00,5.768204762324050661e-01
5.136988232904672325e-01,4.397206963028385651e+00,5.938026081023846103e-01
4.947308203928136305e-01,4.576087793553015537e+00,6.219325074863536473e-01
4.787458357659131192e-01,4.908598918139442269e+00,5.348743730067883062e-01
5.280533620554416219e-01,5.107206137858828932e+00,5.339977198749792375e-01
5.483330152162967375e-01,5.332915738605168876e+00,5.561548283922082003e-01
5.519390642489236942e-01,5.685135111171984335e+00,4.876500334398931602e-01
5.653549167925251417e-01,5.854033031844551260e+00,5.862926739334703985e-01
6.056348970093171635e-01,6.121707355208673818e+00,5.378919300339927156e-01
6.463416293862124240e-01,6.401981367397925560e+00,5.491986832004168706e-01
5.224752936346175325e-01,6.736583745307833659e+00,5.748081946989309632e-01
4.961750966588996947e-01,6.998450439492835073e+00,5.341910614790383871e-01
4.988719572049835072e-01,7.234643709923844312e+00,5.832665997931641977e-01
5.758536851340837481e-01,7.354826001321441709e+00,5.885715703567943047e-01
5.732311615369085622e-01,7.711271120307945814e+00,5.488138884308589871e-01
5.730798846948300662e-01,7.930088450560075941e+00,6.400925660254264127e-01
4.938771711132903808e-01,8.227824893691190411e+00,5.693831094070006538e-01
5.871596184456345791e-01,8.492989165341544577e+00,4.902105013489147511e-01
5.782315842511267512e-01,8.774234703607781682e+00,5.466245787001117185e-01
6.210779045762330197e-01,8.993131702154055773e+00,6.286156191544827188e-01
6.013165875124305559e-01,9.218297737109589107e+00,5.958795672418045752e-01
6.444774428922244169e-01,9.488267246465998284e+00,6.118602455834729614e-01
5.654802832422823888e-01,9.786822637828690219e+00,5.708901340631694632e-01
5.760767304862783877e-01,1.007034764519970516e+01,6.904882294626062400e-01
5.563725954957582376e-01,1.029328356595810767e+01,6.477660080241194329e-01
7.019459747955053563e-01,1.063247585504978154e+01,5.303266953748486667e-01
6.632382468351334381e-01,1.085861601925292241e+01,5.758578035559588360e-01
5.524451864782742305e-01,1.102743099947264582e+01,6.352655574435265295e-01
6.194045750608755396e-01,1.136303353770813551e+01,6.170462611432949718e-01
5.991547295525968542e-01,1.157890134479703548e+01,5.962068808099750816e-01
5.936233638638273025e-01,1.186040724893254783e+01,5.923367122920853989e-01
7.064801854288729199e-01,1.207197322607525258e+01,5.785920364539560712e-01
6.586933879156597893e-01,1.233914618276594588e+01,6.322818890760932842e-01
6.547332087970475500e-01,1.265923944097342435e+01,6.317831770519201084e-01
6.537431945647722564e-01,1.284809327992759442e+01,5.985662327814111894e-01
6.549221427628149073e-01,1.312684679897988005e+01,6.310560951584327505e-01
6.440710969112229956e-01,1.338411383479133399e+01,6.466532026500247943e-01
6.871482055383324461e-01,1.364286450359718827e+01,5.777928664734431896e-01
6.904058885314330318e-01,1.384422801684045901e+01,6.086997824676353419e-01
6.441924596908872314e-01,1.416597060307823419e+01,6.707997496685027539e-01
6.090273568377229108e-01,1.434308187924098910e+01,6.583485753822293507e-01
6.998487009400092829e-01,1.474624667751309559e+01,7.029822441283934964e-01
6.232793752615372052e-01,1.499020278027095721e+01,6.599947214746347823e-01
7.251229354376385050e-01,1.522497649278871634e+01,6.912335023094587916e-01
6.675699045531007236e-01,1.541536706497197606e+01,6.700437422916697416e-01
5.504369640462593027e-01,1.567801055135815957e+01,6.564143394562785838e-01
6.874260307477217946e-01,1.597563816271349069e+01,6.663169917207157900e-01
7.300809796507600202e-01,1.627060053277125817e+01,6.484787613220407421e-01
6.970973870977897890e-01,1.647780246267160820e+01,7.045083609925263390e-01
7.194879292574719587e-01,1.677389789467790848e+01,6.925054656573871315e-01
7.276825281319326821e-01,1.698133536310004033e+01,6.629878005161706778e-01
6.505802141295204954e-01,1.739854411142524881e+01,7.169892076512374146e-01
6.216058822840144771e-01,1.754846378691910758e+01,6.649413193400955935e-01
6.947907404183790714e-01,1.782828560598905199e+01,7.011012439747748015e-01
6.687073263167799819e-01,1.809071193368227526e+01,6.987895347280543845e-01
6.508588400901639259e-01,1.831824010291445148e+01,6.746058580200798849e-01
6.980840389789028100e-01,1.855042666719229416e+01,6.562972825287027856e-01
6.823547448168314489e-01,1.882155100340279574e+01,6.711070650383405001e-01
7.352460891836662960e-01,1.905973192441229003e+01,6.557015988492567171e-01
7.037668676397463852e-01,1.934668813699276413e+01,7.379032077635052644e-01
7.770311854084902548e-01,1.953534737907465413e+01,6.737522780211724349e-01
7.598449423578751416e-01,1.986189730228371886e+01,7.296077386453680980e-01
7.252062317728469321e-01,2.018385733018386929e+01,8.813412575690835471e-01
6.936488495103402263e-01,2.039883954676264821e+01,7.617827999031755448e-01
7.925713823179151296e-01,2.056229741260582955e+01,6.742399070465173727e-01
7.997398919297227238e-01,2.089913501147498565e+01,7.502487841051483919e-01
7.889780714939457207e-01,2.116448986633665896e+01,6.756251892640178225e-01
7.421828451096049717e-01,2.143489781956860796e+01,7.451692335171041792e-01
7.058032522082889892e-01,2.173071649736550626e+01,6.929605173101286431e-01
7.550533542870520032e-01,2.193756689319958753e+01,6.135398405340306560e-01
7.021792181565470470e-01,2.213444321432594109e+01,7.134393474339147945e-01
6.797564845552936941e-01,2.239172257685218170e+01,7.438628704685547044e-01
7.015590325832758989e-01,2.269861507986610150e+01,8.011339658124301266e-01
7.616759790746918668e-01,2.288929939536130220e+01,7.301413474820914740e-01
7.459203315655626998e-01,2.313923129496653530e+01,7.617610870165021364e-01
7.335760362734569107e-01,2.346899558179346101e+01,7.304889938957647155e-01
7.787569813449911615e-01,2.368315396285620622e+01,7.356257289133942834e-01
6.163596625152020225e-01,2.396081433621041512e+01,7.721664339072277228e-01
8.316538266914124122e-01,2.420717858239054721e+01,7.160818084231751479e-01
6.882075864430016177e-01,2.441108800706862425e+01,7.088033523014718451e-01
8.249840504163267196e-01,2.473374067427142720e+01,8.321052027410769103e-01
6.859972951237821581e-01,2.498952149700210867e+01,7.866814727662346796e-01
7.734201767660158211e-01,2.527185541201024677e+01,7.024674081836423944e-01
7.666343665263763985e-01,2.545099325263111822e+01,8.289062411641440198e-01
8.068635220493729499e-01,2.579865112985206110e+01,7.510144296689500454e-01
6.764937683119632839e-01,2.611555895820038486e+01,8.045957343842543574e-01
7.802782154441335605e-01,2.626129496920933093e+01,7.722953897508776366e-01
7.843333611502145697e-01,2.653655171394331092e+01,7.275435044914164706e-01
8.307180592559900711e-01,2.686677269626584774e+01,8.441432433678968117e-01
8.499779230175584788e-01,2.704428637658344670e+01,7.906889163700635548e-01
8.184450176944229050e-01,2.732413341603296786e+01,7.738916909641023745e-01
8.154672980550489170e-01,2.758851194458513234e+01,8.128543143880869737e-01
7.909947275547947187e-01,2.785979218349931941e+01,7.678120075534908828e-01
8.605752661096858214e-01,2.813423727706472377e+01,8.176335600176843910e-01
8.408800653229386857e-01,2.835137710141190581e+01,8.443336457819351493e-01
8.692231380976747079e-01,2.861239214630317917e+01,8.525040972808340944e-01
8.391636207332175967e-01,2.878952970653477550e+01,8.933819962018740846e-01
7.974605546271426038e-01,2.913724776241186731e+01,7.383907421634912094e-01
7.685872626774286065e-01,2.934669209122220579e+01,8.215702939613857003e-01
7.261859657469497131e-01,2.975334283324288975e+01,8.010317611975324992e-01
8.635461020837018609e-01,2.988179677832764014e+01,8.033801882966459251e-01
8.377024661385308324e-01,3.014743029407045682e+01,8.495372363108411040e-01
8.328818106236997032e-01,3.045618233401477681e+01,7.991427153556950325e-01
7.818497751989278433e-01,3.063649515605872153e+01,9.094216399299671627e-01
8.320348360442059166e-01,3.068048035457116995e+01,8.149529807849354990e-01
8.219267396594944763e-01,3.085590616661596641e+01,8.522707752755760424e-01
7.869927778550716013e-01,3.089198831729322237e+01,8.295494385323941566e-01
7.406794628015609394e-01,3.107611153411545146e+01,8.853036177255523276e-01
8.647737345799230146e-01,3.107358544800418798e+01,8.563153428525418498e-01
8.579367207073219648e-01,3.105891017120163511e+01,8.468199272055789706e-01
8.027958351111154078e-01,3.106616803123855775e+01,9.026412507497768578e-01
8.699540707149990837e-01,3.109622879879610124e+01,7.894827613020851675e-01
9.055787274634015116e-01,3.109269017839747207e+01,8.421933958138022591e-01
8.266959507621081116e-01,3.109080713285405650e+01,8.445018748391510677e-01
7.745882756124791158e-01,3.105930090240958208e+01,8.413796166585094660e-01
9.004514103308051132e-01,3.098857029449197142e+01,8.357388297970251845e-01
8.542171581252177015e-01,3.098008625995989362e+01,8.201426203030117712e-01
8.678811728804332049e-01,3.084511948744774301e+01,8.116148485766563336e-01
8.965061940886686065e-01,3.072417132716281785e+01,8.911369190951629049e-01
8.252686451335019546e-01,3.066593796649275561e+01,8.502456304237118179e-01
7.969854691891283816e-01,3.053191078649658508e+01,8.252417720893886477e-01
8.572131475857284189e-01,3.043471644799202735e+01,8.366778859675473301e-01
8.297810345188615377e-01,3.025034509538237870e+01,8.508128344696086476e-01
8.831056135238124494e-01,3.019848410346842726e+01,8.054150425613821884e-01
8.302998526095293208e-01,3.013004659208753111e+01,8.341573266558003352e-01
8.562115865300198303e-01,2.999768400347969788e+01,8.604900715105766595e-01
8.273192999372370737e-01,2.983825278668817660e+01,8.277590822721596631e-01
7.679885205509583423e-01,2.969396200780295203e+01,7.323001140778595541e-01
8.699869500068672101e-01,2.958735269765299947e+01,8.140372950605995195e-01
8.516752432846733667e-01,2.952648860947675757e+01,7.849022099032981759e-01
7.439866341317843412e-01,2.933788533565903833e+01,8.323975864503276867e-01
8.099354452020200990e-01,2.930461778214705504e+01,7.643211654147725742e-01
8.262782837877590270e-01,2.911717379874736622e+01,7.774731725336756494e-01
8.170059108086527022e-01,2.896713405681309794e+01,8.126272605622546497e-01
8.024458227478559191e-01,2.890217258159781721e+01,7.748688389537083943e-01
7.878551906047883691e-01,2.869653105181546593e+01,8.727884454324597030e-01
8.161056595322411233e-01,2.851683549025042197e+01,8.828820498350125057e-01
8.599540417944456783e-01,2.841968735073557895e+01,8.314044970796323764e-01
7.535197835307456682e-01,2.833835225708243755e+01,7.563861525414327103e-01
8.813599239927327744e-01,2.809236314188535744e+01,8.861453232990940121e-01
8.192399682751190237e-01,2.800267936223667675e+01,8.203536178201840112e-01
8.039857583440134237e-01,2.787566320563760414e+01,8.209721388624250382e-01
7.815215298729015769e-01,2.773433382867006358e+01,7.986605041330977484e-01
8.246240744699553371e-01,2.756002285646429328e+01,7.265277081012530003e-01
8.472381337525741740e-01,2.745370813386025333e+01,8.075551439181480884e-01
8.313014139862129337e-01,2.727525625026783729e+01,7.776284848404427796e-01
7.698496485112553689e-01,2.718648907608941556e+01,8.314498073018019575e-01
8.238252423738035013e-01,2.700696706173162553e+01,7.971619471069023577e-01
8.789297399285228574e-01,2.691965886199817959e+01,8.132734383422135505e-01
7.997966509651799338e-01,2.686387887942468566e+01,8.098760039980343883e-01
8.094760534444291888e-01,2.665198941643789610e+01,7.760739512614797109e-01
7.752444155378601653e-01,2.654105480702809672e+01,8.231891510107729459e-01
8.112344089164311711e-01,2.630055504089954965e+01,7.717108485260968376e-01
7.753901701273684388e-01,2.624252888764726777e+01,7.667225007790633429e-01
7.573139295260417070e-01,2.610747965803507853e+01,7.426714706141365197e-01
8.057808910382578960e-01,2.596285116120905911e+01,7.047126721186643961e-01
6.985267068181909567e-01,2.589958232297548690e+01,7.766062586578089677e-01
7.327777692408316002e-01,2.577516368592030815e+01,7.845643737427314690e-01
7.559026334206750963e-01,2.552155947816542181e+01,7.177733031686254206e-01
8.530901405133362037e-01,2.545624621366933837e+01,8.296714101576150302e-01
8.239999240701696426e-01,2.537229495473158281e+01,8.103055129201683915e-01
7.676630594582715128e-01,2.527437537391831768e+01,7.637839238243530060e-01
7.536358800908559141e-01,2.508549565942350768e+01,7.304198133321531117e-01
7.343305908169153184e-01,2.501016010736047335e+01,7.584241301305377769e-01
8.101244556456128620e-01,2.480683525137424894e+01,7.231290567836731187e-01
8.066622102884581924e-01,2.465072828002939076e+01,7.873116281541049366e-01
7.923695730762547740e-01,2.459492040243607391e+01,7.448855878721633017e-01
7.147245128672226055e-01,2.435960384940569057e+01,7.507526666617401201e-01
7.787376974075653768e-01,2.433868848895016868e+01,7.604795131622228421e-01
7.685307251466925171e-01,2.417823271178310307e+01,7.404986824775500187e-01
7.734754454404964008e-01,2.401583585769345319e+01,9.240253638511380929e-01
8.029175181236216652e-01,2.400735528395768625e+01,7.548953290193040067e-01
8.138753007250896232e-01,2.385726251693897737e+01,7.508284144519276060e-01
7.451527249473952619e-01,2.376312975898721191e+01,7.557992818704297733e-01
7.284834669729514101e-01,2.352789389893852956e+01,7.505639575665963292e-01
7.482787945139189878e-01,2.336186375102330715e+01,7.416924513565233967e-01
7.305700084668057537e-01,2.333475983076815297e+01,7.418986905496276485e-01
7.674778844769113428e-01,2.323261395466012402e+01,7.741949771373668465e-01
7.486189381966392720e-01,2.305605749529986781e+01,8.343940135106591161e-01
7.280558723725166770e-01,2.292233842596070659e+01,7.933603792393189025e-01
7.477678382779675559e-01,2.292632580824475141e+01,7.724531578768100148e-01
7.592781992370584154e-01,2.273005892118080595e+01,8.153100255161783716e-01
8.327718106260934006e-01,2.266635774098703493e+01,6.438339376339605735e-01
7.779390225220669253e-01,2.249244888281558374e+01,8.102811629978569075e-01
6.349335434230344299e-01,2.236355824858191710e+01,7.426669255965885341e-01
6.809490686735947262e-01,2.228111174546996409e+01,7.603096806265481344e-01
8.230775985776209724e-01,2.225071092365709191e+01,8.242384165303481280e-01
7.420052739249727303e-01,2.204427839954918511e+01,7.316308109879249288e-01
7.807702304653298953e-01,2.197265715278332365e+01,7.285914198645968565e-01
6.527037360268563848e-01,2.179409474822815795e+01,7.231618392226127900e-01
6.763827912826925193e-01,2.172702614704489221e+01,7.764606305682817400e-01
8.064546956391051014e-01,2.168658685792133767e+01,7.019721170588028025e-01
7.527550847869145523e-01,2.150653336154036310e+01,7.156249662183701288e-01
6.029241498045105896e-01,2.133383485812947811e+01,7.461142990254417962e-01
6.928540530552299570e-01,2.127933678396968631e+01,6.931570894546525974e-01
6.901536775907251009e-01,2.116637777641810558e+01,7.052355141214180501e-01
7.462050403313162938e-01,2.098773594377829710e+01,7.760842028848812246e-01
7.271206259278013562e-01,2.094135862420284866e+01,7.440721065233858456e-01
6.896726615040466024e-01,2.085590466806082333e+01,6.579419366038087302e-01
7.981260124143572110e-01,2.076741540179175161e+01,7.208696641262699600e-01
7.465308050632217807e-01,2.064899558029218340e+01,7.049618322876708421e-01
7.742358194406637750e-01,2.062841866586553508e+01,8.530119764547599015e-01
7.012743027273130592e-01,2.037913567169166029e+01,7.570674844382212498e-01
6.801947332308445615e-01,2.026767018166323098e+01,6.873612645860286419e-01
7.697333207869685445e-01,2.026700121555633771e+01,6.666245791150625655e-01
6.862219933064197530e-01,2.010041472649734118e+01,7.770113238415348178e-01
7.348477048208131857e-01,2.003995157265593008e+01,6.857717673994900842e-01
7.589003512666647744e-01,1.994148609416362916e+01,6.969748190723381587e-01
6.899597879828541780e-01,1.978737995540628702e+01,7.422222698344391745e-01
6.984061972276931485e-01,1.970479540992212009e+01,6.221873977488086016e-01
6.897897612131737022e-01,1.959905000066149938e+01,7.435083697116788848e-01
6.627854413724446614e-01,1.953819183806831106e+01,7.184867833203613108e-01
6.781929644857415118e-01,1.936293418452821413e+01,6.888306390826368641e-01
7.245297701580336591e-01,1.928864382819161705e+01,6.167782837602416857e-01
6.533076958291729186e-01,1.922273320255771267e+01,6.896482944970758755e-01
7.303941876686415036e-01,1.910766316167262957e+01,7.120501647601723549e-01
7.962393914729987143e-01,1.892428549568477436e+01,6.953726942140884271e-01
6.995953040488074315e-01,1.883933216016714596e+01,6.893636140427891190e-01
6.055551672710567379e-01,1.878450490561640507e+01,6.644238129523273306e-01
8.088147791396251840e-01,1.873382665049618012e+01,6.529707032873227623e-01
6.794432872301874315e-01,1.864506067241618581e+01,6.627161710503700620e-01
7.081954475617743272e-01,1.856571502965685738e+01,7.046783231291622318e-01
7.018006866820797329e-01,1.837868282747943738e+01,6.716250586701888459e-01
6.783282081496937455e-01,1.838284642862448592e+01,6.813608533153168167e-01
6.588526834877286298e-01,1.820445832331209601e+01,6.175668667366126519e-01
7.070685617388905442e-01,1.814899298294046304e+01,7.406262420116914713e-01
6.975622337120718219e-01,1.799853412963204846e+01,6.942543434567894911e-01
6.719547354045315446e-01,1.792312225041757046e+01,7.301966443327349010e-01
7.317856418862819234e-01,1.791142543019822497e+01,6.957766180207097806e-01
7.458382406601167247e-01,1.777801487018673399e+01,6.656816734168430338e-01
6.581065475478701243e-01,1.772287273483343384e+01,6.513201787911742091e-01
7.823560267579600103e-01,1.749785961530411882e+01,7.474780833526727397e-01
7.194281601571705931e-01,1.753347671670678665e+01,6.703931810417581572e-01
6.566070550239944126e-01,1.739378093303836792e+01,6.633385094232157053e-01
6.798397919773194742e-01,1.733204184687489757e+01,6.411307575078679655e-01
7.450288317308615404e-01,1.725287669354115039e+01,6.550418719871665685e-01
6.726742567152164121e-01,1.718311264630317581e+01,7.385243635180183119e-01
5.683704588850388983e-01,1.702128875830223720e+01,7.105584427553544025e-01
7.169728366443339773e-01,1.703840529477493249e+01,6.467664868400748723e-01
6.122010984888368590e-01,1.685463296705784586e+01,6.579213969206794133e-01
7.254065484279794696e-01,1.679021775163281660e+01,7.098275811165618565e-01
7.083664734625723103e-01,1.669981151364984839e+01,6.922951733234841143e-01
6.142108876593962430e-01,1.665252444267997234e+01,7.172959477742127943e-01
6.691376922545738681e-01,1.657537937569049191e+01,6.114460342510762425e-01
6.550019469866307231e-01,1.644997103394845439e+01,6.825911064169088993e-01
7.040114809519686379e-01,1.634336875913237819e+01,6.924857258320484821e-01
6.648356691841997845e-01,1.634531807037980755e+01,6.515502949597421489e-01
6.359313245735428444e-01,1.623001837235333866e+01,6.838737921059765412e-01
6.305228030513868598e-01,1.616323958762979984e+01,6.526305604499799129e-01
6.588221664997734317e-01,1.607923564376426029e+01,6.988617020010070569e-01
7.111688132424406339e-01,1.600434467903048130e+01,6.696683964300906844e-01
6.524289679422174970e-01,1.585552281212146397e+01,6.558859980391427147e-01
6.698392055527827571e-01,1.576018738703915822e+01,6.121143592266731215e-01
7.174778608513552314e-01,1.564856282591197179e+01,6.472070784977427271e-01
6.610629846947831956e-01,1.564287696912833603e+01,6.795140015003526823e-01
6.218064981477557929e-01,1.554464357455919554e+01,6.403904296639961746e-01
5.686039444796814335e-01,1.552284148274378239e+01,6.267617276537493787e-01
6.577955262822743343e-01,1.544119344318820986e+01,6.298094604922099826e-01
6.659714022112330767e-01,1.528332714736034070e+01,5.886888470973159482e-01
6.660175552260785281e-01,1.527976976663665987e+01,6.666371641531220193e-01
7.324695323985997986e-01,1.514858066592330310e+01,7.015759638017032840e-01
6.342546598510778733e-01,1.506761644916294962e+01,7.094508961443983797e-01
5.844071869277415177e-01,1.505049044896753330e+01,6.410209467163903163e-01
6.700673415825088020e-01,1.491405929080250203e+01,7.381167203050232883e-01
6.515027728344869873e-01,1.484754292392639563e+01,6.835501413360441925e-01
6.863826851050219835e-01,1.482252545661461873e+01,6.679227027708425357e-01
6.708131897318775350e-01,1.469448428420865760e+01,6.749379620620419296e-01
6.625647153402592915e-01,1.460200135355874629e+01,6.455120428295851864e-01
6.322821902186470666e-01,1.447177550108797384e+01,6.900006855646677595e-01
7.050606979201509139e-01,1.451860767044192713e+01,6.067736570128944296e-01
6.295568517070893044e-01,1.437288174223916215e+01,6.121062088185459382e-01
6.143083658316743634e-01,1.431137772247008932e+01,6.404420242060806512e-01
6.628374993605979926e-01,1.422504128026536918e+01,7.226231682400784395e-01
6.950000005622508636e-01,1.422375290168129602e+01,6.479790583786825264e-01
6.087944049881396369e-01,1.409175689001471277e+01,6.237695235994212828e-01
6.261500098237837708e-01,1.408971178305458594e+01,6.659040525867077065e-01
6.391207203337361253e-01,1.395633971495638370e+01,6.715016107439826243e-01
5.679234627549691883e-01,1.392825875426559357e+01,6.065977373010467133e-01
6.565426649709316109e-01,1.387875028978541714e+01,6.106788543192849250e-01
6.067172422781609287e-01,1.383182595402657356e+01,6.447257044696804718e-01
6.658064646911631135e-01,1.371919162129670156e+01,6.203798124660202529e-01
6.376052955574665893e-01,1.367257983334513582e+01,6.107610200177969739e-01
6.962559683432772983e-01,1.353946901120721158e+01,6.904357228317192785e-01
5.674665336508911695e-01,1.350216763701577705e+01,7.096692222180608356e-01
6.641336940233050212e-01,1.343150936898087977e+01,6.363605607039287682e-01
5.624820257373273069e-01,1.337924860282537587e+01,6.577989852321602937e-01
6.377438054982427218e-01,1.340772365066467842e+01,6.913703742323002999e-01
6.336583340564042599e-01,1.328464170864037186e+01,6.465976228063343711e-01
5.771803828566203221e-01,1.308026755589415835e+01,6.262271415348493742e-01
6.689042603508231766e-01,1.313358053918230439e+01,6.847708719152931778e-01
7.220011965954727939e-01,1.297528474130801968e+01,6.386557920163959956e-01
6.209854559132460539e-01,1.295858133197340578e+01,6.930744612204455812e-01
5.998918689715938557e-01,1.290618989998473154e+01,6.042472275604773291e-01
6.554441678674767235e-01,1.289033026921550906e+01,6.156914012746266263e-01
6.775756968028850968e-01,1.274311117892550982e+01,6.122277082329347087e-01
6.351787343763209970e-01,1.274062518150088685e+01,6.590879645889847760e-01
6.567167715300049613e-01,1.261122892612127799e+01,7.110306790817391143e-01
7.086176820874131588e-01,1.271802669455932921e+01,6.338980375177820648e-01
6.268774286267132512e-01,1.248051689358941019e+01,6.343843463160729890e-01
6.710581640780541868e-01,1.249936373931535272e+01,5.962857818473016325e-01
6.996314062908217668e-01,1.238958579412978267e+01,6.946603438853616863e-01
6.600482604695725453e-01,1.233973966755234386e+01,6.001958649474483654e-01
5.845430424833802929e-01,1.227467986795251598e+01,6.979639219161490882e-01
6.643516691600703794e-01,1.220080004580135302e+01,6.372322669171626153e-01
6.921449998491805422e-01,1.217343286257266044e+01,6.410677845871066705e-01
6.561857302799017910e-01,1.205855940636788404e+01,6.371466275399448875e-01
6.645911562211733736e-01,1.207106907932697659e+01,6.278159942674941263e-01
7.037403762753661196e-01,1.196594460195580467e+01,7.028631054212067797e-01
6.252417224086560532e-01,1.183849500668921628e+01,5.208211237978762620e-01
6.186440838969321510e-01,1.180932088648185818e+01,5.462870214434680793e-01
5.148761944485215070e-01,1.179729731511190849e+01,6.804725839555734179e-01
6.218401580607637591e-01,1.165088599442981732e+01,5.823709911381078630e-01
5.785876002866259249e-01,1.165608154481474301e+01,6.164464070510256022e-01
5.887928996765265932e-01,1.158756390632792233e+01,6.125660662845247018e-01
6.387954844613874528e-01,1.155171887526361907e+01,6.241391594743966875e-01
7.314789094360503174e-01,1.147548386931045883e+01,5.700366003679330218e-01
7.457666202584861681e-01,1.141294761350801146e+01,7.009679906777342984e-01
6.328159255721449439e-01,1.132537446809297776e+01,6.538290547647356288e-01
5.854508502577880913e-01,1.135263774360643829e+01,7.098475352605518873e-01
6.489405540223486257e-01,1.130274509842301889e+01,6.382682533388625012e-01
6.714961334297420148e-01,1.117677646635162603e+01,6.072302177217718810e-01
6.056958623657535679e-01,1.123585207946303832e+01,6.857173498578158499e-01
6.282694941622936069e-01,1.108409391451387727e+01,6.358996850230570486e-01
6.772889526318430775e-01,1.103479686206029164e+01,5.368086495460370200e-01
6.088543008280780100e-01,1.093085743856678604e+01,5.645459148947111760e-01
6.513058122123674964e-01,1.098594882432457176e+01,5.951792775683640846e-01
6.437914914653143361e-01,1.085790340544116184e+01,5.714903646956575045e-01
6.189205144911805734e-01,1.081531955685064439e+01,5.830619012978243143e-01
6.923140406504243449e-01,1.079332330504847270e+01,6.208497644332021670e-01
6.356899688707388085e-01,1.070947242031448354e+01,5.791900617314398314e-01
6.761023119367740586e-01,1.061688649472772816e+01,6.860671555777521080e-01
6.162092734944002448e-01,1.060113852521339339e+01,5.403799801279535187e-01
5.296103098544866494e-01,1.056866010432184666e+01,5.279228463552206874e-01
5.256865611444565545e-01,1.048270020454854112e+01,6.260523302879024143e-01
6.766353790581748351e-01,1.039854409840775595e+01,5.515125948727845895e-01
6.320739899275978901e-01,1.036932987959485963e+01,6.273790216491356153e-01
6.321645165952077816e-01,1.034466046512468473e+01,6.124289844740089528e-01
5.361389489342809345e-01,1.029938289166179111e+01,5.691954355975080704e-01
5.673251644372696578e-01,1.022873455848595725e+01,5.899457239082467330e-01
6.188146563462091354e-01,1.019502743269257650e+01,5.766562099594386703e-01
6.845177945814525655e-01,1.007596356318484432e+01,5.907916989244925698e-01
5.238435085949249004e-01,1.003523400944864008e+01,6.214945380794434371e-01
6.148076074261235036e-01,1.004714391787303107e+01,6.017714503699768125e-01
5.146782794704477526e-01,9.965259511279400684e+00,5.796223747544703153e-01
5.791201063521094206e-01,9.889471897913553633e+00,6.752260630106708961e-01
6.165859167218387116e-01,9.932065681409934399e+00,6.899618986110961361e-01
5.647166239912025931e-01,9.832166011275804252e+00,5.721769715209129581e-01
6.220603562101962858e-01,9.719101457719220960e+00,6.780527845701982415e-01
6.034037018869075064e-01,9.747491891708371270e+00,6.415803434868670996e-01
5.242846791727061584e-01,9.662337147565315476e+00,6.544484967351421600e-01
6.443294797943071028e-01,9.748440718904420876e+00,5.173142908722523359e-01
5.583889086827794612e-01,9.559203808895587073e+00,6.063734917926778545e-01
5.736976065875784014e-01,9.577409213055309678e+00,6.433059367117293093e-01
5.207337285676950644e-01,9.497174197496962123e+00,5.606539575926458019e-01
5.671169796585979750e-01,9.423850037388385559e+00,6.212993772880662791e-01
5.905153512483537481e-01,9.458799338950628410e+00,5.782058290605326389e-01
5.932876091498341387e-01,9.317666109660873275e+00,6.374834634474720874e-01
6.808540262294460188e-01,9.275326890599513874e+00,6.119599545405501884e-01
6.100599976039712269e-01,9.259434048042423981e+00,6.089520929473644095e-01
5.899971107165082884e-01,9.197807468943643983e+00,5.031932278776817258e-01
5.907319452655513947e-01,9.108636267152924404e+00,5.613919154062551042e-01
5.963298323452471683e-01,9.089429509840414312e+00,6.089419961833028028e-01
7.032787696859622573e-01,9.087889141157114992e+00,5.607699569081688873e-01
6.172298438611450999e-01,9.052474359223619871e+00,5.919470011995243697e-01
6.499485432670392138e-01,9.022077626502015946e+00,6.477810606469226462e-01
5.804120981170882709e-01,8.935466591351390875e+00,6.199348086694979054e-01
5.672868062098564979e-01,8.914523967318618958e+00,5.204673482378984195e-01
4.919049542379370643e-01,8.820474551232733162e+00,5.977937106684746427e-01
5.995467265814169444e-01,8.777657195411494584e+00,5.702341614516993618e-01
5.871548830859993906e-01,8.756967840833903338e+00,6.437605514875276436e-01
5.856990298960621510e-01,8.683789283786829571e+00,5.896746222273124838e-01
5.307795237132296728e-01,8.663226563664078839e+00,6.159701733194767881e-01
5.535821071856382725e-01,8.636405121581523403e+00,6.587941309454755645e-01
6.287100688409568150e-01,8.589559345956377712e+00,6.554289881177077781e-01
5.826112481974065060e-01,8.533146972752231108e+00,6.630341522527972709e-01
5.722606720468994546e-01,8.538743100357343963e+00,6.524565655487157834e-01
6.230864124813334515e-01,8.488154847805894576e+00,5.569407343817454059e-01
6.637346090907805252e-01,8.452513074304716767e+00,5.938575969208026439e-01
6.129493800327251440e-01,8.308768786082877611e+00,6.338751437088486762e-01
5.423925110269154359e-01,8.409348239281351667e+00,5.650574054851988937e-01
5.685662318498224677e-01,8.272751961439091417e+00,5.574708657807010415e-01
5.793996392064419965e-01,8.274615869172446736e+00,5.173167149623578709e-01
5.422781745158704592e-01,8.165039798704096796e+00,6.096506533241529135e-01
5.788647668353774645e-01,8.223563496578789156e+00,5.848177085012108423e-01
5.885440484933216476e-01,8.218313166718118623e+00,5.266028270156853930e-01
6.613576766546258590e-01,8.077917951903017979e+00,5.392498925479931593e-01
5.167127802238604684e-01,8.091976947234025275e+00,6.892216891407287882e-01
5.249815236930835960e-01,8.053044323994635434e+00,5.633678415948898399e-01
6.154726360546731723e-01,7.942005977110837556e+00,6.126691699419494208e-01
6.429200955032201570e-01,7.954721050881351729e+00,5.594871458764920646e-01
5.810689965315590788e-01,7.908288932285382877e+00,5.149518302639761735e-01
6.360022102392981491e-01,7.918816811182610493e+00,5.443843657788578483e-01
5.246793352879748351e-01,7.875271227596151391e+00,6.075388289718973711e-01
5.742440659038552386e-01,7.812666760343542016e+00,5.252083648336867139e-01
5.730357083878734326e-01,7.758737838847848955e+00,5.908632969064872009e-01
6.222782269688520440e-01,7.695772048935912935e+00,5.361691719807054612e-01
6.164138132873073772e-01,7.782901340563896930e+00,6.091110538815571740e-01
5.596407403375615042e-01,7.633856193552853497e+00,5.510536590218011455e-01
5.778375662161304716e-01,7.593716323970657989e+00,5.326667920327514683e-01
5.305526257302378701e-01,7.596701152165425519e+00,6.309095266135863467e-01
5.922040730561231037e-01,7.510318774279181930e+00,6.833939356036162760e-01
5.219741812244488299e-01,7.519032025763888072e+00,5.515400900624966019e-01
5.203061872814731537e-01,7.438962921742747092e+00,5.621409046509641128e-01
5.116470805903768904e-01,7.400486615839509952e+00,6.061454641305756841e-01
5.786049864488548300e-01,7.384219761817088390e+00,5.923138375706022973e-01
6.041685662420430702e-01,7.352322761805149653e+00,5.613625962359323207e-01
5.692907722242314117e-01,7.230384219803308810e+00,6.091989470331458101e-01
5.517391494272313457e-01,7.303331448808813242e+00,5.749991608041780111e-01
5.695557765866898770e-01,7.217409495170780787e+00,5.619448359787551084e-01
5.442185723613233161e-01,7.286631833994268170e+00,5.379647896937563845e-01
5.707363281273051259e-01,7.131868872067903098e+00,5.510323787021121911e-01
5.513531307845688234e-01,7.228711626925143463e+00,5.559040345563109886e-01
6.278501008991081989e-01,7.120926295141380535e+00,5.840068202091157623e-01
5.918454875929377579e-01,7.107326056213958410e+00,5.291860364024220109e-01
6.080285426439000496e-01,7.014386584099906230e+00,5.114157048104382985e-01
5.191005383235973714e-01,6.923196437225345612e+00,6.533939277210114582e-01
5.148605704900193203e-01,6.871181580383742826e+00,5.607553686172175311e-01
7.102179568641761032e-01,6.851642862796905042e+00,5.307634119260888905e-01
5.071266978012330950e-01,6.882824969464603981e+00,5.695019568482022621e-01
6.417653548547036513e-01,6.842284950085781858e+00,5.414752829361888509e-01
6.048374645518499459e-01,6.900737395734136470e+00,6.335800976518822791e-01
5.818005123649844235e-01,6.810309999507523138e+00,6.363750449284296673e-01
5.672254292700773526e-01,6.826453236920403178e+00,5.693892773148891973e-01
5.456392880510605448e-01,6.771460842628099996e+00,5.525432624934882853e-01
5.679176965399823640e-01,6.681128800613944207e+00,5.395932294863112766e-01
5.587282185294422110e-01,6.725072643751556001e+00,5.947372231114554930e-01
5.349604040957993689e-01,6.540968955868424750e+00,6.036729484059705220e-01
5.406685179321660817e-01,6.650212235461093080e+00,5.356432349031708950e-01
4.980869967528143705e-01,6.615816367366464945e+00,5.715585789561373753e-01
5.841341907864096017e-01,6.497337530365756564e+00,6.019394503695393306e-01
4.701274758759740879e-01,6.532815493275465180e+00,5.138315354944607005e-01
5.509144695620569188e-01,6.480042209895009009e+00,5.526707724946972045e-01
5.013917871010290517e-01,6.454830208253586221e+00,6.165628577256754284e-01
5.452663742409561420e-01,6.407239386325040975e+00,5.243239781683414202e-01
6.012261811403131206e-01,6.368628838432544015e+00,6.080987298815161424e-01
5.540202392968877065e-01,6.344296288235693915e+00,5.933150408459360037e-01
5.486081265851868727e-01,6.255166763799257623e+00,5.637139603801251120e-01
5.498762391915238412e-01,6.312183220480791057e+00,5.273227871262897715e-01
5.723252161527094817e-01,6.218545372771621338e+00,5.881431720392565898e-01
6.112410422748949523e-01,6.179403726721907297e+00,5.623570551528372929e-01
5.932915366246170885e-01,6.169795055580816090e+00,5.071498715214416420e-01
5.903161651952991695e-01,6.178078640156311252e+00,6.049897951215820191e-01
5.178782293084397415e-01,6.065583467397789974e+00,5.405170101324892062e-01
5.477983953044052168e-01,6.158571594942128691e+00,5.872829104482037987e-01
6.287086871404135024e-01,6.087428176575187422e+00,6.116503748797974538e-01
5.521360396739807275e-01,6.094309983299945443e+00,5.236203726924448798e-01
5.614927216677483290e-01,5.968880976886449474e+00,5.532553216249800343e-01
5.710451226578290296e-01,6.025540215175702485e+00,5.146769508209273480e-01
5.575833909500171881e-01,5.985723954913565237e+00,5.234445604152951903e-01
5.745829029190603343e-01,5.904307255745765204e+00,6.067321755443446651e-01
6.055539508745114707e-01,5.933172602952252461e+00,5.297551470124488571e-01
5.059613971992282799e-01,5.860134345700722669e+00,6.531630337511089568e-01
5.418000167859362559e-01,5.804265331007210982e+00,5.922747181319321097e-01
5.987931154500431008e-01,5.849196012757633234e+00,5.046064457973830075e-01
6.168652929167317556e-01,5.745996626428197196e+00,5.719354969757820539e-01
5.404313672651387401e-01,5.730379082604175167e+00,5.706461302688337067e-01
4.899496902965626011e-01,5.776863494945819077e+00,5.570244905851007289e-01
6.485989141858113927e-01,5.665151732006085794e+00,5.491461394713510469e-01
5.237521537552074502e-01,5.654884028946307595e+00,5.720219491054105987e-01
5.578043214635346470e-01,5.548095396248799993e+00,4.956939373832384699e-01
5.554688814708336198e-01,5.631455543639771300e+00,5.447559945838837958e-01
6.054025119998822646e-01,5.652210087604632172e+00,5.628668291384785194e-01
4.735589421275379629e-01,5.598332630002893495e+00,4.745755672582287477e-01
5.058357711205562213e-01,5.523909370934742213e+00,5.112112137004050094e-01
5.852404204123532461e-01,5.450925609277210704e+00,5.276274209212413746e-01
5.421854597118169750e-01,5.507791170826494387e+00,5.843182218043262433e-01
5.667760075484311599e-01,5.512101219156996912e+00,5.302749033841938076e-01
4.348485874636810466e-01,5.391035206070333707e+00,4.805188116986429114e-01
5.235544527841806683e-01,5.389991007939716638e+00,6.128346399519833954e-01
6.537001300249339897e-01,5.471581565485330145e+00,5.035503835926093963e-01
5.452885011819157413e-01,5.359270357572247789e+00,7.047359352571019864e-01
5.424009142510405335e-01,5.303615335092211502e+00,5.378364620004187913e-01
5.394085065024046832e-01,5.265611221151863752e+00,5.892199846262492491e-01
6.589368357059586234e-01,5.253348974720951858e+00,5.591089109553563086e-01
4.781190926333237501e-01,5.222691855909962655e+00,5.561429615577597740e-01
5.487204275109492935e-01,5.268553805618680919e+00,5.273222868690489173e-01
5.772133216498381847e-01,5.262993247266082975e+00,5.925375314873851940e-01
4.790059747900345943e-01,5.225253409219560830e+00,6.286683525107945592e-01
6.455733799318007504e-01,5.130207094156786773e+00,6.220980418434681747e-01
5.753492243513387283e-01,5.056204045904008737e+00,5.235410421523574165e-01
5.212258799955453714e-01,5.177471765619428901e+00,4.840400019912929896e-01
5.299550440797928808e-01,5.009383845206791364e+00,5.826254961815940936e-01
5.660839916387363502e-01,5.020038878337897970e+00,6.066845191318456232e-01
5.319710201804760397e-01,5.019102967179924768e+00,5.311853339290094622e-01
5.837230157148923793e-01,4.996587087615358413e+00,5.364712801952861154e-01
4.934088375695322437e-01,4.975114791681236603e+00,5.306072016268158498e-01
5.021912433590730584e-01,4.919891766354578699e+00,5.304435771349681472e-01
5.347054037117185965e-01,4.979493129256559847e+00,5.180136207284640193e-01
5.494420133945111528e-01,4.911525529044136640e+00,5.618418125785981099e-01
5.905371372999077551e-01,4.866051784194745267e+00,5.778860368065509290e-01
6.225901380144616137e-01,4.919069410406634368e+00,4.346007002073934977e-01
5.340391748865224164e-01,4.876786965039896948e+00,5.500088436833395766e-01
5.496305251395854352e-01,4.845323301575923836e+00,5.066725757177298339e-01
5.708970890876774451e-01,4.772611542433848442e+00,5.800027724595506751e-01
5.204288098159487452e-01,4.758858240285388952e+00,5.132000044521202176e-01
5.486332002339493474e-01,4.737305562543014048e+00,5.918541079294459273e-01
6.038766454880080126e-01,4.684059231424437364e+00,5.712887628117794270e-01
5.370185012081037934e-01,4.703940249604438684e+00,5.994651045488568197e-01
5.481681537442365526e-01,4.703033157576150813e+00,5.701330596449796229e-01
5.426510873220945497e-01,4.626837223285481748e+00,5.690018898442184003e-01
4.792768448250841473e-01,4.618007277811562616e+00,5.981748332332241791e-01
4.969490988843681678e-01,4.720647131041717515e+00,5.428233043260851653e-01
5.494022962326294834e-01,4.578164242618345092e+00,5.462294335246000720e-01
6.090851102766144942e-01,4.621792761210516964e+00,5.721928287381105038e-01
5.526711911069275285e-01,4.588142531770072807e+00,5.545175752810777015e-01
4.513928435420098140e-01,4.489525631971909903e+00,5.110684247777221856e-01
5.338054432204595301e-01,4.539106460822297961e+00,5.281900318734280564e-01
5.198667802079887101e-01,4.429450082336726879e+00,5.058906551355900616e-01
5.618897818063581795e-01,4.462785099909702069e+00,5.353664068737100656e-01
5.044116343853287665e-01,4.437431078721881583e+00,5.637273895195257234e-01
5.244157170842853599e-01,4.456683067195457149e+00,4.970921079510881579e-01
4.688718555228756357e-01,4.334133191778997585e+00,5.048210473723216962e-01
5.178054592852542326e-01,4.475652496479812115e+00,5.133692855011453560e-01
6.098150895700927832e-01,4.337949463113631943e+00,5.468008117462845874e-01
5.752433601512944028e-01,4.368392986839960024e+00,5.205856252556870789e-01
5.192987442835346190e-01,4.323629798847363759e+00,4.819761457919313208e-01
5.976381547670374106e-01,4.346862020994675113e+00,6.464099498762075902e-01
5.070684443188951951e-01,4.303452109143203863e+00,5.609032174903183510e-01
5.950757223300018328e-01,4.255277213072569786e+00,5.865605048481257189e-01
5.665849710643278137e-01,4.230008041390000528e+00,5.600249035171275258e-01
5.888274576860366150e-01,4.214702578442889980e+00,5.931846444757364889e-01
5.109892797806401266e-01,4.241722188655095316e+00,5.674880123817924726e-01
5.799403542145886714e-01,4.164931056007208809e+00,5.609384840386379967e-01
6.030835063676078800e-01,4.151559630484221941e+00,4.979062420643678988e-01
5.021825220823250557e-01,4.138232834052816500e+00,5.617043774431144110e-01
6.148791883742014130e-01,4.149890217511199353e+00,5.080260673673588911e-01
4.803001587340526846e-01,4.161823294076473445e+00,5.656167687146010925e-01
5.503486370859320687e-01,4.033329354319648452e+00,6.304600282581460657e-01
5.226584416382049625e-01,4.010876279267660216e+00,4.766339820288282292e-01
5.222217041232224410e-01,4.090837744227291850e+00,5.308079013666284762e-01
5.191401288728265673e-01,4.037614282939701482e+00,5.007337097043856877e-01
5.817020908857182260e-01,4.024470808957015144e+00,5.739192053262724968e-01
5.862353999709506436e-01,4.046064937172552334e+00,5.825899063751690532e-01
4.482433635842891229e-01,3.944530835492352505e+00,4.925710048565405397e-01
5.657875804183475354e-01,4.054839440962852315e+00,5.640769463387618199e-01
5.077591819482671909e-01,3.936612976754005899e+00,5.618455188158169022e-01
5.472967929171740353e-01,3.996244524884859484e+00,5.512860413426450279e-01
5.325272795895594768e-01,3.905191962289058072e+00,5.289592969119084609e-01
5.933912029860901605e-01,3.932865400582240767e+00,4.734827677542730595e-01
5.927199189539201774e-01,3.949282634293288741e+00,4.959928102264807848e-01
5.297775413058318783e-01,3.867732418558326835e+00,5.348726491825819274e-01
5.630162856100993096e-01,3.840931147129014178e+00,4.447081371437405783e-01
5.411204100331322708e-01,3.746249957338597447e+00,4.945397537357063555e-01
4.986216703122823279e-01,3.825802025783558324e+00,5.433989788913403673e-01
5.021356683719646607e-01,3.730037382505125620e+00,5.814759569596343880e-01
6.366138591073166042e-01,3.683198397729571472e+00,6.520743755635813876e-01
5.562673370610237145e-01,3.779032737180489931e+00,5.291816641644950803e-01
5.781141701555601031e-01,3.686036741886542067e+00,4.820167392118632210e-01
5.599515310728147011e-01,3.694058910697041398e+00,5.081805816501316908e-01
4.829930761153612973e-01,3.743255466637738671e+00,5.307410361882327621e-01
4.720372480289760087e-01,3.715555701191358029e+00,5.872734217734701945e-01
5.111836206760050905e-01,3.720974061977858405e+00,5.781681159692590999e-01
5.359228765145799267e-01,3.624787823014802068e+00,5.336876602175991691e-01
5.752398993647772629e-01,3.674186155046799129e+00,5.293559859243961441e-01
5.155007704806822133e-01,3.652402436140266939e+00,6.046153655206530919e-01
6.015749778037822182e-01,3.509837762517473259e+00,6.287829657630205071e-01
5.740523363761677045e-01,3.625557119524756011e+00,5.701643692878302083e-01
5.040141369157203899e-01,3.619017770195991357e+00,4.727142918647421199e-01
5.321066986434308532e-01,3.579979468681139920e+00,5.546471604888891793e-01
5.340220957095348497e-01,3.546509506004717149e+00,5.052821732228515161e-01
5.270909226302116224e-01,3.503204571617451357e+00,5.060950628575141552e-01
4.971346350267077385e-01,3.491393163081971895e+00,5.560108552827289774e-01
5.763006178267513491e-01,3.504116581141106135e+00,5.239759669160413136e-01
4.888394039375535405e-01,3.421682569344874913e+00,5.638672769434461829e-01
5.917457985668089782e-01,3.495310487735289406e+00,6.443107527439275728e-01
5.150929953311814691e-01,3.507011610230887477e+00,4.940768062591619492e-01
5.488605787515317136e-01,3.368923388715799216e+00,4.611958197022877348e-01
5.203671342967800539e-01,3.437373084204668583e+00,4.558985756768172415e-01
5.190364697787431814e-01,3.427533985280486917e+00,5.888339557645773104e-01
6.068692463141931448e-01,3.386902577200502140e+00,6.532039944332649339e-01
5.299846929677061169e-01,3.337966973013859029e+00,5.622639374337111695e-01
5.893478859209283494e-01,3.402192224171827206e+00,6.231786710652775785e-01
4.832758472613823963e-01,3.331984663842388006e+00,5.221640429726362997e-01
4.980728736508739929e-01,3.244418397378289853e+00,5.245380038442181148e-01
4.725861638239474694e-01,3.383261398784831897e+00,4.910585553849975970e-01
5.545569072122200627e-01,3.264971814171651943e+00,5.701944918734290768e-01
5.438372142105224460e-01,3.194952967039975000e+00,5.293153881307053332e-01
5.525709075149205507e-01,3.249964591883462539e+00,5.436846071323312435e-01
5.130415770902517769e-01,3.251320789495639296e+00,5.642702512830315431e-01
4.266672294393522580e-01,3.260289510750536746e+00,5.185864408900450195e-01
5.402862157805463639e-01,3.263520970388583464e+00,5.029364041347016423e-01
4.929168949134916100e-01,3.189722251207586012e+00,4.785821337661214647e-01
4.796998730031585279e-01,3.151526076057470149e+00,4.937833820909384164e-01
5.380433813090897965e-01,3.250145073078097635e+00,5.468520106956581417e-01
5.532865745067462315e-01,3.249079986529887609e+00,5.334085840595322869e-01
4.678984261702728298e-01,3.089378769241785783e+00,5.803276347150394532e-01
5.798617957515669330e-01,3.130851480330592018e+00,5.208839496693352666e-01
5.182642244770256923e-01,3.126692482465202705e+00,5.185958653614400893e-01
5.325583953295087714e-01,3.110792132504330620e+00,4.946677821832252131e-01
5.760778493159345315e-01,3.099108087364261355e+00,5.304859518884382785e-01
4.970271641917128336e-01,3.057263224167890314e+00,5.690950614913776739e-01
5.914353683327132627e-01,3.079091608691067350e+00,5.865877943697191954e-01
4.823543997407864214e-01,3.055326069947238210e+00,4.717405298720994677e-01
5.805840302972584688e-01,3.093212040926207163e+00,5.783064273782051457e-01
5.351703773592754176e-01,3.008504908671566724e+00,4.943043946946886202e-01
5.596358674848457282e-01,2.993556097589418208e+00,5.063265229759208452e-01
5.835145016800451501e-01,2.999649662930051974e+00,5.018064501830296065e-01
5.840589689418830277e-01,3.019620417709798943e+00,5.551427310400888215e-01
5.996156398475550597e-01,2.997311281333721933e+00,5.391196926180147342e-01
5.022473514238360304e-01,2.950381588094276974e+00,5.788156051504079747e-01
3.771798125034443450e-01,2.891252890025718614e+00,5.786761661932369183e-01
5.197991880497616624e-01,2.986210482949044565e+00,5.043224483148254222e-01
5.561026687194325913e-01,2.930306074511678460e+00,5.079293306915909634e-01
5.269677907242993342e-01,2.894410269741006125e+00,5.030746458322625791e-01
5.677288166931457880e-01,2.892317512616716435e+00,4.882730783231701843e-01
5.059138736494431798e-01,2.930783362941619785e+00,5.064570962065878534e-01
4.568722576699706939e-01,2.878375780297879327e+00,5.805656162258846509e-01
4.894475378878401783e-01,2.830526296316007606e+00,4.285506853837455776e-01
5.329218422303557690e-01,2.881061290160158883e+00,5.045225159199167031e-01
5.200540641078422732e-01,2.837560730919281404e+00,5.381889021353573055e-01
4.951882861962697557e-01,2.731971197989642164e+00,5.253616633609496933e-01
4.977882962870369687e-01,2.836418054979770620e+00,5.254338375521243609e-01
5.124957244419473534e-01,2.801143000250125414e+00,5.246460931646870218e-01
4.912764863209645450e-01,2.806972331889871608e+00,5.495620931701720169e-01
5.177138684986174466e-01,2.748418492810515978e+00,5.847850931892203397e-01
5.577928535763289064e-01,2.796879508724849916e+00,5.237986842206657778e-01
5.415479471402340206e-01,2.824187609991923420e+00,5.484498569882456653e-01
5.317228813682676192e-01,2.840044979776833234e+00,5.070264823743724225e-01
5.286102559771899134e-01,2.744708609603742744e+00,6.109256954361721448e-01
4.897400820631905294e-01,2.653045234794945362e+00,5.790412892935089539e-01
4.914397483325815830e-01,2.665600295859395175e+00,5.175709463440159031e-01
5.381552324971806689e-01,2.770346153924997168e+00,4.691630255234153224e-01
5.273810891167830528e-01,2.614196622495477573e+00,5.324844127698219465e-01
5.230281375441860892e-01,2.628398798568998274e+00,5.567176992596669649e-01
5.554200656762406929e-01,2.679810859931698097e+00,4.828814605652590464e-01
5.505946906188755596e-01,2.693079882029586258e+00,5.984471708054750483e-01
5.623475596822968825e-01,2.603690321288071541e+00,5.289178509398282380e-01
5.211770533636531644e-01,2.580164988152546801e+00,5.351149963824607392e-01
4.808635339898378880e-01,2.653746386302725746e+00,5.129043827099928343e-01
5.841278973525786400e-01,2.654899794822623171e+00,4.926686885464783838e-01
5.234159667171033314e-01,2.547246859436190114e+00,5.807090917861756907e-01
5.048892943611031914e-01,2.568187008293260298e+00,4.947095261965884783e-01
5.636214573528544047e-01,2.589790833151346394e+00,5.381915045973694189e-01
5.867699087113908973e-01,2.560428942748252723e+00,5.431452951167187182e-01
5.547364639599901004e-01,2.517366231977368418e+00,5.250750049797249241e-01
5.391374323869992935e-01,2.502579141904866411e+00,5.050639309481731454e-01
5.525747378654154440e-01,2.546238569978052535e+00,4.864392518654788722e-01
4.928484670917217536e-01,2.589534994410921165e+00,5.905488327596172260e-01
5.282511879958802226e-01,2.547333805148919605e+00,5.141859886849325934e-01
4.818953979352759709e-01,2.516248733576095020e+00,4.485168722632256189e-01
4.517129004007075510e-01,2.610259901475024069e+00,5.242341259180106627e-01
5.595241567665183435e-01,2.546414578575729504e+00,4.969150187386655038e-01
5.081550077239779251e-01,2.461156669007765529e+00,5.428902005843236900e-01
5.411239396824593095e-01,2.454195319929097785e+00,4.851223002600847933e-01
4.828199871202148441e-01,2.452058509199565695e+00,4.732392574149116848e-01
5.025152907257696144e-01,2.390954799008291332e+00,5.511578268947996406e-01
5.557096537042087725e-01,2.423358285770716769e+00,5.483670824088449081e-01
4.794102951435332827e-01,2.382458030337395893e+00,5.942125747863370444e-01
4.529593685853310348e-01,2.420534885771829625e+00,5.420147416124196926e-01
5.367381857812428825e-01,2.356757425775292347e+00,5.142434598691790759e-01
5.886373139639825558e-01,2.409684767676320227e+00,5.186665316778458212e-01
5.550376738599511750e-01,2.338702212929290702e+00,4.905852348508794591e-01
5.476426548242273595e-01,2.411901968649948547e+00,4.698800454510458913e-01
5.414595491202438549e-01,2.401207574217519181e+00,4.870291734758794844e-01
5.546548808915671147e-01,2.300221685112733727e+00,5.376271010389858107e-01
4.883602766823345043e-01,2.270023495413400205e+00,5.386034649504746197e-01
4.752733913771646779e-01,2.276266596707354761e+00,5.386557590208780333e-01
5.711276997696739244e-01,2.327106868626272806e+00,4.909548780077830910e-01
5.581671279174474920e-01,2.177446607919104604e+00,5.103225905271041585e-01
5.222034003444644412e-01,2.333936282314315935e+00,5.680522310631128668e-01
4.781387381420271199e-01,2.283121112792733776e+00,5.127100767484765731e-01
4.603579668320803009e-01,2.265925446943425126e+00,5.779277071368530416e-01
5.572759583738877698e-01,2.302073547839927237e+00,5.096782312084029432e-01
5.483377816074624933e-01,2.265107316168012197e+00,5.546672142269211125e-01
4.923952528214542435e-01,2.229698690539857253e+00,4.772817848798077134e-01
5.157055434714419295e-01,2.255318942279820771e+00,5.606339178107141441e-01
4.656974772496504933e-01,2.186239775904740501e+00,5.646696480574501242e-01
5.181988810086345376e-01,2.256803117207646814e+00,4.963594399661813150e-01
5.068867066962882140e-01,2.245642826745511744e+00,5.311258584943446825e-01
4.971127264701130644e-01,2.214765045309464053e+00,4.594863730998464124e-01
5.565764509747549438e-01,2.224597727451959717e+00,4.895064195938436669e-01
4.759841067024106476e-01,2.185766614756235793e+00,5.379962251075859347e-01
5.113104084338068178e-01,2.149480441931608699e+00,5.043812478367788454e-01
5.881739467408358957e-01,2.144770921466669922e+00,5.518129965201298281e-01
5.601249430043849786e-01,2.145612288328686112e+00,4.839009414933349018e-01
5.397802232338336781e-01,2.107804414670484405e+00,5.226116861276041137e-01
5.699064622680783954e-01,2.141267436609434860e+00,5.686356605293552136e-01
5.267952034959970664e-01,2.107540311371146835e+00,4.189725240564722841e-01
5.508220880880884129e-01,2.223312130627679739e+00,4.464279787792032606e-01
5.099741627595851812e-01,2.148134698747909521e+00,4.784981825378740727e-01
5.341218279197447183e-01,2.019546356717895286e+00,4.168537245170347849e-01
5.079358999060618052e-01,2.090085474146604838e+00,5.488014916521248843e-01
5.229522716400269999e-01,2.123135259904433525e+00,5.191638708681318715e-01
4.681265396617407815e-01,2.133900660044938835e+00,5.033184852302085011e-01
4.777349588040691319e-01,2.043880735982372965e+00,5.145583193493433738e-01
5.471232003061097249e-01,2.052874421344310196e+00,4.782023668173512876e-01
5.068168479920130975e-01,2.077495355261465892e+00,5.153896087165280582e-01
5.159168279364964027e-01,1.966596251182571864e+00,4.551963552341943831e-01
5.528945162011569270e-01,2.033386965462273377e+00,5.205976550619968446e-01
5.271391919036005902e-01,2.081851850901839107e+00,5.011670965019072721e-01
5.736389966252334327e-01,2.010266662394558868e+00,4.986331884652095980e-01
4.884287622199510182e-01,2.154753754852437364e+00,5.952127896701315812e-01
4.965682147907031774e-01,1.984585156632247660e+00,5.226149871139249559e-01
5.544639317757714680e-01,2.011038178061102411e+00,5.618025989727292169e-01
4.987763687858405293e-01,1.972157286214338612e+00,5.667457454039640519e-01
5.460155390681542542e-01,2.030222943637851163e+00,5.246080701674283864e-01
5.058114880433098870e-01,1.949050157847137088e+00,5.207399912616802462e-01
4.829941655692679969e-01,1.939362396945341516e+00,4.694771742020974470e-01
4.975750805918658926e-01,1.939350252554772780e+00,5.305947352873089384e-01
5.063654997592149654e-01,1.930115952911027000e+00,4.734019526085856411e-01
4.156381159683927851e-01,2.032397776461401850e+00,5.149806824620525303e-01
5.282588216884377408e-01,1.920842436124960306e+00,5.855705697648824204e-01
5.828991438597885821e-01,1.934999699389518213e+00,4.820418067370871307e-01
5.893051652297394138e-01,1.893669137619956810e+00,5.354044285314666363e-01
4.712813726231379063e-01,1.931925714409805206e+00,5.453156597111531445e-01
4.607487132987046485e-01,1.904634208401688067e+00,5.809640017790808075e-01
4.688035340898679126e-01,1.864242579980385450e+00,5.224055654790387138e-01
5.662435570682756714e-01,1.932065167127233085e+00,4.857225047886613023e-01
6.137336126905243994e-01,1.874616174514096789e+00,5.101452439028711927e-01
5.392307436441171609e-01,1.857857687398926982e+00,4.704505967805750477e-01
4.697822852695502927e-01,1.873154383875813345e+00,4.688118658127087834e-01
4.510508956457158214e-01,1.880005132524457556e+00,5.125717883897685789e-01
5.707979694423473971e-01,1.915833948408431242e+00,5.281782555552612113e-01
4.586277777753915985e-01,1.799667243682274265e+00,5.146052519515530443e-01
4.711441843571935184e-01,1.790013099547451025e+00,5.141647206070161236e-01
5.223234923882086322e-01,1.824292069495901947e+00,5.806465398931907052e-01
4.592442596797877141e-01,1.831899600663159822e+00,4.570685365232456943e-01
4.690543032886790864e-01,1.783343585001194276e+00,5.862081525761781986e-01
4.973236992555324365e-01,1.772601711808910352e+00,4.968659899745128672e-01
5.704053901614133393e-01,1.870526620762784642e+00,5.025394964524718677e-01
4.214485131371715765e-01,1.742751282171427052e+00,4.954301375845830413e-01
5.001570146850581322e-01,1.729452824221230367e+00,5.382165051638115871e-01
5.369212121902233736e-01,1.847352183730433639e+00,5.224355633899242513e-01
5.648642315822028914e-01,1.757661411621453951e+00,5.603742142255121461e-01
5.239115282878732405e-01,1.770350480902302515e+00,5.778389253140402415e-01
5.414807242190972092e-01,1.755272372942435988e+00,5.600860611238048792e-01
4.514188528645191600e-01,1.759256154487091273e+00,6.017141180596210503e-01
5.398730159455056299e-01,1.757224726936251313e+00,4.942722133716789257e-01
5.166178363402373908e-01,1.800159527287596983e+00,5.469206067706773311e-01
5.646543810277390163e-01,1.766931088935629335e+00,5.648311590129770909e-01
4.945137747167674402e-01,1.660655300312951166e+00,5.058111050463981462e-01
5.005872799895549896e-01,1.691849335024011136e+00,5.813676167887367185e-01
5.651760978656866774e-01,1.786631567620889260e+00,5.325524769958797089e-01
5.652990770335852844e-01,1.689848671655617585e+00,5.327657857004532982e-01
4.408331079350374382e-01,1.683671994057705845e+00,4.809715102660513386e-01
5.150009924938706574e-01,1.704461564989091071e+00,5.413192269060504991e-01
5.229540533284701143e-01,1.666282348836156668e+00,4.743257666675604334e-01
4.679484282086504021e-01,1.659375083599365253e+00,4.690554398566971206e-01
5.272284451890190127e-01,1.715210055638786146e+00,4.941297611169707116e-01
5.201900668158927488e-01,1.632377197479967901e+00,4.930217006263543644e-01
4.711134139409889343e-01,1.720379143281636880e+00,5.671299978519207530e-01
4.859782827258586901e-01,1.584537195070562676e+00,5.036079335190050132e-01
4.872273768140478745e-01,1.648602045610114031e+00,5.503704397045127150e-01
4.601540972239099858e-01,1.702868428988852267e+00,4.922059210731657419e-01
5.209475584788205715e-01,1.657539350144083601e+00,5.698931745123693160e-01
4.843181976333907346e-01,1.655436610638173489e+00,5.072969388799615231e-01
4.973648290745224521e-01,1.663711696520212335e+00,4.826895969197359526e-01
5.408800288370424481e-01,1.680554019042038494e+00,5.265240147965258855e-01
5.002782995645308484e-01,1.660160331549406676e+00,5.228197211296536917e-01
4.726274880090494679e-01,1.590592886583834353e+00,5.006283841990353256e-01
4.842776670312106124e-01,1.626406012796515865e+00,4.980300545305576532e-01
5.139578053466533625e-01,1.593480852816364424e+00,5.331330156218625493e-01
4.944841812807743153e-01,1.514950092546696769e+00,4.354793170687151771e-01
4.887918016359961704e-01,1.570824692052685378e+00,5.182607695622533095e-01
5.405115115305242357e-01,1.565385273226274521e+00,5.010371239863455894e-01
5.506354455345990884e-01,1.545213068978683157e+00,5.530241715716768258e-01
4.924182811466649712e-01,1.567483450569578718e+00,5.003143244670463785e-01
5.530281520296963516e-01,1.547047438537467956e+00,5.318754796668815343e-01
5.237811046075960819e-01,1.628049759126143803e+00,4.896798355624460974e-01
5.767377848247960959e-01,1.608362005937995942e+00,4.907811857146034962e-01
5.026482878136162569e-01,1.618916436444773455e+00,4.900213865031957661e-01
4.664759325691933967e-01,1.590510795760636142e+00,5.255931265461021296e-01
4.859647347790486682e-01,1.550111146104680371e+00,4.987619082511281499e-01
5.172651063651402259e-01,1.516266309902457587e+00,4.913774669147589758e-01
5.023848983919491085e-01,1.473186284542961744e+00,4.955987906278460642e-01
5.119185753455156584e-01,1.633268478231314935e+00,5.315624174271691427e-01
5.115726024448169484e-01,1.536227404470021485e+00,4.372704782076637930e-01
5.344716694414755054e-01,1.554654289635902797e+00,4.921848234557924529e-01
4.917385781050200855e-01,1.530540012499886249e+00,5.132192924932088562e-01
4.617120973732272149e-01,1.526501161192362455e+00,5.463043749145054528e-01
4.654102362731821763e-01,1.519933883934792895e+00,5.072410638575063357e-01
6.082028038964268912e-01,1.523937479723875610e+00,4.899242629996383158e-01
4.400109281791617644e-01,1.487576490139515428e+00,5.932358534821303708e-01
4.435662547142038004e-01,1.486382327249469837e+00,4.848177975880386126e-01
4.926274492993914511e-01,1.513296583745485702e+00,5.188703439203780077e-01
5.668699155628507125e-01,1.412888879579301982e+00,5.295649141640781377e-01
4.849371813393166253e-01,1.400000717797902361e+00,4.962957278970592245e-01
5.104365030934795433e-01,1.517213947952788189e+00,5.330370796565500058e-01
4.357946366213203415e-01,1.450068196918390617e+00,5.324150934424797255e-01
4.519449600435666015e-01,1.499840555077170068e+00,4.624218967432197624e-01
5.071899997806718075e-01,1.535683229242750025e+00,5.137132997161907300e-01
4.873962205106636691e-01,1.379342551871068911e+00,5.248276579121602392e-01
4.842497289461680232e-01,1.475543285220455303e+00,4.787555177749695523e-01
5.052299367940872310e-01,1.439816536918496981e+00,5.860142943615168631e-01
5.303069512861476875e-01,1.355008550077249518e+00,5.647552557164072784e-01
5.015737278116564335e-01,1.377188449584487717e+00,4.505763945431020545e-01
5.510271103759112332e-01,1.407836480295217907e+00,5.875961978712562761e-01
4.526863054416586651e-01,1.311251543014924748e+00,5.098407093571564186e-01
5.435498096539072010e-01,1.364647127089757106e+00,4.314056215425785545e-01
5.389526791704613018e-01,1.356068155357059046e+00,5.665954868664149213e-01
5.333239502053594983e-01,1.410690414083675792e+00,5.052903532088320881e-01
5.006709092906834746e-01,1.447025511930451147e+00,4.886765945523632859e-01
4.619731730044267515e-01,1.357518497445714400e+00,4.835706708814809240e-01
4.816876052421963372e-01,1.429863907390070299e+00,5.132124197836321899e-01
5.081185360752803470e-01,1.429787805238771803e+00,5.192262843170800668e-01
5.367042951668465900e-01,1.381848189169356145e+00,5.258162661992151765e-01
5.334390138923482683e-01,1.365271882310729268e+00,5.306692402587139812e-01
5.178709364721437725e-01,1.373976307685750520e+00,5.854614909033712955e-01
5.160534224283199745e-01,1.406056508196974697e+00,5.023302380221784658e-01
5.382127839231470867e-01,1.395667252097323230e+00,4.898400152491573234e-01
5.422281842458899215e-01,1.370951459105181902e+00,5.418256430951943203e-01
4.959292078806925574e-01,1.340904218860025532e+00,5.296355646873508460e-01
5.179642151484747936e-01,1.289983385495061530e+00,5.087072501358379517e-01
4.793152231764527538e-01,1.338555171127544963e+00,5.093753327272676490e-01
4.560768140085391664e-01,1.215183367556220251e+00,4.809892990012071268e-01
5.806079690406700244e-01,1.301275184213205760e+00,5.013500076416553819e-01
5.210236799409018182e-01,1.399005267192609203e+00,5.615200714619550393e-01
4.782460974326921410e-01,1.365189437274409778e+00,5.208077108878773620e-01
5.100843144217002134e-01,1.329811638293820319e+00,5.359669991467238548e-01
4.743532880544900077e-01,1.296202543716153510e+00,4.636630305272345653e-01
4.598963869707478613e-01,1.330534965496144695e+00,4.815219031467419253e-01
4.701485752459171330e-01,1.338968317734722913e+00,5.059045732697287079e-01
5.140202094550531120e-01,1.325447919556085097e+00,4.735298045644254494e-01
5.399616995400566832e-01,1.423121314948982752e+00,5.001098982484463162e-01
5.398328983215940902e-01,1.321428764302642778e+00,5.380174632781934418e-01
4.662222554270509245e-01,1.279559742212482698e+00,5.194833749288992886e-01
4.955948364763613778e-01,1.394170076130029523e+00,4.952286010893081625e-01
5.524514629265748766e-01,1.311209080905481272e+00,4.961879439714925732e-01
5.197428488913414801e-01,1.279320163790031106e+00,4.656617473759903647e-01
4.789820233392552140e-01,1.296589608678762273e+00,4.657241655179425455e-01
4.770152469558058272e-01,1.267399287736565849e+00,4.742905638731723661e-01
5.204470448249052250e-01,1.249290122812730219e+00,5.393417042939464556e-01
4.613254529521182423e-01,1.298218456793739595e+00,4.568555429247781463e-01
5.493803333236986219e-01,1.224629251656504270e+00,5.207365880657152113e-01
4.923876040574973745e-01,1.334115167727614626e+00,4.960686629875711851e-01
5.495271042496198133e-01,1.229534106132617044e+00,4.728233109267442891e-01
5.152975322157067328e-01,1.286235650814436360e+00,4.740996158101550284e-01
4.936204960391795682e-01,1.187208252734624159e+00,5.439141589384922648e-01
4.692188653097804085e-01,1.221308108160947592e+00,5.934841801922899895e-01
4.714876239817911707e-01,1.295909259174588879e+00,4.637848809451229348e-01
4.999854627367958937e-01,1.169393516600252925e+00,5.111416694826377283e-01
4.440304075822447127e-01,1.249582893970297537e+00,5.369748799088830404e-01
5.291586028241219708e-01,1.156656279538877730e+00,6.146857477346763243e-01
3.710095313554562235e-01,1.182554145521611977e+00,5.467362788972770504e-01
4.843802270227007822e-01,1.187555584663114061e+00,4.896870146796098444e-01
4.727842906526135147e-01,1.194857278933028955e+00,5.077723496253681024e-01
5.284075494571679465e-01,1.190554750576722221e+00,4.565240141387155726e-01
4.899777227119622713e-01,1.239689536121491020e+00,5.209872903288883528e-01
5.188133193328097192e-01,1.184491036526047036e+00,4.637042527443585582e-01
5.089892559854765075e-01,1.299781379562535033e+00,4.805711951722681508e-01
4.577007660211357409e-01,1.192744596889363962e+00,4.930813409284670046e-01
5.000187696242233137e-01,1.276972128742835721e+00,5.056174185372963592e-01
5.722353667704180857e-01,1.142192143082899625e+00,4.557272448878259552e-01
4.848030524923459539e-01,1.172082595495246293e+00,5.712380249103214958e-01
5.593122788540013657e-01,1.123631793197708229e+00,5.007028881083528393e-01
4.680674481774387274e-01,1.135779379935023758e+00,5.724256414323485309e-01
5.125965811489255897e-01,1.257781099861444041e+00,5.128596614181336610e-01
5.556378731745214017e-01,1.208652345818928220e+00,5.303785990849292364e-01
5.209522909721937545e-01,1.177985510271192027e+00,4.507090591263157031e-01
5.734223370443496393e-01,1.152329928731847586e+00,5.314858036635409233e-01
4.351533026630820533e-01,1.174509298278163305e+00,6.004147783768880586e-01
5.660412927754157053e-01,1.188129948779250711e+00,4.550870176464704153e-01
4.785485204234726231e-01,1.200959805635512190e+00,5.495434407037398383e-01
5.286726596837347802e-01,1.078213687212629113e+00,5.047061301190429727e-01
4.810675584604094390e-01,1.143162243327625616e+00,5.506856612013898422e-01
4.901635693802386951e-01,1.175534776915253321e+00,4.441596225700018552e-01
4.712227184304915717e-01,1.159149461216310018e+00,4.487737541687074061e-01
4.776548242413579115e-01,1.125044939783300224e+00,4.687846392861896860e-01
4.754757625827041867e-01,1.164943907166301473e+00,4.530682584783106703e-01
5.272900497803538755e-01,1.141261480231140935e+00,4.656326693621941071e-01
4.606055454284506134e-01,1.017543585580944487e+00,4.595101074326096713e-01
5.587826703198202072e-01,1.113629379407016895e+00,4.377104484615347846e-01
4.815311276159526255e-01,1.131430376894897227e+00,5.050230564917990161e-01
5.203628150789010309e-01,1.101535600017689243e+00,4.487805225733544900e-01
4.601996951613686049e-01,1.060840186065072466e+00,4.802766516652497431e-01
5.078539276222040488e-01,1.139324645311796669e+00,5.193912836106036046e-01
5.418259936662128684e-01,1.146348716380552357e+00,5.370849688626468943e-01
4.618398677763769222e-01,1.080096396989925767e+00,5.183339563664983718e-01
4.804221119440147958e-01,1.142573644215515438e+00,4.616219325896881998e-01
5.436493962363756483e-01,1.097486239027665400e+00,4.159799375478560601e-01
5.035362206147866448e-01,1.089072672026691890e+00,5.431974051519277147e-01
4.936131669167692637e-01,1.055112288989167535e+00,5.020452815616276432e-01
5.285327689281255070e-01,1.165209063166722236e+00,4.753396181404991871e-01
5.197316684953544597e-01,1.018973043008309265e+00,4.985619933142262372e-01
4.816782809393758691e-01,1.030554147681085331e+00,5.239716239131534392e-01
4.834919428748292169e-01,1.133804299288642348e+00,5.222760872314549108e-01
4.306523817517197705e-01,1.110429964623493859e+00,4.958529509891378972e-01
4.864996785825804193e-01,1.091512626686163889e+00,5.410552657942443444e-01
5.248713247934952975e-01,1.070877799421880550e+00,5.187786918396048996e-01
5.291889147926376324e-01,1.043310456871092473e+00,5.462799643618023726e-01
5.053100511071224599e-01,1.082411902309393215e+00,5.290314666708187952e-01
5.248502192932106292e-01,1.053991163755736871e+00,4.570587203174303892e-01
5.108669883823238056e-01,1.047558498695038365e+00,5.794424463299350236e-01
4.926008325897376916e-01,1.106778580246282617e+00,5.549991277212724672e-01
4.752458186331327550e-01,1.002065199507303994e+00,5.286761925832407227e-01
5.598191610153936404e-01,1.032668950243843531e+00,4.947808090071820208e-01
5.701625183775396177e-01,1.041141223758486278e+00,4.723234402046829206e-01
4.809969352765937622e-01,1.032776366419397185e+00,5.117250564971564941e-01
4.983666615042821602e-01,1.022494362925533196e+00,4.385303120481877093e-01
5.390401892664126171e-01,1.097830615251777830e+00,5.093066144588562771e-01
4.986052650672814779e-01,1.020953734251482059e+00,5.101730388887357748e-01
4.843419987770321011e-01,9.965876059538155696e-01,4.688963314086701528e-01
4.420989207045872282e-01,9.181977055114379782e-01,4.629199089757798924e-01
5.001140095542540021e-01,1.055837233748438297e+00,5.014412736851585617e-01
4.876482319570860646e-01,1.067936112507028579e+00,5.206388694171195652e-01
4.801265325207065837e-01,1.021400852922250246e+00,4.951038918161231317e-01
5.079321689384798111e-01,1.023946731491969242e+00,5.029547210004775559e-01
5.230223011335576322e-01,1.064596536138899152e+00,5.710308226926601449e-01
4.919476807976319033e-01,9.471307332920494426e-01,5.395357837653463884e-01
5.421975756242851663e-01,9.721987044552728996e-01,5.251352952611700875e-01
4.290826627037071517e-01,9.934865047771429536e-01,5.023865460918466308e-01
5.195780374676085556e-01,1.047330229342515073e+00,4.086610729377515572e-01
5.156526505392219351e-01,1.005506029837407667e+00,4.662691502127389032e-01
5.710586959289459807e-01,9.939950900487288799e-01,5.151418352436474279e-01
5.247010619334638859e-01,9.464697665813357474e-01,5.284096261977514475e-01
4.971233194921715892e-01,9.757724114664062531e-01,4.723322195120507327e-01
4.852526893335550873e-01,9.830180750928516620e-01,5.059824813121909237e-01
5.186480523752142746e-01,9.951904768400000600e-01,5.601005538397717531e-01
5.463586072800780125e-01,9.695676853156388608e-01,4.692580608884551197e-01
6.419079018017389560e-01,1.016692789636746141e+00,5.647287839320754843e-01
5.220511986452995856e-01,9.429908641077900944e-01,5.743490956172543349e-01
5.326103044909359374e-01,9.262044826648626605e-01,5.626699614927752613e-01
5.394242518773577633e-01,9.596545757380202657e-01,5.297405355942172989e-01
5.019785299357861774e-01,9.437237923853130095e-01,4.504652565772417350e-01
4.575761031270627610e-01,9.204072412125764435e-01,5.957552986182075294e-01
5.151564771600318782e-01,8.757993357727565931e-01,5.117956493224594672e-01
5.248807861209294767e-01,8.981429551074844309e-01,4.341814256208917366e-01
5.207166134477162478e-01,9.815276286785437065e-01,4.623790155231364274e-01
5.493318080819614702e-01,9.164953521726314500e-01,5.660137536234386424e-01
5.388491188768183004e-01,9.365239622715123557e-01,5.042055771294644551e-01
5.622867390991339587e-01,9.090815195272562432e-01,4.690764071290148274e-01
5.257156585804961813e-01,1.018226858221889852e+00,4.658267523596578696e-01
5.915424432217114559e-01,9.186569792027057257e-01,4.585194572948546043e-01
5.120993130845721275e-01,9.432908246248499218e-01,5.412906898303200265e-01
4.831052674140383085e-01,9.316112699506811090e-01,5.190966081946524202e-01
5.088045631372931643e-01,9.381106176607661995e-01,5.003874721699452799e-01
4.935481001559026693e-01,9.812487258641979793e-01,4.267688965724154015e-01
5.001066322185656610e-01,9.388289050675436842e-01,4.758680348080615574e-01
5.453385674982594855e-01,9.434292748075883139e-01,5.552077963734023403e-01
4.957231219486474272e-01,9.451073280405417609e-01,5.548396696923852955e-01
4.964955653378083089e-01,8.779815445498696524e-01,4.657482044332609261e-01
5.271432321289110101e-01,9.604982681916095499e-01,4.870137970263336835e-01
5.250228874299481818e-01,9.978193180353056579e-01,4.968778986988238722e-01
4.532934625414130614e-01,9.465568745001394779e-01,5.000946773949634938e-01
5.666939259165182374e-01,9.134083337620453324e-01,4.888942948295253998e-01
4.558828672242507540e-01,9.497027453138474629e-01,5.286373725043586047e-01
5.309990422316726022e-01,9.421717289265347794e-01,4.829298070668990306e-01
5.025458983262963697e-01,8.975635732068762973e-01,5.236113085055253968e-01
4.878295450176372561e-01,8.930862030773099036e-01,4.604277891422289826e-01
4.859684708417762455e-01,8.901813883924872828e-01,4.144661850238641754e-01
4.885031301567928086e-01,9.542754933300544584e-01,5.361443344959749835e-01
4.716270344839322282e-01,9.401301900889192931e-01,5.548017359262081838e-01
4.941912969274269152e-01,9.028940931450860630e-01,5.178828653392212322e-01
5.862635310539371369e-01,8.701767166837300893e-01,5.125435229521029257e-01
5.251669542298249560e-01,9.526993036115413149e-01,4.720841631016778339e-01
4.998031575655488279e-01,9.044609838061934415e-01,4.457480674125881004e-01
4.265277649816270888e-01,9.013719401743051085e-01,4.770551700294107800e-01
4.700509886139815907e-01,8.940568121493369658e-01,4.645426771377371700e-01
5.091953903469259579e-01,9.069235053759693299e-01,5.217573979227364545e-01
5.310101803032776235e-01,8.588311093600135004e-01,5.637508008442365659e-01
5.318418710809019734e-01,8.456099043916600611e-01,4.871894218774152630e-01
4.850838695116022614e-01,9.257136379020379779e-01,5.295343662584420796e-01
4.757383476635817510e-01,8.457726581723234993e-01,5.484478476064812424e-01
4.855998491044759557e-01,8.562028733516046097e-01,4.844204386525866601e-01
5.130224273159336157e-01,9.520624196629952074e-01,4.816689463097460489e-01
5.650716703059238677e-01,9.322807214189031688e-01,4.741888614537717039e-01
5.786063712858808827e-01,8.630281524251059988e-01,4.563914097453972696e-01
4.828270263894772207e-01,8.704365767732821224e-01,5.033190844055741575e-01
4.836990578881219527e-01,7.615702594387905311e-01,4.626038733437474182e-01
5.469317038868349856e-01,8.087932666058560427e-01,4.589251649559041302e-01
5.271956766008193407e-01,8.986625907259192525e-01,4.751148216110573363e-01
5.180037984567038567e-01,8.427766464430562765e-01,5.018208981143831293e-01
5.807948624742701460e-01,9.094647044686838822e-01,4.332129520123336741e-01
4.823052163828527306e-01,8.572834912537820040e-01,5.032567835658596778e-01
5.381508446464950968e-01,8.851113958459877473e-01,5.578460075603161039e-01
5.411091540399780575e-01,9.217243873018476918e-01,4.648574799021080728e-01
4.764724851702888397e-01,8.229534175316005618e-01,5.138110740923834685e-01
3.799277484214633738e-01,9.195871859215312139e-01,5.399449615094181754e-01
5.243686363248994953e-01,9.055239083910829878e-01,5.778070631764572473e-01
5.253706107640730982e-01,8.811964176995371600e-01,5.433031007712679772e-01
5.098034360629722928e-01,8.843512024388411330e-01,5.093339745916988237e-01
4.561049195851318294e-01,7.774401009903024740e-01,5.518196775683044120e-01
5.600614020349892197e-01,7.885385360109997688e-01,4.407066322559899385e-01
5.781355700130846875e-01,8.350493218498027392e-01,4.491398586888802336e-01
5.101101962147682745e-01,7.683032234512549019e-01,4.960322673525496273e-01
5.954570210082993365e-01,8.229856181423662598e-01,4.607518356611510213e-01
5.171099373086711637e-01,8.622382795450597159e-01,4.600080933562986085e-01
5.254888222899289918e-01,8.783017632936671593e-01,4.958629357167361751e-01
5.704904264841806905e-01,8.815540269974866394e-01,5.541930860217575416e-01
5.008115502902763527e-01,8.522950652578696884e-01,5.474235793822294083e-01
5.921008313254276789e-01,8.280847085704426958e-01,5.155971602206456117e-01
4.998212310329691044e-01,8.237322559792512600e-01,5.847546331397431851e-01
4.996395290945406797e-01,9.048404350480004910e-01,5.131374205913210584e-01
4.665656932820950176e-01,7.976832835447142944e-01,5.176800926563194238e-01
5.141043716002188235e-01,8.423956119021276390e-01,6.404851467321897029e-01
5.850644312574375672e-01,8.172379800041079667e-01,5.295578006088410561e-01
5.551963114975920766e-01,7.666067783562368065e-01,4.513788835170827740e-01
4.821211990560043681e-01,7.995395361868665729e-01,4.842902571340311768e-01
5.641302103142995517e-01,8.114430993891922350e-01,4.806557298888798901e-01
5.891960402804706787e-01,8.508428764255036025e-01,5.122940376998589285e-01
5.367864313220946926e-01,7.875426594183607687e-01,5.012472933120321050e-01
4.781347146811043003e-01,8.126832861269253083e-01,5.360665749230840715e-01
6.303781313559376764e-01,7.420193493247606575e-01,5.529778610055490207e-01
5.129407314263229045e-01,8.362844321234437217e-01,4.973698749277402631e-01
4.926466275077734380e-01,7.973578424851226476e-01,5.002262058635870146e-01
4.407142618103555010e-01,7.711558963916056442e-01,5.736596630986948719e-01
5.371007567477955602e-01,8.574730010177707973e-01,4.782039848288446859e-01
4.363543895648731574e-01,8.246835428798038325e-01,5.403974057023495092e-01
5.244465526683237400e-01,8.536313780124679118e-01,5.120738274253032740e-01
4.894536531019466064e-01,7.701412461791596886e-01,4.611359181905418936e-01
4.572236636515017438e-01,8.497024559469897875e-01,5.078774270004433600e-01
5.297112283563620849e-01,8.450897497964960925e-01,4.686449537684421740e-01
5.469023318863954763e-01,8.834625770182764626e-01,4.863034361899048474e-01
5.641578081687713686e-01,7.909319545206738855e-01,5.455082567773928970e-01
4.867761595274413544e-01,7.670410249934083158e-01,5.530830724562088019e-01
5.390336967796706125e-01,7.651129025395972949e-01,4.493186643776220790e-01
5.622431910821473755e-01,7.704302516339684992e-01,4.574702740672494383e-01
4.118043594585841238e-01,8.881975616564660170e-01,4.813919085174279688e-01
5.042324619659261931e-01,7.148533334802434913e-01,4.846732022654375860e-01
5.290026312208950809e-01,7.608323742222746766e-01,5.471114496621514167e-01
5.021786608928580087e-01,7.581203348621317062e-01,4.600706587870553310e-01
5.007900383297264613e-01,7.643053667466293000e-01,5.015881496363461256e-01
4.465273935552400153e-01,7.522358877893025042e-01,4.358126760990778115e-01
4.461229487355583001e-01,7.243711726783452765e-01,5.176006857787321946e-01
4.592338658037024568e-01,7.426864602411212823e-01,5.306940703291274097e-01
5.465293003548877815e-01,7.231450592109144315e-01,5.408550964261099603e-01
5.273824158547902874e-01,7.281676136115938780e-01,4.795384820143003268e-01
5.592901404190699921e-01,7.868155081753352986e-01,5.038408255894069043e-01
5.341924310793912944e-01,8.708951318713735734e-01,5.537484658895306389e-01
4.942305486030079686e-01,8.288370034307653844e-01,4.809849070322206321e-01
4.691875615101714914e-01,7.090412713936831146e-01,4.909701787095207548e-01
5.133590544744673911e-01,7.345776808774627797e-01,4.898181698462849010e-01
4.722087811638004951e-01,7.260390700017880228e-01,5.662512658168693536e-01
5.038666332615958643e-01,8.838016862396070872e-01,4.773431709169572157e-01
4.981910790783446452e-01,8.242622884176972198e-01,4.801743645759284917e-01
5.448241913249270985e-01,8.769297959005155629e-01,5.152845332864712802e-01
5.105926176257585825e-01,8.283740680910103293e-01,5.308592917163235114e-01
5.290722907689036081e-01,6.886067269611064745e-01,4.861683890889466619e-01
4.316167139501097538e-01,8.436070894140118570e-01,5.331912804348429846e-01
4.828855048937416572e-01,7.295630369291701278e-01,5.427042098880108245e-01
4.977267136645127099e-01,7.132996772654338624e-01,4.337970874139959743e-01
4.692991122865672327e-01,7.466560908045257738e-01,5.598373768978803788e-01
5.758742858017343869e-01,7.792138036130062950e-01,4.731653292009197487e-01
5.091739484451927034e-01,7.602067403906110910e-01,4.685098632681589104e-01
5.725048534281407253e-01,7.999923978809766467e-01,5.108049485182002414e-01
5.512686064859871893e-01,7.905210929103305695e-01,5.595040489966303099e-01
4.818298261080810052e-01,6.824076657534287049e-01,5.851873870958028689e-01
4.698481977356628869e-01,7.442754373171416304e-01,5.176367032681281621e-01
4.341012665262197756e-01,7.483052830446159653e-01,4.919576745273425700e-01
5.300511722509677615e-01,7.107372203775358388e-01,5.396666122004863952e-01
5.006363169277892045e-01,7.325909715994057825e-01,4.569557580973805933e-01
4.715090468271392332e-01,8.162065055924885293e-01,5.400175691325889149e-01
5.107035843066819458e-01,7.139229329363793175e-01,4.834323030008849109e-01
4.170336321103270127e-01,7.727519011358238155e-01,4.873885145964368393e-01
5.459731950678301526e-01,7.186201274628433167e-01,5.109917062716836655e-01
4.830762791352062879e-01,7.657018079346686878e-01,4.738112245445215698e-01
5.011659394424874403e-01,7.066057550306803492e-01,4.868329662207860897e-01
4.907445932318028059e-01,7.638447424841459110e-01,4.605306399759167557e-01
5.149703594442841537e-01,7.807861684108414746e-01,4.408209711836280631e-01
4.749297380222624598e-01,7.335604606416317175e-01,4.929394628484052854e-01
4.817926740912965022e-01,7.084539987420764851e-01,5.253694762714361532e-01
4.845581891095628868e-01,6.888051190959547654e-01,4.983346791420157351e-01
4.753534026353493092e-01,7.601686448771534099e-01,5.188706903472910525e-01
4.640234034887597558e-01,7.459738325467430986e-01,4.865536937616177227e-01
5.249525934185214071e-01,7.305804157354025552e-01,4.633928744077864814e-01
4.238100800491054754e-01,7.082126683675229462e-01,5.525602102523718973e-01
5.206621253154161133e-01,7.993463363929508292e-01,5.086022444465480019e-01
4.825180951070061064e-01,7.736286088237576131e-01,5.213765149748138539e-01
4.662534549174489618e-01,7.344812336106402162e-01,4.414363059022188285e-01
4.688774708748399966e-01,7.375122218355935066e-01,5.592816989763370605e-01
4.358594325975598260e-01,6.486569566386767294e-01,4.827165685255365157e-01
5.015721064629757864e-01,7.314807586395136729e-01,4.965200513912172431e-01
4.615210133072512599e-01,7.547890756549020530e-01,5.607550211260943218e-01
5.899668827301077778e-01,7.454993511652368010e-01,6.168779188171333860e-01
4.948320299956970869e-01,6.764602046718025674e-01,5.220755729938511003e-01
4.543234798755934611e-01,6.972289804467566299e-01,5.225906049489306149e-01
5.509284636467193241e-01,7.796014261584619520e-01,4.925415223846497104e-01
5.499209755099971897e-01,7.720345996149611256e-01,4.719634365522299979e-01
5.086739156549731078e-01,7.085176791502029170e-01,5.085500449448223659e-01
4.458922035433413034e-01,7.414243702673898317e-01,5.502218146664326071e-01
4.179545758311931647e-01,7.742810463027783863e-01,5.094088993643997032e-01
5.157569534955033230e-01,7.443094183033939215e-01,4.397144114863654751e-01
5.070904531185269626e-01,7.878432141573946668e-01,4.908087817479786508e-01
5.119291753430321723e-01,7.194629793855700228e-01,4.872224326075875744e-01
4.491677504176143088e-01,6.076158784842571325e-01,5.302280209260527011e-01
5.355908505959946497e-01,6.821912884465687332e-01,5.283333880740325172e-01
6.386515702495954017e-01,7.057604105757920854e-01,5.214484396409115874e-01
5.353935663863403915e-01,6.697617727603109028e-01,5.194227034059737402e-01
5.354066653894413719e-01,7.082388498224344575e-01,4.999312169082689716e-01
5.428523774671267788e-01,6.758443341869353471e-01,4.821394140057064792e-01
5.043688649352645603e-01,6.816166513681461980e-01,4.891575373280594441e-01
4.634443577145808679e-01,6.183447795093159893e-01,5.199438768585717963e-01
5.039966984927856108e-01,7.926430411024436573e-01,5.247607704892249814e-01
4.857605794111289899e-01,6.768139026493461552e-01,5.302371415221768247e-01
5.048628254101933388e-01,7.181392113702403934e-01,5.297114949089070102e-01
4.904901196113854445e-01,6.982085780189856150e-01,5.289097721106582606e-01
5.382948395257084462e-01,6.815450526250880214e-01,5.513263069728231436e-01
5.129132251250335672e-01,6.211588521543375263e-01,5.240453972909278058e-01
4.176915827347834620e-01,7.778208717863541732e-01,5.409167573261488560e-01
5.511020203366342463e-01,6.276909709260765080e-01,4.955084116300089714e-01
5.316976608675076932e-01,7.656646745929752695e-01,4.952112486480910181e-01
5.503887356593269997e-01,6.921460482340866527e-01,5.143973698280470686e-01
5.149507995214532841e-01,6.580657557539403291e-01,5.646767429068103583e-01
4.966263452645102716e-01,6.260730345052770707e-01,5.129231812704110327e-01
4.865426665334852685e-01,6.580396075879054729e-01,5.043518193132652261e-01
4.534918938785936215e-01,7.314700152853171877e-01,5.576763534432567226e-01
4.402638699832833180e-01,7.147177518543839092e-01,5.171246643241326213e-01
5.000927271618006431e-01,6.508830002256263958e-01,5.661933115950306128e-01
5.287021543247706346e-01,6.755166658173574756e-01,4.700892542107777405e-01
4.870507011272702802e-01,6.344065612978482260e-01,5.353550400065114623e-01
5.233699074673493490e-01,6.781873674158476195e-01,4.509440702692525393e-01
4.962889809778429084e-01,6.778969503014635745e-01,4.739705654537589297e-01
5.198821923591341321e-01,6.865920851738809283e-01,5.239358744459297057e-01
5.316061233149307341e-01,6.937792176480821471e-01,4.826896078692419212e-01
4.849525210404019848e-01,6.916430259604562369e-01,5.533872886717727813e-01
4.514109678638696388e-01,6.265082517798650219e-01,5.615392181028728835e-01
4.858870047767163136e-01,7.112495382833476931e-01,4.810933523031282188e-01
5.876546532888153873e-01,6.775300049599417562e-01,5.086437101035105046e-01
5.704589027852177141e-01,6.367860087882747377e-01,5.486585948580108285e-01
4.722551156937639938e-01,6.247272677515119943e-01,4.846717130265219553e-01
5.068009585037361875e-01,6.384420319999928317e-01,4.745304921152952438e-01
5.103282229099475042e-01,6.668401941220699625e-01,4.476508863345317057e-01
4.777557937500009899e-01,6.563553941889225252e-01,4.793589678504985296e-01
5.105802574245629222e-01,6.605887687108706885e-01,5.460004129276898599e-01
4.995703612936245874e-01,6.631142079311951321e-01,4.875206616026205309e-01
4.838705810749017733e-01,6.994704041773930348e-01,4.683256752781783105e-01
4.822215640450174812e-01,6.811290380512966536e-01,5.186652392476879259e-01
4.728392560353487095e-01,6.648388539330075675e-01,4.789225548185462866e-01
4.703320810925314399e-01,6.365790639778564630e-01,4.822656649126679240e-01
4.664487409477444668e-01,6.379638966102224584e-01,4.814019617503310089e-01
4.971407837588658896e-01,6.966853760900505455e-01,5.368133293620819257e-01
4.967934801547695955e-01,6.802646641949794404e-01,5.533774859998703555e-01
4.722257210222202684e-01,6.407957750526858121e-01,5.012361395061737390e-01
4.850067357220600450e-01,7.157532598227897003e-01,4.908605222318151995e-01
4.595280379168841245e-01,6.193108283417378956e-01,4.949507901774559127e-01
4.755999059125705641e-01,6.376104603852212893e-01,5.590200394866370326e-01
5.117390111383256501e-01,6.299677969631305441e-01,4.536173613648690206e-01
4.831135185813110189e-01,6.404687602040036731e-01,4.603753774287443479e-01
5.476755732285296663e-01,6.961668845527247962e-01,5.525360730432002931e-01
5.402375198275667367e-01,6.387518148764934622e-01,5.350864171425392390e-01
5.235195134847184795e-01,7.144652412344748571e-01,4.958913333522058098e-01
5.433245206302347308e-01,6.225573847669531036e-01,5.109615195376850938e-01
5.049488501603793811e-01,6.919493354712480393e-01,4.934455898959684284e-01
5.172152676075407740e-01,7.239165751788400049e-01,4.864110152510773277e-01
4.444790566955343358e-01,6.685558559642468257e-01,4.521133546214891608e-01
3.904283486607994513e-01,7.219366150269646010e-01,4.968870979770630414e-01
4.691191359807008743e-01,6.420176462826748809e-01,4.767002375350196108e-01
5.034196042267312654e-01,6.205582580347559496e-01,5.158496856408646414e-01
4.666909622690876835e-01,6.958968745364049191e-01,4.497735847524635400e-01
4.748356712580489858e-01,6.502931979435744303e-01,5.013815522660926005e-01
5.225639669652877295e-01,6.171545482253241177e-01,5.061050115810763472e-01
4.821577354058497744e-01,7.106859308539723585e-01,5.895589290483851386e-01
4.545773952491736769e-01,6.698006675417677025e-01,4.619464151347567049e-01
5.803128502644602227e-01,6.068462946491957055e-01,4.721985438340505215e-01
5.015233990428679123e-01,6.844873789251383345e-01,4.801849249969193933e-01
5.430319144727292491e-01,7.164063784372384225e-01,4.936675094737085212e-01
5.022126612368842391e-01,6.441989488385883034e-01,5.381191766303974333e-01
4.902789575301804148e-01,5.635024572481361904e-01,5.509711651269642019e-01
4.910840513402010554e-01,5.697137016468233339e-01,4.216900386783856702e-01
4.504540751365731510e-01,6.458257011095610567e-01,4.355249339527842989e-01
4.776790010912614348e-01,6.370245165830413780e-01,4.428672597830877189e-01
5.135597658770916230e-01,7.007302314496743900e-01,4.756762584592611476e-01
5.325339026561556333e-01,6.705900180182859938e-01,5.191966440746812461e-01
5.032601737180626422e-01,6.707653951494282341e-01,5.009856033445487800e-01
4.468697697550936820e-01,5.621814228421303516e-01,4.609413487512810659e-01
5.621760715424223287e-01,7.267661245768005651e-01,5.051645877209409718e-01
5.658510370948499624e-01,6.501508484836225898e-01,4.881451026334568954e-01
4.561382216538019674e-01,6.110266520773826038e-01,4.613774445518044054e-01
5.513763733614709395e-01,6.543392591867084329e-01,4.428151633712333335e-01
5.283727233880907148e-01,6.111104122728442389e-01,5.421698688906524399e-01
4.472553607701384437e-01,5.988095298273226064e-01,5.266133719455211581e-01
5.159714941354864859e-01,6.883940658243460353e-01,4.936561227411743746e-01
5.462814699514048078e-01,6.167312316950674944e-01,5.447986705360515769e-01
4.722960148717347817e-01,6.496350431164719108e-01,4.575617058159138772e-01
5.662052658012941553e-01,5.929008316780974841e-01,5.020080785151987968e-01
4.826725044791374541e-01,6.581843656053465441e-01,4.703170185244984203e-01
5.556549279617024606e-01,6.383947767117097438e-01,4.553407796208273628e-01
4.917094854744730181e-01,6.770997125492799196e-01,4.174359162425118619e-01
5.014020021402345595e-01,6.108660684758937531e-01,4.918878359319787119e-01
4.914273164040939279e-01,6.010390513618566466e-01,4.782688418806350650e-01
5.119314037813198492e-01,5.781547445708780097e-01,4.389004465439980684e-01
5.198759046610672563e-01,6.108823341040552357e-01,5.087044490443722866e-01
4.612583900168055751e-01,5.668423940736001532e-01,5.384612905962044005e-01
5.163345819862259489e-01,6.115748346699367843e-01,5.595250767001663794e-01
4.889985753985062744e-01,6.348767371210283228e-01,5.111985339923582616e-01
5.057138522682312898e-01,5.950437072175187581e-01,4.844527754764995087e-01
5.872354227034998209e-01,6.572355619325650489e-01,4.988696630385375252e-01
5.228410346933587416e-01,6.184529025905071142e-01,4.991302207950722991e-01
6.424645435729680054e-01,6.330516004562060095e-01,4.904600329578008289e-01
5.093408489253489213e-01,6.041221826203510004e-01,5.166786078284328898e-01
4.574703199675119181e-01,6.412914847722243072e-01,4.606189300851853408e-01
5.698644891501506438e-01,5.788581076290228999e-01,4.828283854855419110e-01
4.170523828876426253e-01,5.423449230595034365e-01,4.940075880980707157e-01
4.636943050770443997e-01,6.885686931273393707e-01,5.896793318221635882e-01
4.617217450967657233e-01,5.455974070898450545e-01,5.571408401472375260e-01
4.953828276304522715e-01,6.019748606969760329e-01,5.117595994978038076e-01
4.889310506667125522e-01,5.973431645659734723e-01,5.715279817268561491e-01
5.567903314807900461e-01,5.388465836959003274e-01,5.072494817276665957e-01
5.464597847905195982e-01,5.816955811667089415e-01,4.956289458197442044e-01
5.528419987194053142e-01,6.386466952297967792e-01,4.970582562722223874e-01
5.026381209395228700e-01,5.750446895295645566e-01,5.387814116096645289e-01
4.005490792041960790e-01,5.146766781650154998e-01,4.743126356717054515e-01
4.846736565437392286e-01,6.098529630242875976e-01,5.272279257061565083e-01
4.837058748390856699e-01,6.019994273296030984e-01,5.280298802169028916e-01
5.385625926207592284e-01,6.403203516687030472e-01,4.839380669970603788e-01
5.171406111830739727e-01,5.543885581037701904e-01,4.948385068638043172e-01
5.441954097713930238e-01,5.900937293172756615e-01,4.839167606610896843e-01
4.804008668488762845e-01,6.787797279846222720e-01,5.124163723841481666e-01
5.311815726705405583e-01,5.508017256086504831e-01,5.661188644347017185e-01
5.284336141774761408e-01,5.678077076291576653e-01,4.655860101755963099e-01
5.147116114653925711e-01,5.565081006233576488e-01,4.989288856090070001e-01
4.995187686772237234e-01,6.205969432507829620e-01,5.289704538085059360e-01
4.836141417957267596e-01,4.935927572004162323e-01,4.513678359049781430e-01
4.476803620305302989e-01,6.156391122004523098e-01,4.553941476105934916e-01
5.483285769852375147e-01,6.514721904596655344e-01,5.056155985678375542e-01
5.165860386758341916e-01,6.713229987206612570e-01,4.900073156423066512e-01
4.739326999405440444e-01,5.600599493935560780e-01,4.893269036956910956e-01
5.027925506395890531e-01,5.825584296983596921e-01,4.840331538460437844e-01
5.102817638509452580e-01,5.697085022298216117e-01,5.208754152453881625e-01
5.258738416782707814e-01,6.110886666034455184e-01,4.532284527277422592e-01
5.287886856218207976e-01,5.982289682552169863e-01,4.943210469159492471e-01
4.615164615441456619e-01,5.993308975308722086e-01,5.437148213207179115e-01
4.070887999036714167e-01,6.054217451993895160e-01,5.285656285414179756e-01
5.867505271607839079e-01,6.299496820834920019e-01,5.164309173747870796e-01
4.742952925655599672e-01,5.421499053772481647e-01,4.695150145555065380e-01
5.111929405106132585e-01,5.959284299948010011e-01,4.835682623872061270e-01
5.468252052693448606e-01,6.640774806320492996e-01,5.213660207075385689e-01
5.052904871250416541e-01,6.119391727277867510e-01,4.752721871189676262e-01
5.557633605912424279e-01,5.944189558129314710e-01,5.264994004188092713e-01
5.183592032693926654e-01,6.199022010298594898e-01,5.183754217915792495e-01
4.626213350981281391e-01,5.542162991876546929e-01,5.265709698766045666e-01
4.689073258897566987e-01,6.097258814050789955e-01,4.548176524669093612e-01
5.123692818907175095e-01,5.842877952151315224e-01,4.293312804322969023e-01
5.270337566447735878e-01,6.846219706031821950e-01,4.915019030772470043e-01
5.128098579374517074e-01,5.655173996624834887e-01,4.909952390952369017e-01
5.546814842774108190e-01,6.131883978758617681e-01,4.910179342321212559e-01
5.182250648282933359e-01,5.494066139313682484e-01,5.729401602766209800e-01
4.907666129948854428e-01,6.226258138170306378e-01,5.301047659969606585e-01
4.589022720150474632e-01,6.127861628913060521e-01,5.465905373965724845e-01
5.513332277992732955e-01,5.448708276037492748e-01,5.106410919846843255e-01
5.322878798184427218e-01,5.021264934402318580e-01,4.809752026490919929e-01
4.915382498685655355e-01,5.843536285841037792e-01,4.699747891956059243e-01
4.635571040594554937e-01,6.683893630997953528e-01,4.827840702665225914e-01
4.984994301388060989e-01,5.862473663947596059e-01,4.994648686561652950e-01
4.448089301533827422e-01,6.608080924309656101e-01,5.717589628889360176e-01
4.370763585164115783e-01,5.985403699361370178e-01,4.773937561068888336e-01
4.979350922247735012e-01,6.080172786951988373e-01,6.087888886981777103e-01
5.655428314501009801e-01,5.085511567896423557e-01,4.215553213774403951e-01
4.460125129434760471e-01,5.379403208280643112e-01,5.423774692664214969e-01
5.702904890256460524e-01,5.455158870736125376e-01,5.059653909756848256e-01
4.675684596792778480e-01,5.698742770879997588e-01,5.873621083800814047e-01
5.187494757022345082e-01,6.291619242739755480e-01,4.430662149546675810e-01
5.003032347435225624e-01,5.559044322635033897e-01,4.711542524670443433e-01
4.710841474827509590e-01,5.094063278028463371e-01,4.212152498553564106e-01
5.162119285642263744e-01,5.961029844117441412e-01,4.674244988808028411e-01
5.131415411061350795e-01,6.395477876540796025e-01,5.825745053509829852e-01
5.390810554676680466e-01,6.079320435568991154e-01,4.774298983740620783e-01
5.583423511761597124e-01,5.960655497201493569e-01,5.099201481189471474e-01
4.794826202299863338e-01,5.414172822386634776e-01,4.878490529023871147e-01
5.061927581575054180e-01,5.469297494964313611e-01,5.180454262360035811e-01
5.047765003998399003e-01,6.072943229466407633e-01,5.108866759993799800e-01
5.188856829780289504e-01,5.844366492376563693e-01,5.607131123832062025e-01
5.669520491799834305e-01,6.045191552162003656e-01,4.959869164610952730e-01
4.979920908958986314e-01,5.699083545358877290e-01,4.969034759825921577e-01
4.723418845221545870e-01,6.121949516882592146e-01,4.615698375281532262e-01
4.577361541666097877e-01,5.907202683637221563e-01,4.160568424876539551e-01
4.534193703955174404e-01,6.077074268632060017e-01,4.932046927892684285e-01
5.235413246136818577e-01,5.725219110807798772e-01,5.103708534403778030e-01
5.374876453519499275e-01,6.064292982924980313e-01,5.424093484921138630e-01
4.462018982213045715e-01,6.640034482545962291e-01,4.765997649063266617e-01
5.219575269247218596e-01,6.031051439168356731e-01,5.124475602390577977e-01
4.637080772961509334e-01,5.671494734173548879e-01,4.952616218945301019e-01
4.321763416878503516e-01,5.716202422730561894e-01,4.972783261201684790e-01
4.845046692525885601e-01,5.466819776683916610e-01,4.929182108272718299e-01
5.160898591157913051e-01,5.592975159311838196e-01,5.049866267494625971e-01
3.676286086163175204e-01,5.526532976424055610e-01,4.637330355141205396e-01
4.640335485297594764e-01,5.293590609638031408e-01,5.837913341785665455e-01
4.889298820512895105e-01,5.802787403486491247e-01,4.919844904395350160e-01
4.362248242692616795e-01,5.616949885116522267e-01,4.975478648149777583e-01
4.673052040114809014e-01,6.105180756545467435e-01,4.389146952050280159e-01
4.388415560529214665e-01,5.460125484617786018e-01,5.456201206425823624e-01
5.471571526295273546e-01,5.104459398159068018e-01,4.761298815841721321e-01
4.906433257160665029e-01,5.858043140344374455e-01,5.645333801086451775e-01
4.629568265649668390e-01,4.983507556505884506e-01,5.124708658098535707e-01
5.292463904668718300e-01,5.390422126813519954e-01,4.273332674403462206e-01
4.202242093647640675e-01,5.285334518693921568e-01,4.772843495987620366e-01
5.312239877062431281e-01,5.238505262206236690e-01,4.177394054428378301e-01
5.530984484895953290e-01,5.440244304532420028e-01,4.888934767169307305e-01
4.892989668570017492e-01,5.640957701397508739e-01,5.270505133614773463e-01
5.394088868007179682e-01,5.698602204773320912e-01,4.484289623742488406e-01
4.656045934397100572e-01,5.461167165575170346e-01,4.194388240302189264e-01
5.077878267785624899e-01,5.428063243023781848e-01,4.923951470732239044e-01
5.412439021064470168e-01,5.617868419998232055e-01,4.901060424886581890e-01
5.613635461535551041e-01,5.009760505750567861e-01,4.693284893590791707e-01
5.111513434229857378e-01,5.511549325432569812e-01,4.993477796644588684e-01
5.166275532653156199e-01,5.801924000348421817e-01,5.219471894387578415e-01
5.340345028210855549e-01,5.376542626441983552e-01,5.298171915421684419e-01
4.815976288110313530e-01,6.069539569474472485e-01,5.183160790702724396e-01
4.971100632050280965e-01,5.612809989448008796e-01,5.007333425815135852e-01
4.629787259754646334e-01,5.253224681280160846e-01,5.205348710719992500e-01
5.154983000212306488e-01,5.910635137562203489e-01,5.795893830517067080e-01
4.850512115085398590e-01,6.547269895223740699e-01,4.974036666990985789e-01
3.954099575112005605e-01,5.835634653440663344e-01,4.980341177994023205e-01
5.628807242506349562e-01,5.960436415400333088e-01,5.239853071050689648e-01
4.680780837599202160e-01,6.592922479686412762e-01,4.994440538606876312e-01
5.927474588995012006e-01,6.525517168987611250e-01,5.061534074401931038e-01
4.489484153180786641e-01,5.562457471037645096e-01,5.186975469738266398e-01
5.001890822425298921e-01,5.346465157252211498e-01,4.610031472092314120e-01
5.119059033847344065e-01,6.185020325964282195e-01,4.427903834947203299e-01
4.969508517026507977e-01,4.903972895134320331e-01,4.852003494141040596e-01
4.378084572560536625e-01,5.316378199592618481e-01,4.578903366636037364e-01
5.143901706999181034e-01,5.347136849973391781e-01,5.025369600496006894e-01
5.197207511495661736e-01,5.764640017826946350e-01,4.889903694666124512e-01
5.421058521739496872e-01,5.476869629397715933e-01,4.910149309648141336e-01
5.423790456629873358e-01,5.417624091835153699e-01,5.323559642584023699e-01
5.184252512069589258e-01,5.330017796032539001e-01,4.767048843951210424e-01
4.329525434341439105e-01,6.159285824982413393e-01,4.681514295041375173e-01
4.760909411704246086e-01,5.340408214017509092e-01,4.905282930707484668e-01
4.805083088601805885e-01,5.890018564913530597e-01,5.049833924747137992e-01
4.902168308082671122e-01,4.936485628071548559e-01,5.041992825033110304e-01
5.246664720549718552e-01,4.938650826418035100e-01,5.132656101064140275e-01
4.609532455574693044e-01,5.885049950810390396e-01,4.543505317581435499e-01
5.617891676355908359e-01,5.644194109507840729e-01,4.722694121779578702e-01
4.880715557490959422e-01,5.856794055008102129e-01,4.851057868241395177e-01
4.843093950841420026e-01,5.448208827760111506e-01,5.169442976758716890e-01
5.728276642249521267e-01,5.254700890749777198e-01,4.968198218932246557e-01
5.686628259906796323e-01,5.476603266642481316e-01,4.968607796414435396e-01
5.441590545872986295e-01,5.888335715960494321e-01,5.209968075242109586e-01
5.160873617166268357e-01,5.320029169334162811e-01,4.672381477143283668e-01
4.400232517524064191e-01,5.425385309781656229e-01,5.018121248895146547e-01
4.996080435805030917e-01,5.214877466654396221e-01,5.121451580204227083e-01
4.177565881154902683e-01,5.539101653999016772e-01,4.537829364928167575e-01
4.433588233955522151e-01,5.710640620366246312e-01,5.535969012219068563e-01
5.021553114070133050e-01,4.944358087319974393e-01,5.364044353630371686e-01
4.769216114208093549e-01,4.944628628869094378e-01,5.331241632841381417e-01
5.366787806108654912e-01,5.289469071421498692e-01,4.693528839329660363e-01
5.414769257174186778e-01,5.461018653576520387e-01,4.723034797678342112e-01
5.483597289346766601e-01,5.002723520392688972e-01,4.296001874597013548e-01
4.619013644850329947e-01,6.277410079891065919e-01,5.653707544749199121e-01
4.440563078662617125e-01,5.832881865510423092e-01,4.684236578795076822e-01
5.209832051212347492e-01,5.353687225652199455e-01,4.843162265648696119e-01
4.756390533677550270e-01,5.727357441998398579e-01,5.390783826157262704e-01
4.935835152290230510e-01,5.333262462219990896e-01,5.636930202219915254e-01
4.870567997073408373e-01,5.189748966060158120e-01,4.649312305366093412e-01
5.733523252296195416e-01,5.831330124900374612e-01,5.342358726121079204e-01
4.597786052059947282e-01,4.857814727532679400e-01,4.024566772813510940e-01
5.371753500102640633e-01,5.648761471999461659e-01,5.243002557605676017e-01
4.582849195204909409e-01,5.102477056316169213e-01,5.477427059183820335e-01
4.687635476071405627e-01,6.120966406095453838e-01,5.307927786999550035e-01
5.301779041905162471e-01,4.804062484360265284e-01,4.742923075053543935e-01
4.806839753101099233e-01,4.985776463627259458e-01,4.436412303305466986e-01
5.656009444583958157e-01,5.461520793027259124e-01,4.983359559867366340e-01
4.904065029457851943e-01,6.361037072893255262e-01,5.433505259044211222e-01
6.117799567069611699e-01,4.749929372985417508e-01,5.042842250056378539e-01
5.096535468924114909e-01,5.094314108584787615e-01,5.109031774452221786e-01
5.259158821407575735e-01,6.059778012970327143e-01,5.566972478090894683e-01
5.041733379749026023e-01,5.452643221351500813e-01,4.855760151761416843e-01
5.036928059640262134e-01,4.898179826419550853e-01,4.730434439802915225e-01
4.948148176122483810e-01,5.103743832131456548e-01,4.548333295636097784e-01
4.670400884337602698e-01,5.609819844415621093e-01,4.939297337586325831e-01
4.818893290708750610e-01,5.096273077841479981e-01,5.327907284090234175e-01
5.196045855798754332e-01,5.395388623014357732e-01,5.175717632282378355e-01
5.087277709556001781e-01,5.624033919648113722e-01,4.663328962571232084e-01
5.154611419000516559e-01,6.092756027140577846e-01,4.457369441415227618e-01
4.988769277185350348e-01,5.317729399555003456e-01,4.723833050206224238e-01
4.119183482320213363e-01,5.627584284666763415e-01,4.916409077325064603e-01
5.261528072042339632e-01,5.654576787594084442e-01,4.867135181579340109e-01
5.255439677279890587e-01,5.687571820861020422e-01,4.524296868985052122e-01
4.819677351831837542e-01,5.882915826743501109e-01,3.928917572733735541e-01
4.952311441702212380e-01,5.613462971010269031e-01,5.727309159501202673e-01
5.006647852088059736e-01,5.523023776510276317e-01,5.143227476903295958e-01
4.596453957338623719e-01,5.590310504193819474e-01,4.748275898256104077e-01
4.939114463150576229e-01,5.385185659752439458e-01,4.465887605110921421e-01
4.942137266966781239e-01,5.298070222382541550e-01,4.530063477161761498e-01
5.112532717210727107e-01,5.316174033021254797e-01,4.991960220098663470e-01
5.087257611314047745e-01,5.732591893024284735e-01,5.131242633107339080e-01
4.389234882340147248e-01,4.675907669094453434e-01,4.800713359476275199e-01
4.717537636789118083e-01,5.076510242047941324e-01,4.346616835633738685e-01
4.891534347313876152e-01,5.306947843269500531e-01,4.560054320057767008e-01
4.798187900800546246e-01,5.853327058937735083e-01,4.958246691980749410e-01
4.391123429542081458e-01,5.374309086769577526e-01,5.041589964054591366e-01
4.955685268743695304e-01,5.184388619280840826e-01,5.548024874874620815e-01
4.859044477553586816e-01,5.264344105924270156e-01,5.162184597362722283e-01
4.591089013955798048e-01,5.402886793245958996e-01,5.458728620802454357e-01
5.342290883462516016e-01,5.472212718702527123e-01,4.919209352043134587e-01
5.370132823436484237e-01,5.473424315002384244e-01,5.084466858204417239e-01
5.067233629419208851e-01,5.777997424634497836e-01,4.552748613705250857e-01
4.788066248046480289e-01,5.410929152541810172e-01,5.261922800061107353e-01
5.117008742653172959e-01,4.437100019245733273e-01,5.933833442455662688e-01
4.304010009205855303e-01,4.896433889116958982e-01,5.111545307214721001e-01
4.654680835629233515e-01,5.784006600137715504e-01,4.985371135578814394e-01
5.159347554573163741e-01,5.580865544780960752e-01,4.432165377998616429e-01
4.707461365476901527e-01,5.743132650898820080e-01,5.010677317975346101e-01
4.502476249703495914e-01,4.997664863392664580e-01,4.595488453000219908e-01
4.747198730397675925e-01,4.936754053981797230e-01,5.347208470665835156e-01
4.961481753486685076e-01,5.521178748493196231e-01,4.803897162543439014e-01
4.406370882985805038e-01,5.111586885323604612e-01,4.912992363225924808e-01
5.459798291368279655e-01,5.746392135792089961e-01,5.093029096529294586e-01
4.898969890447355535e-01,6.250383005786022128e-01,4.189655217032355328e-01
3.931337002075931397e-01,5.675626614380455681e-01,5.564267224538801404e-01
4.818720534949209600e-01,5.363272301195864955e-01,5.157868611606944986e-01
5.207159000131571513e-01,5.279276940138605267e-01,4.271416867984760279e-01
4.427460486715991683e-01,4.947685848628062821e-01,4.795756446260293626e-01
5.568239067749418680e-01,4.956642558428610568e-01,5.091115731599756833e-01
4.567810180644394369e-01,5.683393561907691405e-01,5.216224075282737127e-01
5.229465272829114664e-01,5.063488615315632213e-01,4.687119649079986572e-01
5.542292379246820389e-01,5.723116316688970917e-01,5.114344839246456331e-01
4.696896271522004174e-01,4.901800055074860829e-01,4.635999388643307628e-01
5.190675130141270133e-01,4.960717157067109362e-01,5.199797686820636367e-01
4.725977575875743852e-01,4.928773902637201831e-01,5.011636777653886154e-01
5.189169830795806737e-01,5.426730309648368777e-01,5.042703237814009087e-01
5.343290230349538872e-01,5.175136373296618242e-01,4.416725514985555545e-01
4.923383364229170778e-01,5.350792413560543359e-01,4.567410674163761009e-01
6.050195429280055270e-01,5.556658205961106933e-01,5.287050252732414801e-01
4.526938653197597473e-01,5.412425707432765298e-01,4.737079907969969361e-01
4.705361767308738896e-01,5.341142770087873304e-01,4.656782092521603023e-01
4.668656244605057792e-01,5.547312263050839798e-01,4.839527485042483534e-01
4.789483956854759805e-01,4.737871938624994561e-01,5.263392484046947040e-01
5.606958052847580420e-01,5.905205403652330487e-01,5.188608816465686280e-01
4.937816035800673964e-01,4.443785045312413362e-01,5.025440412095769638e-01
4.412814128523454005e-01,5.752340068265821005e-01,5.448041054596108879e-01
5.967765727690030886e-01,5.132244027351260396e-01,4.598781438317636749e-01
4.904660800370393425e-01,5.646757401277445743e-01,5.437246915951963189e-01
4.954899439391663440e-01,6.097104145777634265e-01,5.105980857672977047e-01
5.213767214886608770e-01,5.088083187026554155e-01,5.340213246748999332e-01
4.316604020751567128e-01,5.179283147588710223e-01,5.311059901062454847e-01
5.482928274677950631e-01,4.587986869628617459e-01,5.237001194182477892e-01
4.276565861514075584e-01,4.465290351226013921e-01,4.962168811425576864e-01
5.166743322018367834e-01,5.604324326921136246e-01,5.105322918264538767e-01
4.985942145895324584e-01,5.359994707111189749e-01,4.794576302924316580e-01
4.984390866463069836e-01,5.528701101434512211e-01,5.437132963597659518e-01
5.010941147886655012e-01,5.559790679015705894e-01,5.555245204088917754e-01
5.269163962635671217e-01,5.880199841109174930e-01,4.616120194708039914e-01
5.832030230398395076e-01,5.360018857258004310e-01,4.755963244140641311e-01
4.947837218571689566e-01,4.761553147477412540e-01,5.027104783248421693e-01
5.501035330563086578e-01,4.591993803005655073e-01,5.346384224733100599e-01
5.090591586480283093e-01,5.619356333402422132e-01,4.936128257917158924e-01
5.266471399092065298e-01,5.965723139154925914e-01,5.445345179211905640e-01
5.278309755578685092e-01,4.824349771116806518e-01,4.864721582252224952e-01
4.603468701529832008e-01,5.089560880786646591e-01,4.607066256249238156e-01
5.812818059920810132e-01,4.426675911814406117e-01,5.503372958194765463e-01
5.076119694469253263e-01,5.815589191502015254e-01,4.461651748398766659e-01
5.310694222037791734e-01,3.936959125475187893e-01,5.055912334804945063e-01
5.397915380199725943e-01,4.598115760781099626e-01,4.879487158900925881e-01
5.539282657098862916e-01,5.947358583555063527e-01,5.039515016663438374e-01
5.246835103876381634e-01,4.929628884457542548e-01,4.905668494162556126e-01
5.907123564164576957e-01,5.692335693315029310e-01,4.854302930771016156e-01
6.194249407884105940e-01,5.210418265029999052e-01,4.734346159495502193e-01
4.830420952841008586e-01,5.620476731060151110e-01,5.101926747069526202e-01
4.978541971899179130e-01,5.312489606814387866e-01,4.726658063236430785e-01
5.313766355051261492e-01,5.090534469390464167e-01,5.170041652904711071e-01
4.123233969188779824e-01,4.973156224678197401e-01,4.816108887144413542e-01
6.219275548901117556e-01,4.618445450265986074e-01,4.759471425197197014e-01
4.532449304329221884e-01,5.726428138800435663e-01,5.051173737615705095e-01
3.901984213890677400e-01,5.433769843528406529e-01,5.431942660765001207e-01
4.525644074097472380e-01,4.872761012000892955e-01,5.334297458895996824e-01
4.923360512040023118e-01,5.145134605795210758e-01,4.402878468509582310e-01
5.262045025967810874e-01,5.706433225913439822e-01,3.520233673833467747e-01
4.355724920082761908e-01,5.029551616335093955e-01,5.410565618729545889e-01
4.678900435756589982e-01,5.379448392619116115e-01,4.745702693510167602e-01
4.695661709107449289e-01,4.884110251924593249e-01,4.989296242397656123e-01
4.686359402377350269e-01,5.567129063374424147e-01,5.159743835008123725e-01
5.360972143461089079e-01,4.850067266947062361e-01,5.576923248161989033e-01
5.025110362205427172e-01,4.810009771208189622e-01,5.753766488529435952e-01
4.587030545356632349e-01,5.263763588193237641e-01,4.996745965956723712e-01
5.425437842418217027e-01,5.381679034186115373e-01,4.167195476295499912e-01
4.423079098247395535e-01,4.899964083638177481e-01,5.464095521103508046e-01
5.019999003374242541e-01,5.662088925874911860e-01,4.495166647110586666e-01
5.538596434933397150e-01,4.784057165582936144e-01,4.552703039223712222e-01
5.338422473552453251e-01,5.519145998536144626e-01,4.873302167912046956e-01
5.293392418409882394e-01,5.165813033431198020e-01,4.867115786869730121e-01
4.528221486303853904e-01,5.240006495605354919e-01,5.187711920287489953e-01
4.915896914169270437e-01,5.555489074950891171e-01,4.578316619495607087e-01
5.350258725770449253e-01,5.410366470863434696e-01,5.343540667289102819e-01
4.816894482557166901e-01,6.298568028443717326e-01,5.099410995842229566e-01
5.089983269295303980e-01,5.387741899264971712e-01,5.019471343765258275e-01
5.476302466267271019e-01,5.272442067007729882e-01,5.004622364205750795e-01
5.091334334942808626e-01,5.250936777342770645e-01,5.286750707595606613e-01
4.818767111893720312e-01,5.677243502137985232e-01,5.179598575974809771e-01
4.679741837993698916e-01,4.960908783667418720e-01,4.865064480780684764e-01
5.406748010920755521e-01,5.637315015887814917e-01,5.017285715619146380e-01
5.507987136585910104e-01,5.782110887199033433e-01,4.660123907290995016e-01
4.933302082106900133e-01,5.508440589350870331e-01,5.307095749612186220e-01
5.727527113772066247e-01,5.579231255300912684e-01,5.201731866620105116e-01
4.233787746048927603e-01,4.747572182533904006e-01,4.339194317713382931e-01
5.907396638540697298e-01,5.764721268715848890e-01,5.836156998390753525e-01
4.929909182318324978e-01,4.369854972522965730e-01,4.297099789620250077e-01
5.388928440105307249e-01,5.449117599926658340e-01,5.115648291076151377e-01
4.608749778394402585e-01,4.981989072847906042e-01,5.177336916991533977e-01
4.997600588962889945e-01,4.920794363241787761e-01,5.093218348230209580e-01
4.525885929162404842e-01,5.293240898145554763e-01,5.151910524766520894e-01
4.555732159544951809e-01,5.392812813565924790e-01,4.827767800181449465e-01
4.968849716358226809e-01,5.240718774120860513e-01,4.779289868390241280e-01
5.170512546929374453e-01,5.404044723759302560e-01,5.356162053274322599e-01
4.737728762785869963e-01,5.154693027114638504e-01,5.205587595514500343e-01
5.532503218509894349e-01,4.607035726671570020e-01,5.081431205196097478e-01
4.642441742847560060e-01,5.213255528311955267e-01,5.175483606300135264e-01
4.275794115163665809e-01,4.976872985249702341e-01,5.651898894960529773e-01
4.030134909190036252e-01,5.230473248516744889e-01,5.356761247249774982e-01
5.032229743226539487e-01,4.972253069394784175e-01,4.477302992887571831e-01
5.015133709647926485e-01,5.002831496440395265e-01,5.102423894490411005e-01
4.639509612693711316e-01,4.885394581050102603e-01,5.464245955299198432e-01
4.600602940048804657e-01,5.084288445683841084e-01,3.838947653404834459e-01
4.551035628252105281e-01,5.469694749174049964e-01,5.115776307438332227e-01
4.839446923912864018e-01,4.884621231754321391e-01,4.565882628674699517e-01
6.238044149239913017e-01,5.187393419018483387e-01,5.129053590301425603e-01
5.235805408145370876e-01,4.778571360875946139e-01,5.483960986710947338e-01
5.366306045328068652e-01,4.814866423794909589e-01,5.560969117407889017e-01
4.777512816747691016e-01,5.140817836919375772e-01,4.694996230795580039e-01
5.555587978701119756e-01,4.746482179060009798e-01,5.103244657607657331e-01
4.573800200550712236e-01,5.202836953983958068e-01,5.651989200370248767e-01
4.905697261772329343e-01,5.194581637711119804e-01,4.972183993696918658e-01
4.970657583496400078e-01,4.856279790377969197e-01,5.427226461096693599e-01
4.856929914201289500e-01,4.849755491457399814e-01,5.617387396178586956e-01
5.342658475987007716e-01,5.608708277198496406e-01,5.192018614149324085e-01
4.908220601941972183e-01,5.332269448483303309e-01,5.035058100355592758e-01
4.924854239085079688e-01,5.186381326516705803e-01,5.046118170998693531e-01
5.289940029928722476e-01,4.158481841253107159e-01,5.171589137164633865e-01
5.068217335333001783e-01,5.055261533481857361e-01,4.966395564306203547e-01
4.079482723520677645e-01,5.067764046332531302e-01,5.798267710088191862e-01
5.026208474596419729e-01,4.977190373188773997e-01,5.550794913606004188e-01
3.551396820508578300e-01,4.737918687930164907e-01,5.137943550488315303e-01
4.750905306105091541e-01,4.859228174599243277e-01,4.480746809340441228e-01
5.042732100589290001e-01,5.687828629750500964e-01,4.849655565379343281e-01
5.091028316408077181e-01,5.220496989421565814e-01,5.165374035960841326e-01
5.759637204417931144e-01,4.938623616562498597e-01,5.184417248375423615e-01
4.479610187053950088e-01,5.306604371006342635e-01,4.922638723324661569e-01
4.274682158667383325e-01,5.796132325013650943e-01,4.401181183521822859e-01
4.947424219362072106e-01,5.394808739412993992e-01,5.362607282033092782e-01
5.285540438928483242e-01,5.286319296462484996e-01,5.192059572249093646e-01
5.490322177506749002e-01,4.561642296489827331e-01,4.422586159692213914e-01
5.751657469906080733e-01,5.089629915399003224e-01,4.255122867697362921e-01
5.419989575421935157e-01,5.419690700317937315e-01,4.821876542062154547e-01
4.750585487328858325e-01,5.666650590063423421e-01,5.608010622104321330e-01
5.370394383662376869e-01,5.906159908935525449e-01,4.918208479616871243e-01
5.083872400728877139e-01,5.408323075691712223e-01,4.620281957801707917e-01
5.231858334146103351e-01,5.153997394364554507e-01,5.320441625321296053e-01
4.846100834554270542e-01,5.407281935693520891e-01,4.343534895340239177e-01
5.257726763900872902e-01,5.654075325313709932e-01,5.570842927800564448e-01
5.452259377149314412e-01,5.885405791884742444e-01,5.506263767769992157e-01
4.629587841332848952e-01,5.135337141536203687e-01,5.095116999235753674e-01
5.714066856775154024e-01,5.143434004705761398e-01,5.297733003925514383e-01
5.750335376754057704e-01,4.446857684384922238e-01,5.314110358749964957e-01
5.348485615632835311e-01,4.446849809151193766e-01,5.533713034691064570e-01
4.956438549356583234e-01,5.257021149085243650e-01,4.579802457703110452e-01
5.436760826464089869e-01,4.037100327713082359e-01,4.774184677231402274e-01
5.727167672531454645e-01,4.224101899821350870e-01,5.246943432202834101e-01
4.976393201508982345e-01,4.867035819138726960e-01,5.359526332382221758e-01
4.618717107201411043e-01,4.627463780274010396e-01,5.337838443032688618e-01
5.327385762648619849e-01,4.889465034996011150e-01,4.531417364105044254e-01
5.375529696054106576e-01,5.226646091391302651e-01,4.460499400309148599e-01
5.570720858558982913e-01,4.939359192547105870e-01,4.517366804723542129e-01
4.928475695096403153e-01,4.410556785764347953e-01,5.596347507524978004e-01
4.103235289029884547e-01,5.336978560765117674e-01,5.488498171779532253e-01
5.477306730376779731e-01,4.562850682485865561e-01,5.290245892563568697e-01
4.765784956379890414e-01,6.019076854836470369e-01,4.892158650851721746e-01
4.639759440922088807e-01,5.117752087120572835e-01,5.732126663033932923e-01
5.030798736985799824e-01,5.381678348615651641e-01,4.797228420856667341e-01
5.474612467770882951e-01,5.023731542408117479e-01,5.090270063936730427e-01
4.757124849003450118e-01,5.568249227960263559e-01,4.767783453613515521e-01
5.831170398246102726e-01,5.912873334198049946e-01,5.212560882342097690e-01
4.442779344646971551e-01,5.061798122943719225e-01,5.110814774819294470e-01
5.661814367034448958e-01,4.950881977245789045e-01,5.611036634946351409e-01
5.567223822415151568e-01,6.021804780658990275e-01,4.986778594540240417e-01
5.287842687638134587e-01,5.473616081061362104e-01,4.852457129083977416e-01
5.181389744316037271e-01,5.917943019708673535e-01,5.096456542127023592e-01
3.946546512829221531e-01,5.216061903702368108e-01,5.421799987600633974e-01
4.785972552610293085e-01,5.234903037195620668e-01,5.390211529630009046e-01
4.665676852263224705e-01,5.288121788794525324e-01,5.432591095909381496e-01
5.539033717546589797e-01,5.835897086652129806e-01,5.705770643206823367e-01
4.974304107278906262e-01,5.086118398114046757e-01,5.495481185945674252e-01
5.281881936105604636e-01,5.738276924783312083e-01,4.625934818214520461e-01
5.102674782906617690e-01,4.851400236813451783e-01,5.198550699659715280e-01
5.079264574355925044e-01,4.711434724339521041e-01,5.376292130606363795e-01
4.769023299684155837e-01,4.588596623611967962e-01,4.650010965753024750e-01
4.927114189881423578e-01,5.730267947439223741e-01,4.622034025569414228e-01
5.547927005865207484e-01,4.970435012373255468e-01,5.126323788689930439e-01
5.226085155776863944e-01,5.214086130478712278e-01,5.018689156449518407e-01
5.050058875768881350e-01,4.823550735351056495e-01,4.804836753869842769e-01
5.191324824583608555e-01,5.448543598626622853e-01,4.797928172947849013e-01
4.982623140957795904e-01,5.788281999505856534e-01,4.814539908210330177e-01
4.853042298073640959e-01,5.525406835484684143e-01,5.128443746058219954e-01
5.473094973542558250e-01,4.917563909480442419e-01,4.882515310399864750e-01
5.704111574079172575e-01,5.402776967244256046e-01,4.474078574821869769e-01
4.432710971241278219e-01,5.434319428063709712e-01,5.135276881971092555e-01
4.949988669540074659e-01,4.997998745140972976e-01,5.227014394151101584e-01
5.194528987788349372e-01,5.258454556671401381e-01,5.092552029071454323e-01
4.538252164630149355e-01,5.450427988966471959e-01,4.732165043910058766e-01
5.610742809831846811e-01,4.550962275156897885e-01,4.811159314148384936e-01
5.691031036110071328e-01,4.885190802394579479e-01,4.916874843332733613e-01
5.565512115947800487e-01,5.593081000737313291e-01,4.503406087828348281e-01
5.334168836840827987e-01,5.604980174510298951e-01,4.737976778746028628e-01
5.011011454165278378e-01,4.819208417953524948e-01,4.665734593743371961e-01
5.581202922545681622e-01,5.519624970550327525e-01,4.533987627220327221e-01
4.677410792283922536e-01,5.567606106792035714e-01,5.218261051261299244e-01
4.888501107245673549e-01,5.341880443557439628e-01,4.898191234369747016e-01
