ref_accel_x (m/s^2),ref_accel_y (m/s^2),ref_accel_z (m/s^2)
0.000000000000000000e+00,0.000000000000000000e+00,-9.794841972265039942e+00
4.897420984091928374e-04,0.000000000000000000e+00,-9.794841960021487992e+00
1.469226290330157610e-03,0.000000000000000000e+00,-9.794841862073068839e+00
2.938452547602723400e-03,0.000000000000000000e+00,-9.794841531497155529e+00
4.897420782073314514e-03,0.000000000000000000e+00,-9.794840747909820067e+00
7.346130790498973766e-03,0.000000000000000000e+00,-9.794839217465863612e+00
1.028458218108607540e-02,0.000000000000000000e+00,-9.794836572858898194e+00
1.371277428166376919e-02,0.000000000000000000e+00,-9.794832373321474606e+00
1.763070602949221716e-02,0.000000000000000000e+00,-9.794826104625329322e+00
2.203837584270574093e-02,0.000000000000000000e+00,-9.794817179081757530e+00
2.693578147339100934e-02,0.000000000000000000e+00,-9.794804935542172686e+00
3.232291984230058202e-02,0.000000000000000000e+00,-9.794788639398900543e+00
3.819978685520213774e-02,0.000000000000000000e+00,-9.794767482586257401e+00
4.456637720086385063e-02,0.000000000000000000e+00,-9.794740583581990734e+00
5.142268413067662552e-02,0.000000000000000000e+00,-9.794706987409153243e+00
5.876869921991393492e-02,0.000000000000000000e+00,-9.794665665638460084e+00
6.660441211063052036e-02,0.000000000000000000e+00,-9.794615516391253607e+00
7.492981023620098879e-02,0.000000000000000000e+00,-9.794555364343134229e+00
8.374487852750028827e-02,0.000000000000000000e+00,-9.794483960728371130e+00
9.304959910072775620e-02,0.000000000000000000e+00,-9.794399983345181582e+00
1.028439509268773561e-01,0.000000000000000000e+00,-9.794302036562005043e+00
1.131279094828566839e-01,0.000000000000000000e+00,-9.794188651324873263e+00
1.239014463842583319e-01,0.000000000000000000e+00,-9.794058285166000744e+00
1.351645289997872590e-01,0.000000000000000000e+00,-9.793909322213737667e+00
1.469171200473488592e-01,0.000000000000000000e+00,-9.793740073204000751e+00
1.591591771718025849e-01,0.000000000000000000e+00,-9.793548775493329472e+00
1.718906525043873423e-01,0.000000000000000000e+00,-9.793333593073736409e+00
1.851114922038250565e-01,0.000000000000000000e+00,-9.793092616589460064e+00
1.988216359791103449e-01,0.000000000000000000e+00,-9.792823863355835101e+00
2.130210165939940281e-01,0.000000000000000000e+00,-9.792525277380404347e+00
2.277095593531710538e-01,0.000000000000000000e+00,-9.792194729386466179e+00
2.428871815701825476e-01,0.000000000000000000e+00,-9.791830016839231376e+00
2.585537920170441484e-01,0.000000000000000000e+00,-9.791428863974783070e+00
2.747092903556136445e-01,0.000000000000000000e+00,-9.790988921832013858e+00
2.913535665507121508e-01,0.000000000000000000e+00,-9.790507768287765700e+00
3.084865002650150623e-01,0.000000000000000000e+00,-9.789982908095351988e+00
3.261079602357293550e-01,0.000000000000000000e+00,-9.789411772926696287e+00
3.442178036330770796e-01,0.000000000000000000e+00,-9.788791721418274250e+00
3.628158754006047260e-01,0.000000000000000000e+00,-9.788120039221126945e+00
3.819020075773426059e-01,0.000000000000000000e+00,-9.787393939055140990e+00
4.014760186018364041e-01,0.000000000000000000e+00,-9.786610560767835310e+00
4.215377125980792061e-01,0.000000000000000000e+00,-9.785766971397922731e+00
4.420868786433722608e-01,0.000000000000000000e+00,-9.784860165243868479e+00
4.631232900181440071e-01,0.000000000000000000e+00,-9.783887063937710238e+00
4.846467034377631711e-01,0.000000000000000000e+00,-9.782844516524415113e+00
5.066568582663784071e-01,0.000000000000000000e+00,-9.781729299547015088e+00
5.291534757128256716e-01,0.000000000000000000e+00,-9.780538117137826504e+00
5.521362580086429661e-01,0.000000000000000000e+00,-9.779267601116002240e+00
5.756048875682354682e-01,0.000000000000000000e+00,-9.777914311091729260e+00
5.995590261312410130e-01,0.000000000000000000e+00,-9.776474734577359271e+00
6.239983138871418866e-01,0.000000000000000000e+00,-9.774945287105749614e+00
6.489223685821793319e-01,0.000000000000000000e+00,-9.773322312356151897e+00
6.743307846086260549e-01,0.000000000000000000e+00,-9.771602082287939695e+00
7.002231320764761291e-01,0.000000000000000000e+00,-9.769780797282502149e+00
7.265989558676189120e-01,0.000000000000000000e+00,-9.767854586293603703e+00
7.534577746725602543e-01,0.000000000000000000e+00,-9.765819507006586520e+00
7.807990800097672768e-01,0.000000000000000000e+00,-9.763671546006696289e+00
8.086223352277088772e-01,0.000000000000000000e+00,-9.761406618956911529e+00
8.369269744896730145e-01,0.000000000000000000e+00,-9.759020570785597926e+00
8.657124017414460360e-01,0.000000000000000000e+00,-9.756509175884371388e+00
8.949779896619415309e-01,0.000000000000000000e+00,-9.753868138316489578e+00
9.247230785968738598e-01,0.000000000000000000e+00,-9.751093092036153820e+00
9.549469754755723905e-01,0.000000000000000000e+00,-9.748179601119121074e+00
9.856489527110444682e-01,0.000000000000000000e+00,-9.745123160004933283e+00
1.016828247083390035e+00,0.000000000000000000e+00,-9.741919193751209960e+00
1.048484058606687919e+00,0.000000000000000000e+00,-9.738563058300364617e+00
1.080615549379469353e+00,0.000000000000000000e+00,-9.735050040759123391e+00
1.113221842418906427e+00,0.000000000000000000e+00,-9.731375359691268656e+00
1.146302020478846551e+00,0.000000000000000000e+00,-9.727534165423991297e+00
1.179855124851830306e+00,0.000000000000000000e+00,-9.723521540368272653e+00
1.213880154155235092e+00,0.000000000000000000e+00,-9.719332499353695809e+00
1.248376063101697575e+00,0.000000000000000000e+00,-9.714961989978117884e+00
1.283341761253971036e+00,0.000000000000000000e+00,-9.710404892972613666e+00
1.318776111764378367e+00,0.000000000000000000e+00,-9.705656022582116904e+00
1.354677930099036143e+00,0.000000000000000000e+00,-9.700710126962226454e+00
1.391045982747022958e+00,0.000000000000000000e+00,-9.695561888592546751e+00
1.427878985914683430e+00,0.000000000000000000e+00,-9.690205924707077756e+00
1.465175604205252835e+00,0.000000000000000000e+00,-9.684636787742050501e+00
1.502934449284011764e+00,0.000000000000000000e+00,-9.678848965801680748e+00
1.541154078529169302e+00,0.000000000000000000e+00,-9.672836883142288400e+00
1.579832993668705221e+00,0.000000000000000000e+00,-9.666594900675246294e+00
1.618969639403380567e+00,0.000000000000000000e+00,-9.660117316489225558e+00
1.658562402016164672e+00,0.000000000000000000e+00,-9.653398366392183405e+00
1.698609607968311286e+00,0.000000000000000000e+00,-9.646432224473597827e+00
1.739109522482341186e+00,0.000000000000000000e+00,-9.639213003687393311e+00
1.780060348112188828e+00,0.000000000000000000e+00,-9.631734756456056701e+00
1.821460223300783721e+00,0.000000000000000000e+00,-9.623991475296408638e+00
1.863307220925350727e+00,0.000000000000000000e+00,-9.615977093467535042e+00
1.905599346830708640e+00,0.000000000000000000e+00,-9.607685485641340506e+00
1.948334538350879885e+00,0.000000000000000000e+00,-9.599110468596242285e+00
1.991510662819308664e+00,0.000000000000000000e+00,-9.590245801934479175e+00
2.035125516068017504e+00,0.000000000000000000e+00,-9.581085188823537990e+00
2.079176820916026180e+00,0.000000000000000000e+00,-9.571622276762202119e+00
2.123662225647380275e+00,0.000000000000000000e+00,-9.561850658371700007e+00
2.168579302479135773e+00,0.000000000000000000e+00,-9.551763872212504225e+00
2.213925546019672286e+00,0.000000000000000000e+00,-9.541355403627223453e+00
2.259698371717700827e+00,0.000000000000000000e+00,-9.530618685610145135e+00
2.305895114302362714e+00,0.000000000000000000e+00,-9.519547099703924431e+00
2.352513026214810399e+00,0.000000000000000000e+00,-9.508133976923891950e+00
2.399549276031687661e+00,0.000000000000000000e+00,-9.496372598710557611e+00
2.447000946880929728e+00,0.000000000000000000e+00,-9.484256197910763575e+00
2.494865034850320740e+00,0.000000000000000000e+00,-9.471777959788024503e+00
2.543138447389257095e+00,0.000000000000000000e+00,-9.458931023062566723e+00
2.591818001704174534e+00,0.000000000000000000e+00,-9.445708480981565458e+00
2.640900423148124787e+00,0.000000000000000000e+00,-9.432103382420113036e+00
2.690382343604976079e+00,0.000000000000000000e+00,-9.418108733013411893e+00
2.740260299868749083e+00,0.000000000000000000e+00,-9.403717496320703972e+00
2.790530732018600357e+00,0.000000000000000000e+00,-9.388922595021467643e+00
2.841189981789984831e+00,0.000000000000000000e+00,-9.373716912144356428e+00
2.892234290942538255e+00,0.000000000000000000e+00,-9.358093292329426660e+00
2.943659799625236939e+00,0.000000000000000000e+00,-9.342044543124123024e+00
2.995462544739416089e+00,0.000000000000000000e+00,-9.325563436313547783e+00
3.047638458300219177e+00,0.000000000000000000e+00,-9.308642709285514627e+00
3.100183365797092971e+00,0.000000000000000000e+00,-9.291275066430866758e+00
3.153092984553942824e+00,0.000000000000000000e+00,-9.273453180579585009e+00
3.206362922089575740e+00,0.000000000000000000e+00,-9.255169694473142528e+00
3.259930006200332908e+00,0.000000000000000000e+00,-9.236437929002695668e+00
3.313723053438723642e+00,0.000000000000000000e+00,-9.217275562049429993e+00
3.367677864971531765e+00,0.000000000000000000e+00,-9.197699443851472978e+00
3.421736566171984073e+00,0.000000000000000000e+00,-9.177725651454528233e+00
3.475847008212390232e+00,0.000000000000000000e+00,-9.157369536998377413e+00
3.529962225909926143e+00,0.000000000000000000e+00,-9.136645771030741159e+00
3.584039946599770321e+00,0.000000000000000000e+00,-9.115568381775325690e+00
3.638042145285819817e+00,0.000000000000000000e+00,-9.094150791072745932e+00
3.691934641753347623e+00,0.000000000000000000e+00,-9.072405847550388813e+00
3.745686735723613214e+00,0.000000000000000000e+00,-9.050345857450370346e+00
3.799270876490791427e+00,0.000000000000000000e+00,-9.027982613446582150e+00
3.852662363809666868e+00,0.000000000000000000e+00,-9.005327421705965563e+00
3.905839077101060930e+00,0.000000000000000000e+00,-8.982391127391148089e+00
3.958781230313500821e+00,0.000000000000000000e+00,-8.959184138757413152e+00
4.011471150026560295e+00,0.000000000000000000e+00,-8.935716449963566177e+00
4.063893074605746669e+00,0.000000000000000000e+00,-8.911997662691364397e+00
4.116032972422764225e+00,0.000000000000000000e+00,-8.888037006649641469e+00
4.167878377340286988e+00,0.000000000000000000e+00,-8.863843359025711521e+00
4.219418239828663708e+00,0.000000000000000000e+00,-8.839425262936844163e+00
4.270642792234780494e+00,0.000000000000000000e+00,-8.814790944927622718e+00
4.321543426862064941e+00,0.000000000000000000e+00,-8.789948331554070293e+00
4.372112585646493521e+00,0.000000000000000000e+00,-8.764905065092058578e+00
4.422343660327732628e+00,0.000000000000000000e+00,-8.739668518405260045e+00
4.472230902118194962e+00,0.000000000000000000e+00,-8.714245809006305521e+00
4.521769339966817292e+00,0.000000000000000000e+00,-8.688643812343842754e+00
4.570954706599613893e+00,0.000000000000000000e+00,-8.662869174347475720e+00
4.619783371596390076e+00,0.000000000000000000e+00,-8.636928323262059948e+00
4.668252280833073975e+00,0.000000000000000000e+00,-8.610827480802393907e+00
4.716358901682648153e+00,0.000000000000000000e+00,-8.584572672659003700e+00
4.764101173425229874e+00,0.000000000000000000e+00,-8.558169738385259961e+00
4.811477462370039149e+00,0.000000000000000000e+00,-8.531624340695625364e+00
4.858486521239205658e+00,0.000000000000000000e+00,-8.504941974204283994e+00
4.905127452406213173e+00,0.000000000000000000e+00,-8.478127973632847869e+00
4.951399674620537539e+00,0.000000000000000000e+00,-8.451187521515100443e+00
4.997302892885136849e+00,0.000000000000000000e+00,-8.424125655426012216e+00
5.042837071185268805e+00,0.000000000000000000e+00,-8.396947274761492608e+00
5.088002407795850779e+00,0.000000000000000000e+00,-8.369657147094409666e+00
5.132799312920686141e+00,0.000000000000000000e+00,-8.342259914131531673e+00
5.177228388440400231e+00,0.000000000000000000e+00,-8.314760097295154750e+00
5.221290409567351354e+00,0.000000000000000000e+00,-8.287162102952065013e+00
5.264986308225005018e+00,0.000000000000000000e+00,-8.259470227311684454e+00
5.308317157986806478e+00,0.000000000000000000e+00,-8.231688661014079145e+00
5.351284160425385572e+00,0.000000000000000000e+00,-8.203821493427637890e+00
5.393888632737176891e+00,0.000000000000000000e+00,-8.175872716675177898e+00
5.436131996520567000e+00,0.000000000000000000e+00,-8.147846229406285445e+00
5.478015767597299579e+00,0.000000000000000000e+00,-8.119745840332704745e+00
5.519541546777508856e+00,0.000000000000000000e+00,-8.091575271542732040e+00
5.560711011478302268e+00,0.000000000000000000e+00,-8.063338161609548749e+00
5.601525908114454388e+00,0.000000000000000000e+00,-8.035038068507667219e+00
5.641988045187646073e+00,0.000000000000000000e+00,-8.006678472350726494e+00
5.682099287007700283e+00,0.000000000000000000e+00,-7.978262777963100127e+00
5.721861547985704455e+00,0.000000000000000000e+00,-7.949794317296992041e+00
5.761276787444685965e+00,0.000000000000000000e+00,-7.921276351705950347e+00
5.800347004898725345e+00,0.000000000000000000e+00,-7.892712074085008744e+00
5.839074235756109843e+00,0.000000000000000000e+00,-7.864104610886995417e+00
5.877460547406428759e+00,0.000000000000000000e+00,-7.835457024023922301e+00
5.915508035655340002e+00,0.000000000000000000e+00,-7.806772312661744095e+00
5.953218821474258959e+00,0.000000000000000000e+00,-7.778053414916198172e+00
5.990595048035335601e+00,0.000000000000000000e+00,-7.749303209456926744e+00
6.027638878004963452e+00,0.000000000000000000e+00,-7.720524517026544409e+00
6.064352491071633544e+00,0.000000000000000000e+00,-7.691720101880863858e+00
6.100738081686258418e+00,0.000000000000000000e+00,-7.662892673156004975e+00
6.136797856995198863e+00,0.000000000000000000e+00,-7.634044886167752786e+00
6.172534034948154336e+00,0.000000000000000000e+00,-7.605179343648087453e+00
6.207948842564722902e+00,0.000000000000000000e+00,-7.576298596923448869e+00
6.243044514345073459e+00,0.000000000000000000e+00,-7.547405147039000006e+00
6.277823290811501700e+00,0.000000000000000000e+00,-7.518501445832776575e+00
6.312287417168954917e+00,0.000000000000000000e+00,-7.489589896963343207e+00
6.346439142073706741e+00,0.000000000000000000e+00,-7.460672856894319693e+00
6.380280716500453586e+00,0.000000000000000000e+00,-7.431752635838827281e+00
6.413814392698981237e+00,0.000000000000000000e+00,-7.402831498666728294e+00
6.447042423232424824e+00,0.000000000000000000e+00,-7.373911665777280966e+00
6.479967060089890651e+00,0.000000000000000000e+00,-7.344995313939612913e+00
6.512590553866917098e+00,0.000000000000000000e+00,-7.316084577103267428e+00
6.544915153007843323e+00,0.000000000000000000e+00,-7.287181547180859198e+00
6.576943103104727406e+00,0.000000000000000000e+00,-7.258288274804746365e+00
6.608676646247985786e+00,0.000000000000000000e+00,-7.229406770059448206e+00
6.640118020424330858e+00,0.000000000000000000e+00,-7.200539003191424925e+00
6.671269458958062337e+00,0.000000000000000000e+00,-7.171686905297685932e+00
6.702133189992070861e+00,0.000000000000000000e+00,-7.142852368994589085e+00
6.732711436005321737e+00,0.000000000000000000e+00,-7.114037249068074331e+00
6.763006413363831015e+00,0.000000000000000000e+00,-7.085243363106492609e+00
6.793020331902447140e+00,0.000000000000000000e+00,-7.056472492117068285e+00
6.822755394535017892e+00,0.000000000000000000e+00,-7.027726381126986333e+00
6.852213796890714193e+00,0.000000000000000000e+00,-6.999006739769968455e+00
6.881397726974490148e+00,0.000000000000000000e+00,-6.970315242859193461e+00
6.910309364849878122e+00,0.000000000000000000e+00,-6.941653530947289319e+00
6.938950882342431292e+00,0.000000000000000000e+00,-6.913023210874102986e+00
6.967324442762322434e+00,0.000000000000000000e+00,-6.884425856302875957e+00
6.995432200644706278e+00,0.000000000000000000e+00,-6.855863008245429491e+00
7.023276301506597541e+00,0.000000000000000000e+00,-6.827336175576877331e+00
7.050858881619133101e+00,0.000000000000000000e+00,-6.798846835540382827e+00
7.078182067794153376e+00,0.000000000000000000e+00,-6.770396434242397454e+00
7.105247977184175667e+00,0.000000000000000000e+00,-6.741986387138813264e+00
7.132058717094861500e+00,0.000000000000000000e+00,-6.713618079512423620e+00
7.158616384809217692e+00,0.000000000000000000e+00,-6.685292866942024403e+00
7.184923067422762877e+00,0.000000000000000000e+00,-6.657012075763507397e+00
7.210980841689027976e+00,0.000000000000000000e+00,-6.628777003523251388e+00
7.236791773874749367e+00,0.000000000000000000e+00,-6.600588919424057011e+00
7.262357919624212066e+00,0.000000000000000000e+00,-6.572449064763939752e+00
7.287681323832212676e+00,0.000000000000000000e+00,-6.544358653367956968e+00
7.312764020525173159e+00,0.000000000000000000e+00,-6.516318872013354913e+00
7.337608032749958653e+00,0.000000000000000000e+00,-6.488330880848185878e+00
7.362215372470001462e+00,0.000000000000000000e+00,-6.460395813803616605e+00
7.386588040468352823e+00,0.000000000000000000e+00,-6.432514779000106486e+00
7.410728026257310752e+00,0.000000000000000000e+00,-6.404688859147595004e+00
7.434637307994304223e+00,0.000000000000000000e+00,-6.376919111939879592e+00
7.458317852403744119e+00,0.000000000000000000e+00,-6.349206570443309161e+00
7.481771614704543438e+00,0.000000000000000000e+00,-6.321552243479938937e+00
7.505000538543065147e+00,0.000000000000000000e+00,-6.293957116005254981e+00
7.528006555931246346e+00,0.000000000000000000e+00,-6.266422149480601611e+00
7.550791587189667808e+00,0.000000000000000000e+00,-6.238948282240416532e+00
7.573357540895382378e+00,0.000000000000000000e+00,-6.211536429854368713e+00
7.595706313834259760e+00,0.000000000000000000e+00,-6.184187485484513580e+00
7.617839790957704693e+00,0.000000000000000000e+00,-6.156902320237536586e+00
7.639759845343549571e+00,0.000000000000000000e+00,-6.129681783512192617e+00
7.661468338160949187e+00,0.000000000000000000e+00,-6.102526703342000758e+00
7.682967118639153270e+00,0.000000000000000000e+00,-6.075437886733307202e+00
7.704258024039967623e+00,0.000000000000000000e+00,-6.048416119998745621e+00
7.725342879633790183e+00,0.000000000000000000e+00,-6.021462169086209570e+00
7.746223498679093211e+00,0.000000000000000000e+00,-5.994576779903375119e+00
7.766901682405197072e+00,0.000000000000000000e+00,-5.967760678637860750e+00
7.787379219998239677e+00,0.000000000000000000e+00,-5.941014572073065381e+00
7.807657888590230577e+00,0.000000000000000000e+00,-5.914339147899758231e+00
7.827739453251049362e+00,0.000000000000000000e+00,-5.887735075023489806e+00
7.847625666983320869e+00,0.000000000000000000e+00,-5.861203003867847983e+00
7.867318270720038420e+00,0.000000000000000000e+00,-5.834743566673651571e+00
7.886818993324861360e+00,0.000000000000000000e+00,-5.808357377794097332e+00
7.906129551594971439e+00,0.000000000000000000e+00,-5.782045033985950155e+00
7.925251650266424974e+00,0.000000000000000000e+00,-5.755807114696792404e+00
7.944186982021889776e+00,0.000000000000000000e+00,-5.729644182348397230e+00
7.962937227500710868e+00,0.000000000000000000e+00,-5.703556782616281851e+00
7.981504055311202883e+00,0.000000000000000000e+00,-5.677545444705460298e+00
7.999889122045109602e+00,0.000000000000000000e+00,-5.651610681622471155e+00
8.018094072294148944e+00,0.000000000000000000e+00,-5.625752990443707802e+00
8.036120538668569679e+00,0.000000000000000000e+00,-5.599972852580097360e+00
8.053970141817663020e+00,0.000000000000000000e+00,-5.574270734038172748e+00
8.071644490452149157e+00,0.000000000000000000e+00,-5.548647085677584911e+00
8.089145181368389004e+00,0.000000000000000000e+00,-5.523102343465080999e+00
8.106473799474336772e+00,0.000000000000000000e+00,-5.497636928725014194e+00
8.123631917817199621e+00,0.000000000000000000e+00,-5.472251248386402978e+00
8.140621097612726231e+00,0.000000000000000000e+00,-5.446945695226590445e+00
8.157442888276071002e+00,0.000000000000000000e+00,-5.421720648111541863e+00
8.174098827454196581e+00,0.000000000000000000e+00,-5.396576472232820443e+00
8.190590441059720561e+00,0.000000000000000000e+00,-5.371513519341271525e+00
8.206919243306201039e+00,0.000000000000000000e+00,-5.346532127977468463e+00
8.223086736744784631e+00,0.000000000000000000e+00,-5.321632623698942410e+00
8.239094412302170767e+00,0.000000000000000000e+00,-5.296815319304238656e+00
8.254943749319828328e+00,0.000000000000000000e+00,-5.272080515053843897e+00
8.270636215594471707e+00,0.000000000000000000e+00,-5.247428498888008441e+00
8.286173267419686184e+00,0.000000000000000000e+00,-5.222859546641499762e+00
8.301556349628691933e+00,0.000000000000000000e+00,-5.198373922255347779e+00
8.316786895638205834e+00,0.000000000000000000e+00,-5.173971877985568568e+00
8.331866327493347768e+00,0.000000000000000000e+00,-5.149653654608959741e+00
8.346796055913550560e+00,0.000000000000000000e+00,-5.125419481625955065e+00
8.361577480339457580e+00,0.000000000000000000e+00,-5.101269577460590732e+00
8.376211988980713841e+00,0.000000000000000000e+00,-5.077204149657629451e+00
8.390700958864691472e+00,0.000000000000000000e+00,-5.053223395076852142e+00
8.405045755886042969e+00,0.000000000000000000e+00,-5.029327500084569635e+00
8.419247734857078669e+00,0.000000000000000000e+00,-5.005516640742376566e+00
8.433308239558936492e+00,0.000000000000000000e+00,-4.981790982993190120e+00
8.447228602793501295e+00,0.000000000000000000e+00,-4.958150682844587820e+00
8.461010146436038326e+00,0.000000000000000000e+00,-4.934595886549506538e+00
8.474654181488512350e+00,0.000000000000000000e+00,-4.911126730784309835e+00
8.488162008133567582e+00,0.000000000000000000e+00,-4.887743342824254711e+00
8.501534915789127567e+00,0.000000000000000000e+00,-4.864445840716416392e+00
8.514774183163590138e+00,0.000000000000000000e+00,-4.841234333450065819e+00
8.527881078311587260e+00,0.000000000000000000e+00,-4.818108921124562904e+00
8.540856858690281328e+00,0.000000000000000000e+00,-4.795069695114773545e+00
8.553702771216174838e+00,0.000000000000000000e+00,-4.772116738234053912e+00
8.566420052322404999e+00,0.000000000000000000e+00,-4.749250124894823344e+00
8.579009928016480657e+00,0.000000000000000000e+00,-4.726469921266774676e+00
8.591473613938470422e+00,0.000000000000000000e+00,-4.703776185432713142e+00
8.603812315419586909e+00,0.000000000000000000e+00,-4.681168967542096659e+00
8.616027227541151134e+00,0.000000000000000000e+00,-4.658648309962285516e+00
8.628119535193919276e+00,0.000000000000000000e+00,-4.636214247427523638e+00
8.640090413137757608e+00,0.000000000000000000e+00,-4.613866807185692309e+00
8.651941026061608753e+00,0.000000000000000000e+00,-4.591606009142867428e+00
8.663672528643765247e+00,0.000000000000000000e+00,-4.569431866005690068e+00
8.675286065612413111e+00,0.000000000000000000e+00,-4.547344383421602743e+00
8.686782771806424108e+00,0.000000000000000000e+00,-4.525343560116953157e+00
8.698163772236380709e+00,0.000000000000000000e+00,-4.503429388033019620e+00
8.709430182145810662e+00,0.000000000000000000e+00,-4.481601852459955460e+00
8.720583107072608087e+00,0.000000000000000000e+00,-4.459860932168711045e+00
8.731623642910649963e+00,0.000000000000000000e+00,-4.438206599540927222e+00
8.742552875971545845e+00,0.000000000000000000e+00,-4.416638820696859646e+00
8.753371883046535018e+00,0.000000000000000000e+00,-4.395157555621331369e+00
8.764081731468506220e+00,0.000000000000000000e+00,-4.373762758287752739e+00
8.774683479174131051e+00,0.000000000000000000e+00,-4.352454376780238832e+00
8.785178174766071990e+00,0.000000000000000000e+00,-4.331232353413835945e+00
8.795566857575275677e+00,0.000000000000000000e+00,-4.310096624852891800e+00
8.805850557723317706e+00,0.000000000000000000e+00,-4.289047122227596098e+00
8.816030296184804271e+00,0.000000000000000000e+00,-4.268083771248703862e+00
8.826107084849789786e+00,0.000000000000000000e+00,-4.247206492320479754e+00
8.836081926586221158e+00,0.000000000000000000e+00,-4.226415200651874038e+00
8.845955815302380287e+00,0.000000000000000000e+00,-4.205709806365969250e+00
8.855729736009321229e+00,0.000000000000000000e+00,-4.185090214607704695e+00
8.865404664883277164e+00,0.000000000000000000e+00,-4.164556325649916957e+00
8.874981569328040720e+00,0.000000000000000000e+00,-4.144108034997699086e+00
8.884461408037298114e+00,0.000000000000000000e+00,-4.123745233491128204e+00
8.893845131056899334e+00,0.000000000000000000e+00,-4.103467807406363299e+00
8.903133679847057280e+00,0.000000000000000000e+00,-4.083275638555140752e+00
8.912327987344481173e+00,0.000000000000000000e+00,-4.063168604382691562e+00
8.921428978024399825e+00,0.000000000000000000e+00,-4.043146578064097163e+00
8.930437567962503209e+00,0.000000000000000000e+00,-4.023209428599121118e+00
8.939354664896761449e+00,0.000000000000000000e+00,-4.003357020905505159e+00
8.948181168289124798e+00,0.000000000000000000e+00,-3.983589215910793513e+00
8.956917969387097500e+00,0.000000000000000000e+00,-3.963905870642665974e+00
8.965565951285181967e+00,0.000000000000000000e+00,-3.944306838317823249e+00
8.974125988986148883e+00,0.000000000000000000e+00,-3.924791968429444555e+00
8.982598949462190063e+00,0.000000000000000000e+00,-3.905361106833227236e+00
8.990985691715879469e+00,0.000000000000000000e+00,-3.886014095832030169e+00
8.999287066840969018e+00,0.000000000000000000e+00,-3.866750774259153367e+00
9.007503918083019201e+00,0.000000000000000000e+00,-3.847570977560250238e+00
9.015637080899830735e+00,0.000000000000000000e+00,-3.828474537873915562e+00
9.023687383021679054e+00,0.000000000000000000e+00,-3.809461284110951862e+00
9.031655644511372927e+00,0.000000000000000000e+00,-3.790531042032336373e+00
9.039542677824082162e+00,0.000000000000000000e+00,-3.771683634325911694e+00
9.047349287866962797e+00,0.000000000000000000e+00,-3.752918880681817448e+00
9.055076272058567355e+00,0.000000000000000000e+00,-3.734236597866667395e+00
9.062724420388025948e+00,0.000000000000000000e+00,-3.715636599796513284e+00
9.070294515474003560e+00,0.000000000000000000e+00,-3.697118697608600346e+00
9.077787332623408645e+00,0.000000000000000000e+00,-3.678682699731913530e+00
9.085203639889879668e+00,0.000000000000000000e+00,-3.660328411956577987e+00
9.092544198132017641e+00,0.000000000000000000e+00,-3.642055637502078280e+00
9.099809761071362857e+00,0.000000000000000000e+00,-3.623864177084350935e+00
9.107001075350126484e+00,0.000000000000000000e+00,-3.605753828981749010e+00
9.114118880588657490e+00,0.000000000000000000e+00,-3.587724389099899103e+00
9.121163909442653761e+00,0.000000000000000000e+00,-3.569775651035467234e+00
9.128136887660092569e+00,0.000000000000000000e+00,-3.551907406138852252e+00
9.135038534137899902e+00,0.000000000000000000e+00,-3.534119443575808539e+00
9.141869560978351572e+00,0.000000000000000000e+00,-3.516411550388036655e+00
9.148630673545172343e+00,0.000000000000000000e+00,-3.498783511552739256e+00
9.155322570519381031e+00,0.000000000000000000e+00,-3.481235110041161374e+00
9.161945943954831861e+00,0.000000000000000000e+00,-3.463766126876135054e+00
9.168501479333476922e+00,0.000000000000000000e+00,-3.446376341188634562e+00
9.174989855620328427e+00,0.000000000000000000e+00,-3.429065530273366136e+00
9.181411745318145634e+00,0.000000000000000000e+00,-3.411833469643397176e+00
9.187767814521802023e+00,0.000000000000000000e+00,-3.394679933083850631e+00
9.194058722972371811e+00,0.000000000000000000e+00,-3.377604692704659239e+00
9.200285124110910928e+00,0.000000000000000000e+00,-3.360607518992419607e+00
9.206447665131927138e+00,0.000000000000000000e+00,-3.343688180861337678e+00
9.212546987036555279e+00,0.000000000000000000e+00,-3.326846445703286026e+00
9.218583724685423419e+00,0.000000000000000000e+00,-3.310082079436994285e+00
9.224558506851199269e+00,0.000000000000000000e+00,-3.293394846556372713e+00
9.230471956270845268e+00,0.000000000000000000e+00,-3.276784510177985332e+00
9.236324689697541501e+00,0.000000000000000000e+00,-3.260250832087695283e+00
9.242117317952310174e+00,0.000000000000000000e+00,-3.243793572786485946e+00
9.247850445975309697e+00,0.000000000000000000e+00,-3.227412491535464500e+00
9.253524672876837442e+00,0.000000000000000000e+00,-3.211107346400073226e+00
9.259140591987980784e+00,0.000000000000000000e+00,-3.194877894293513876e+00
9.264698790910982140e+00,0.000000000000000000e+00,-3.178723891019396230e+00
9.270199851569259408e+00,0.000000000000000000e+00,-3.162645091313626811e+00
9.275644350257124415e+00,0.000000000000000000e+00,-3.146641248885545306e+00
9.281032857689169191e+00,0.000000000000000000e+00,-3.130712116458317151e+00
9.286365939049332496e+00,0.000000000000000000e+00,-3.114857445808604020e+00
9.291644154039650161e+00,0.000000000000000000e+00,-3.099076987805513550e+00
9.296868056928671464e+00,0.000000000000000000e+00,-3.083370492448839872e+00
9.302038196599564657e+00,0.000000000000000000e+00,-3.067737708906617566e+00
9.307155116597884970e+00,0.000000000000000000e+00,-3.052178385551979289e+00
9.312219355179037095e+00,0.000000000000000000e+00,-3.036692269999351268e+00
9.317231445355391273e+00,0.000000000000000000e+00,-3.021279109139968888e+00
9.322191914943090296e+00,0.000000000000000000e+00,-3.005938649176757238e+00
9.327101286608534991e+00,0.000000000000000000e+00,-2.990670635658550847e+00
9.331960077914528640e+00,0.000000000000000000e+00,-2.975474813513692141e+00
9.336768801366122972e+00,0.000000000000000000e+00,-2.960350927082991745e+00
9.341527964456100008e+00,0.000000000000000000e+00,-2.945298720152093264e+00
9.346238069710185670e+00,0.000000000000000000e+00,-2.930317935983214550e+00
9.350899614731883247e+00,0.000000000000000000e+00,-2.915408317346307676e+00
9.355513092247024431e+00,0.000000000000000000e+00,-2.900569606549622037e+00
9.360078990147979283e+00,0.000000000000000000e+00,-2.885801545469696805e+00
9.364597791537546456e+00,0.000000000000000000e+00,-2.871103875580783171e+00
9.369069974772527232e+00,0.000000000000000000e+00,-2.856476337983705260e+00
9.373496013506967373e+00,0.000000000000000000e+00,-2.841918673434178810e+00
9.377876376735089892e+00,0.000000000000000000e+00,-2.827430622370573410e+00
9.382211528833899195e+00,0.000000000000000000e+00,-2.813011924941155595e+00
9.386501929605479688e+00,0.000000000000000000e+00,-2.798662321030796818e+00
9.390748034318955106e+00,0.000000000000000000e+00,-2.784381550287172047e+00
9.394950293752142301e+00,0.000000000000000000e+00,-2.770169352146442332e+00
9.399109154232895946e+00,0.000000000000000000e+00,-2.756025465858448431e+00
9.403225057680119292e+00,0.000000000000000000e+00,-2.741949630511398617e+00
9.407298441644480036e+00,0.000000000000000000e+00,-2.727941585056074647e+00
9.411329739348785139e+00,0.000000000000000000e+00,-2.714001068329568334e+00
9.415319379728074978e+00,0.000000000000000000e+00,-2.700127819078541158e+00
9.419267787469381759e+00,0.000000000000000000e+00,-2.686321575982026033e+00
9.423175383051185960e+00,0.000000000000000000e+00,-2.672582077673770762e+00
9.427042582782558355e+00,0.000000000000000000e+00,-2.658909062764134301e+00
9.430869798842005380e+00,0.000000000000000000e+00,-2.645302269861544708e+00
9.434657439315991212e+00,0.000000000000000000e+00,-2.631761437593522324e+00
9.438405908237159636e+00,0.000000000000000000e+00,-2.618286304627277961e+00
9.442115605622259267e+00,0.000000000000000000e+00,-2.604876609689893208e+00
9.445786927509745468e+00,0.000000000000000000e+00,-2.591532091588080178e+00
9.449420265997108714e+00,0.000000000000000000e+00,-2.578252489227544686e+00
9.453016009277867227e+00,0.000000000000000000e+00,-2.565037541631943974e+00
9.456574541678286039e+00,0.000000000000000000e+00,-2.551886987961457187e+00
9.460096243693790541e+00,0.000000000000000000e+00,-2.538800567530957508e+00
9.463581492025076258e+00,0.000000000000000000e+00,-2.525778019827818799e+00
9.467030659613923760e+00,0.000000000000000000e+00,-2.512819084529335001e+00
9.470444115678734676e+00,0.000000000000000000e+00,-2.499923501519780267e+00
9.473822225749751524e+00,0.000000000000000000e+00,-2.487091010907104938e+00
9.477165351704000429e+00,0.000000000000000000e+00,-2.474321353039269145e+00
9.480473851799944285e+00,0.000000000000000000e+00,-2.461614268520234461e+00
9.483748080711841055e+00,0.000000000000000000e+00,-2.448969498225606944e+00
9.486988389563812518e+00,0.000000000000000000e+00,-2.436386783317936899e+00
9.490195125963641232e+00,0.000000000000000000e+00,-2.423865865261696229e+00
9.493368634036272624e+00,0.000000000000000000e+00,-2.411406485837916946e+00
9.496509254457029314e+00,0.000000000000000000e+00,-2.399008387158510391e+00
9.499617324484564307e+00,0.000000000000000000e+00,-2.386671311680273355e+00
9.502693177993508655e+00,0.000000000000000000e+00,-2.374395002218575357e+00
9.505737145506865104e+00,0.000000000000000000e+00,-2.362179201960746600e+00
9.508749554228113965e+00,0.000000000000000000e+00,-2.350023654479152846e+00
9.511730728073043650e+00,0.000000000000000000e+00,-2.337928103743989183e+00
9.514680987701307657e+00,0.000000000000000000e+00,-2.325892294135770477e+00
9.517600650547723973e+00,0.000000000000000000e+00,-2.313915970457531834e+00
9.520490030853283159e+00,0.000000000000000000e+00,-2.301998877946764832e+00
9.523349439695898866e+00,0.000000000000000000e+00,-2.290140762287049991e+00
9.526179185020900775e+00,0.000000000000000000e+00,-2.278341369619445889e+00
9.528979571671250426e+00,0.000000000000000000e+00,-2.266600446553583392e+00
9.531750901417490596e+00,0.000000000000000000e+00,-2.254917740178513430e+00
9.534493472987447760e+00,0.000000000000000000e+00,-2.243292998073288746e+00
9.537207582095669878e+00,0.000000000000000000e+00,-2.231725968317292086e+00
9.539893521472594173e+00,0.000000000000000000e+00,-2.220216399500312132e+00
9.542551580893469776e+00,0.000000000000000000e+00,-2.208764040732378309e+00
9.545182047207031673e+00,0.000000000000000000e+00,-2.197368641653346000e+00
9.547785204363902878e+00,0.000000000000000000e+00,-2.186029952442246405e+00
9.550361333444758571e+00,0.000000000000000000e+00,-2.174747723826410351e+00
9.552910712688241546e+00,0.000000000000000000e+00,-2.163521707090345636e+00
9.555433617518621858e+00,0.000000000000000000e+00,-2.152351654084407429e+00
9.557930320573211347e+00,0.000000000000000000e+00,-2.141237317233230186e+00
9.560401091729541889e+00,0.000000000000000000e+00,-2.130178449543951746e+00
9.562846198132291420e+00,0.000000000000000000e+00,-2.119174804614213592e+00
9.565265904219968363e+00,0.000000000000000000e+00,-2.108226136639963055e+00
9.567660471751365137e+00,0.000000000000000000e+00,-2.097332200423037918e+00
9.570030159831770078e+00,0.000000000000000000e+00,-2.086492751378545396e+00
9.572375224938932448e+00,0.000000000000000000e+00,-2.075707545542053278e+00
9.574695920948814276e+00,0.000000000000000000e+00,-2.064976339576571451e+00
9.576992499161082861e+00,0.000000000000000000e+00,-2.054298890779346021e+00
9.579265208324402536e+00,0.000000000000000000e+00,-2.043674957088466471e+00
9.581514294661465314e+00,0.000000000000000000e+00,-2.033104297089278312e+00
9.583740001893820804e+00,0.000000000000000000e+00,-2.022586670020621202e+00
9.585942571266462764e+00,0.000000000000000000e+00,-2.012121835780875667e+00
9.588122241572195392e+00,0.000000000000000000e+00,-2.001709554933849056e+00
9.590279249175782894e+00,0.000000000000000000e+00,-1.991349588714469432e+00
9.592413828037868129e+00,0.000000000000000000e+00,-1.981041699034324033e+00
9.594526209738679867e+00,0.000000000000000000e+00,-1.970785648487020980e+00
9.596616623501523335e+00,0.000000000000000000e+00,-1.960581200353386233e+00
9.598685296216038054e+00,0.000000000000000000e+00,-1.950428118606506889e+00
9.600732452461269162e+00,0.000000000000000000e+00,-1.940326167916603728e+00
9.602758314528495376e+00,0.000000000000000000e+00,-1.930275113655758767e+00
9.604763102443872214e+00,0.000000000000000000e+00,-1.920274721902481163e+00
9.606747033990849616e+00,0.000000000000000000e+00,-1.910324759446127230e+00
9.608710324732383512e+00,0.000000000000000000e+00,-1.900424993791172579e+00
9.610653188032948435e+00,0.000000000000000000e+00,-1.890575193161332823e+00
9.612575835080338749e+00,0.000000000000000000e+00,-1.880775126503548833e+00
9.614478474907263816e+00,0.000000000000000000e+00,-1.871024563491832549e+00
9.616361314412754879e+00,0.000000000000000000e+00,-1.861323274530968019e+00
9.618224558383360545e+00,0.000000000000000000e+00,-1.851671030760083658e+00
9.620068409514141550e+00,0.000000000000000000e+00,-1.842067604056089936e+00
9.621893068429482554e+00,0.000000000000000000e+00,-1.832512767036987400e+00
9.623698733703697883e+00,0.000000000000000000e+00,-1.823006293065043470e+00
9.625485601881440090e+00,0.000000000000000000e+00,-1.813547956249851101e+00
9.627253867497930884e+00,0.000000000000000000e+00,-1.804137531451257992e+00
9.629003723098993106e+00,0.000000000000000000e+00,-1.794774794282178787e+00
9.630735359260887307e+00,0.000000000000000000e+00,-1.785459521111286474e+00
9.632448964609979569e+00,0.000000000000000000e+00,-1.776191489065583884e+00
9.634144725842199719e+00,0.000000000000000000e+00,-1.766970476032873272e+00
9.635822827742330787e+00,0.000000000000000000e+00,-1.757796260664099108e+00
9.637483453203120831e+00,0.000000000000000000e+00,-1.748668622375590065e+00
9.639126783244195806e+00,0.000000000000000000e+00,-1.739587341351190641e+00
9.640752997030803684e+00,0.000000000000000000e+00,-1.730552198544283993e+00
9.642362271892386261e+00,0.000000000000000000e+00,-1.721562975679720386e+00
9.643954783340950243e+00,0.000000000000000000e+00,-1.712619455255627310e+00
9.645530705089303325e+00,0.000000000000000000e+00,-1.703721420545138754e+00
9.647090209069069999e+00,0.000000000000000000e+00,-1.694868655598010143e+00
9.648633465448568813e+00,0.000000000000000000e+00,-1.686060945242145781e+00
9.650160642650511988e+00,0.000000000000000000e+00,-1.677298075085033036e+00
9.651671907369522074e+00,0.000000000000000000e+00,-1.668579831515075274e+00
9.653167424589495837e+00,0.000000000000000000e+00,-1.659906001702842637e+00
9.654647357600792290e+00,0.000000000000000000e+00,-1.651276373602233782e+00
9.656111868017264399e+00,0.000000000000000000e+00,-1.642690735951539915e+00
9.657561115793122042e+00,0.000000000000000000e+00,-1.634148878274438443e+00
9.658995259239624431e+00,0.000000000000000000e+00,-1.625650590880889368e+00
9.660414455041625104e+00,0.000000000000000000e+00,-1.617195664867956850e+00
9.661818858273962363e+00,0.000000000000000000e+00,-1.608783892120547510e+00
9.663208622417663207e+00,0.000000000000000000e+00,-1.600415065312072116e+00
9.664583899376021137e+00,0.000000000000000000e+00,-1.592088977905025793e+00
9.665944839490508755e+00,0.000000000000000000e+00,-1.583805424151494501e+00
9.667291591556525177e+00,0.000000000000000000e+00,-1.575564199093588691e+00
9.668624302839003093e+00,0.000000000000000000e+00,-1.567365098563797909e+00
9.669943119087868411e+00,0.000000000000000000e+00,-1.559207919185285673e+00
9.671248184553331129e+00,0.000000000000000000e+00,-1.551092458372099525e+00
9.672539642001051874e+00,0.000000000000000000e+00,-1.543018514329322910e+00
9.673817632727139681e+00,0.000000000000000000e+00,-1.534985886053157111e+00
9.675082296573014773e+00,0.000000000000000000e+00,-1.526994373330933463e+00
9.676333771940131001e+00,0.000000000000000000e+00,-1.519043776741070051e+00
9.677572195804540200e+00,0.000000000000000000e+00,-1.511133897652954250e+00
9.678797703731323310e+00,0.000000000000000000e+00,-1.503264538226773084e+00
9.680010429888891821e+00,0.000000000000000000e+00,-1.495435501413272084e+00
9.681210507063122250e+00,0.000000000000000000e+00,-1.487646590953467518e+00
9.682398066671382253e+00,0.000000000000000000e+00,-1.479897611378290900e+00
9.683573238776393310e+00,0.000000000000000000e+00,-1.472188368008180870e+00
9.684736152099974404e+00,0.000000000000000000e+00,-1.464518666952618897e+00
9.685886934036654239e+00,0.000000000000000000e+00,-1.456888315109607257e+00
9.687025710667130696e+00,0.000000000000000000e+00,-1.449297120165103259e+00
9.688152606771616604e+00,0.000000000000000000e+00,-1.441744890592382422e+00
9.689267745843041624e+00,0.000000000000000000e+00,-1.434231435651376341e+00
9.690371250100138667e+00,0.000000000000000000e+00,-1.426756565387934383e+00
9.691463240500386433e+00,0.000000000000000000e+00,-1.419320090633057641e+00
9.692543836752836484e+00,0.000000000000000000e+00,-1.411921823002072918e+00
9.693613157330801755e+00,0.000000000000000000e+00,-1.404561574893759657e+00
9.694671319484436722e+00,0.000000000000000000e+00,-1.397239159489441995e+00
9.695718439253177223e+00,0.000000000000000000e+00,-1.389954390752025315e+00
9.696754631478063047e+00,0.000000000000000000e+00,-1.382707083424987715e+00
9.697780009813946833e+00,0.000000000000000000e+00,-1.375497053031342620e+00
9.698794686741571525e+00,0.000000000000000000e+00,-1.368324115872542102e+00
9.699798773579530575e+00,0.000000000000000000e+00,-1.361188089027354886e+00
9.700792380496116252e+00,0.000000000000000000e+00,-1.354088790350689742e+00
9.701775616521043588e+00,0.000000000000000000e+00,-1.347026038472394438e+00
9.702748589557057102e+00,0.000000000000000000e+00,-1.339999652796005636e+00
9.703711406391436256e+00,0.000000000000000000e+00,-1.333009453497466801e+00
9.704664172707365921e+00,0.000000000000000000e+00,-1.326055261523804152e+00
9.705606993095205581e+00,0.000000000000000000e+00,-1.319136898591779961e+00
9.706539971063653738e+00,0.000000000000000000e+00,-1.312254187186496113e+00
9.707463209050786190e+00,0.000000000000000000e+00,-1.305406950559971468e+00
9.708376808434996619e+00,0.000000000000000000e+00,-1.298595012729686138e+00
9.709280869545812820e+00,0.000000000000000000e+00,-1.291818198477089563e+00
9.710175491674633008e+00,0.000000000000000000e+00,-1.285076333346085509e+00
9.711060773085318232e+00,0.000000000000000000e+00,-1.278369243641477748e+00
9.711936811024717287e+00,0.000000000000000000e+00,-1.271696756427385555e+00
9.712803701733058404e+00,0.000000000000000000e+00,-1.265058699525639208e+00
9.713661540454245014e+00,0.000000000000000000e+00,-1.258454901514142188e+00
9.714510421446057364e+00,0.000000000000000000e+00,-1.251885191725196522e+00
9.715350437990245780e+00,0.000000000000000000e+00,-1.245349400243818128e+00
9.716181682402515563e+00,0.000000000000000000e+00,-1.238847357906011082e+00
9.717004246042430182e+00,0.000000000000000000e+00,-1.232378896297029458e+00
9.717818219323193674e+00,0.000000000000000000e+00,-1.225943847749596527e+00
9.718623691721356650e+00,0.000000000000000000e+00,-1.219542045342119518e+00
9.719420751786408630e+00,0.000000000000000000e+00,-1.213173322896868633e+00
9.720209487150279770e+00,0.000000000000000000e+00,-1.206837514978135628e+00
9.720989984536752004e+00,0.000000000000000000e+00,-1.200534456890365087e+00
9.721762329770772482e+00,0.000000000000000000e+00,-1.194263984676277479e+00
9.722526607787665753e+00,0.000000000000000000e+00,-1.188025935114958909e+00
9.723282902642266023e+00,0.000000000000000000e+00,-1.181820145719929549e+00
9.724031297517957029e+00,0.000000000000000000e+00,-1.175646454737204527e+00
9.724771874735601784e+00,0.000000000000000000e+00,-1.169504701143321057e+00
9.725504715762411934e+00,0.000000000000000000e+00,-1.163394724643356026e+00
9.726229901220708740e+00,0.000000000000000000e+00,-1.157316365668920488e+00
9.726947510896593485e+00,0.000000000000000000e+00,-1.151269465376136392e+00
9.727657623748550364e+00,0.000000000000000000e+00,-1.145253865643601765e+00
9.728360317915933919e+00,0.000000000000000000e+00,-1.139269409070332584e+00
9.729055670727404959e+00,0.000000000000000000e+00,-1.133315938973691983e+00
9.729743758709245682e+00,0.000000000000000000e+00,-1.127393299387298375e+00
9.730424657593621518e+00,0.000000000000000000e+00,-1.121501335058929572e+00
9.731098442326739928e+00,0.000000000000000000e+00,-1.115639891448400256e+00
9.731765187076938162e+00,0.000000000000000000e+00,-1.109808814725432358e+00
9.732424965242682191e+00,0.000000000000000000e+00,-1.104007951767507212e+00
9.733077849460485709e+00,0.000000000000000000e+00,-1.098237150157709507e+00
9.733723911612759849e+00,0.000000000000000000e+00,-1.092496258182553470e+00
9.734363222835563434e+00,0.000000000000000000e+00,-1.086785124829796834e+00
9.734995853526292819e+00,0.000000000000000000e+00,-1.081103599786250147e+00
9.735621873351286482e+00,0.000000000000000000e+00,-1.075451533435560769e+00
9.736241351253351439e+00,0.000000000000000000e+00,-1.069828776856001973e+00
9.736854355459220400e+00,0.000000000000000000e+00,-1.064235181818238951e+00
9.737460953486923643e+00,0.000000000000000000e+00,-1.058670600783088167e+00
9.738061212153093393e+00,0.000000000000000000e+00,-1.053134886899269818e+00
9.738655197580188272e+00,0.000000000000000000e+00,-1.047627894001144755e+00
9.739242975203659114e+00,0.000000000000000000e+00,-1.042149476606448744e+00
9.739824609779013542e+00,0.000000000000000000e+00,-1.036699489914012728e+00
9.740400165388846787e+00,0.000000000000000000e+00,-1.031277789801479106e+00
9.740969705449764149e+00,0.000000000000000000e+00,-1.025884232823004671e+00
9.741533292719257275e+00,0.000000000000000000e+00,-1.020518676206960240e+00
9.742090989302505832e+00,0.000000000000000000e+00,-1.015180977853621602e+00
9.742642856659101014e+00,0.000000000000000000e+00,-1.009870996332850934e+00
9.743188955609710433e+00,0.000000000000000000e+00,-1.004588590881778432e+00
9.743729346342679065e+00,0.000000000000000000e+00,-9.993336214024693964e-01
9.744264088420539593e+00,0.000000000000000000e+00,-9.941059484595891060e-01
9.744793240786489008e+00,0.000000000000000000e+00,-9.889054332780620182e-01
9.745316861770774608e+00,0.000000000000000000e+00,-9.837319377407262033e-01
9.745835009097028490e+00,0.000000000000000000e+00,-9.785853243859790052e-01
9.746347739888530981e+00,0.000000000000000000e+00,-9.734654564054232573e-01
9.746855110674410128e+00,0.000000000000000000e+00,-9.683721976415042842e-01
9.747357177395780781e+00,0.000000000000000000e+00,-9.633054125851472360e-01
9.747853995411826844e+00,0.000000000000000000e+00,-9.582649663733835421e-01
9.748345619505803583e+00,0.000000000000000000e+00,-9.532507247869823619e-01
9.748832103891000855e+00,0.000000000000000000e+00,-9.482625542480709324e-01
9.749313502216626404e+00,0.000000000000000000e+00,-9.433003218177566929e-01
9.749789867573646518e+00,0.000000000000000000e+00,-9.383638951937450789e-01
9.750261252500548537e+00,0.000000000000000000e+00,-9.334531427079520993e-01
9.750727708989062492e+00,0.000000000000000000e+00,-9.285679333241187994e-01
9.751189288489809925e+00,0.000000000000000000e+00,-9.237081366354222833e-01
9.751646041917908292e+00,0.000000000000000000e+00,-9.188736228620828506e-01
9.752098019658500760e+00,0.000000000000000000e+00,-9.140642628489694665e-01
9.752545271572250485e+00,0.000000000000000000e+00,-9.092799280632082315e-01
9.752987847000758492e+00,0.000000000000000000e+00,-9.045204905917836324e-01
9.753425794771942492e+00,0.000000000000000000e+00,-8.997858231391459016e-01
9.753859163205351734e+00,0.000000000000000000e+00,-8.950757990248047191e-01
9.754288000117426805e+00,0.000000000000000000e+00,-8.903902921809431215e-01
9.754712352826713229e+00,0.000000000000000000e+00,-8.857291771500083177e-01
9.755132268159011133e+00,0.000000000000000000e+00,-8.810923290823180487e-01
9.755547792452487599e+00,0.000000000000000000e+00,-8.764796237336596185e-01
9.755958971562712634e+00,0.000000000000000000e+00,-8.718909374628939224e-01
9.756365850867670275e+00,0.000000000000000000e+00,-8.673261472295552554e-01
9.756768475272700414e+00,0.000000000000000000e+00,-8.627851305914553404e-01
9.757166889215399763e+00,0.000000000000000000e+00,-8.582677657022838025e-01
9.757561136670458879e+00,0.000000000000000000e+00,-8.537739313092176374e-01
9.757951261154472533e+00,0.000000000000000000e+00,-8.493035067505207980e-01
9.758337305730677258e+00,0.000000000000000000e+00,-8.448563719531573257e-01
9.758719313013651586e+00,0.000000000000000000e+00,-8.404324074303907155e-01
9.759097325173975435e+00,0.000000000000000000e+00,-8.360314942794033755e-01
9.759471383942820211e+00,0.000000000000000000e+00,-8.316535141789038743e-01
9.759841530616512273e+00,0.000000000000000000e+00,-8.272983493867389626e-01
9.760207806061044877e+00,0.000000000000000000e+00,-8.229658827375145869e-01
9.760570250716533280e+00,0.000000000000000000e+00,-8.186559976402069116e-01
9.760928904601637868e+00,0.000000000000000000e+00,-8.143685780757886628e-01
9.761283807317928662e+00,0.000000000000000000e+00,-8.101035085948505854e-01
9.761634998054224965e+00,0.000000000000000000e+00,-8.058606743152278984e-01
9.761982515590860388e+00,0.000000000000000000e+00,-8.016399609196244169e-01
9.762326398303939001e+00,0.000000000000000000e+00,-7.974412546532527735e-01
9.762666684169511555e+00,0.000000000000000000e+00,-7.932644423214610940e-01
9.763003410767742807e+00,0.000000000000000000e+00,-7.891094112873761057e-01
9.763336615287013132e+00,0.000000000000000000e+00,-7.849760494695406932e-01
9.763666334527986379e+00,0.000000000000000000e+00,-7.808642453395612248e-01
9.763992604907631545e+00,0.000000000000000000e+00,-7.767738879197574331e-01
9.764315462463210693e+00,0.000000000000000000e+00,-7.727048667808094073e-01
9.764634942856218913e+00,0.000000000000000000e+00,-7.686570720394215739e-01
9.764951081376286979e+00,0.000000000000000000e+00,-7.646303943559740190e-01
9.765263912945043145e+00,0.000000000000000000e+00,-7.606247249321903547e-01
9.765573472119930543e+00,0.000000000000000000e+00,-7.566399555088103579e-01
9.765879793097999695e+00,0.000000000000000000e+00,-7.526759783632561707e-01
9.766182909719637095e+00,0.000000000000000000e+00,-7.487326863073110461e-01
9.766482855472288449e+00,0.000000000000000000e+00,-7.448099726848033120e-01
9.766779663494109087e+00,0.000000000000000000e+00,-7.409077313692867817e-01
9.767073366577601945e+00,0.000000000000000000e+00,-7.370258567617360423e-01
9.767363997173204027e+00,0.000000000000000000e+00,-7.331642437882431862e-01
9.767651587392848000e+00,0.000000000000000000e+00,-7.293227878977122103e-01
9.767936169013470504e+00,0.000000000000000000e+00,-7.255013850595679603e-01
9.768217773480502686e+00,0.000000000000000000e+00,-7.216999317614676279e-01
9.768496431911311007e+00,0.000000000000000000e+00,-7.179183250070149125e-01
9.768772175098607846e+00,0.000000000000000000e+00,-7.141564623134768475e-01
9.769045033513828358e+00,0.000000000000000000e+00,-7.104142417095142825e-01
9.769315037310466465e+00,0.000000000000000000e+00,-7.066915617329104782e-01
9.769582216327384216e+00,0.000000000000000000e+00,-7.029883214283106918e-01
9.769846600092087385e+00,0.000000000000000000e+00,-6.993044203449584328e-01
9.770108217823947783e+00,0.000000000000000000e+00,-6.956397585344485934e-01
9.770367098437427344e+00,0.000000000000000000e+00,-6.919942365484812452e-01
9.770623270545234718e+00,0.000000000000000000e+00,-6.883677554366137707e-01
9.770876762461471188e+00,0.000000000000000000e+00,-6.847602167440302035e-01
9.771127602204733975e+00,0.000000000000000000e+00,-6.811715225093133430e-01
9.771375817501189331e+00,0.000000000000000000e+00,-6.776015752622179811e-01
9.771621435787618992e+00,0.000000000000000000e+00,-6.740502780214554512e-01
9.771864484214423996e+00,0.000000000000000000e+00,-6.705175342924785120e-01
9.772104989648610740e+00,0.000000000000000000e+00,-6.670032480652787754e-01
9.772342978676736180e+00,0.000000000000000000e+00,-6.635073238121885764e-01
9.772578477607826386e+00,0.000000000000000000e+00,-6.600296664856818429e-01
9.772811512476268447e+00,0.000000000000000000e+00,-6.565701815161959498e-01
9.773042109044663306e+00,0.000000000000000000e+00,-6.531287748099394719e-01
9.773270292806659043e+00,0.000000000000000000e+00,-6.497053527467269163e-01
9.773496088989745090e+00,0.000000000000000000e+00,-6.462998221778081254e-01
9.773719522558028672e+00,0.000000000000000000e+00,-6.429120904237060063e-01
9.773940618214970399e+00,0.000000000000000000e+00,-6.395420652720608112e-01
9.774159400406107423e+00,0.000000000000000000e+00,-6.361896549754816332e-01
9.774375893321726849e+00,0.000000000000000000e+00,-6.328547682494025661e-01
9.774590120899530277e+00,0.000000000000000000e+00,-6.295373142699504099e-01
9.774802106827261028e+00,0.000000000000000000e+00,-6.262372026718155960e-01
9.775011874545313617e+00,0.000000000000000000e+00,-6.229543435461266654e-01
9.775219447249302362e+00,0.000000000000000000e+00,-6.196886474383352938e-01
9.775424847892606905e+00,0.000000000000000000e+00,-6.164400253461095325e-01
9.775628099188907072e+00,0.000000000000000000e+00,-6.132083887172289360e-01
9.775829223614671548e+00,0.000000000000000000e+00,-6.099936494474921256e-01
9.776028243411628793e+00,0.000000000000000000e+00,-6.067957198786249062e-01
9.776225180589218411e+00,0.000000000000000000e+00,-6.036145127962012635e-01
9.776420056926999891e+00,0.000000000000000000e+00,-6.004499414275673574e-01
9.776612893977057794e+00,0.000000000000000000e+00,-5.973019194397726217e-01
9.776803713066366086e+00,0.000000000000000000e+00,-5.941703609375103001e-01
9.776992535299136478e+00,0.000000000000000000e+00,-5.910551804610619797e-01
9.777179381559138349e+00,0.000000000000000000e+00,-5.879562929842532260e-01
9.777364272511990251e+00,0.000000000000000000e+00,-5.848736139124068867e-01
9.777547228607447849e+00,0.000000000000000000e+00,-5.818070590803211539e-01
9.777728270081638584e+00,0.000000000000000000e+00,-5.787565447502303062e-01
9.777907416959290998e+00,0.000000000000000000e+00,-5.757219876097977584e-01
9.778084689055944523e+00,0.000000000000000000e+00,-5.727033047700961221e-01
9.778260105980127292e+00,0.000000000000000000e+00,-5.697004137636032528e-01
9.778433687135505537e+00,0.000000000000000000e+00,-5.667132325422108430e-01
9.778605451723029418e+00,0.000000000000000000e+00,-5.637416794752262428e-01
9.778775418743045122e+00,0.000000000000000000e+00,-5.607856733473939315e-01
9.778943606997378524e+00,0.000000000000000000e+00,-5.578451333569185433e-01
9.779110035091413522e+00,0.000000000000000000e+00,-5.549199791134896698e-01
9.779274721436133078e+00,0.000000000000000000e+00,-5.520101306363318638e-01
9.779437684250151364e+00,0.000000000000000000e+00,-5.491155083522403224e-01
9.779598941561715719e+00,0.000000000000000000e+00,-5.462360330936363306e-01
9.779758511210694394e+00,0.000000000000000000e+00,-5.433716260966263700e-01
9.779916410850537645e+00,0.000000000000000000e+00,-5.405222089990708856e-01
9.780072657950226400e+00,0.000000000000000000e+00,-5.376877038386604912e-01
9.780227269796192502e+00,0.000000000000000000e+00,-5.348680330509884007e-01
9.780380263494219406e+00,0.000000000000000000e+00,-5.320631194676495035e-01
9.780531655971335780e+00,0.000000000000000000e+00,-5.292728863143321139e-01
9.780681463977670020e+00,0.000000000000000000e+00,-5.264972572089197111e-01
9.780829704088301213e+00,0.000000000000000000e+00,-5.237361561596028947e-01
9.780976392705083455e+00,0.000000000000000000e+00,-5.209895075629968897e-01
9.781121546058452410e+00,0.000000000000000000e+00,-5.182572362022697110e-01
9.781265180209210541e+00,0.000000000000000000e+00,-5.155392672452667746e-01
9.781407311050301701e+00,0.000000000000000000e+00,-5.128355262426601557e-01
9.781547954308564385e+00,0.000000000000000000e+00,-5.101459391260891874e-01
9.781687125546453032e+00,0.000000000000000000e+00,-5.074704322063151585e-01
9.781824840163764634e+00,0.000000000000000000e+00,-5.048089321713857824e-01
9.781961113399333385e+00,0.000000000000000000e+00,-5.021613660847997762e-01
9.782095960332705786e+00,0.000000000000000000e+00,-4.995276613836852619e-01
9.782229395885805090e+00,0.000000000000000000e+00,-4.969077458769846078e-01
9.782361434824576207e+00,0.000000000000000000e+00,-4.943015477436430993e-01
9.782492091760614628e+00,0.000000000000000000e+00,-4.917089955308057148e-01
9.782621381152779350e+00,0.000000000000000000e+00,-4.891300181520218393e-01
9.782749317308775616e+00,0.000000000000000000e+00,-4.865645448854636346e-01
9.782875914386744753e+00,0.000000000000000000e+00,-4.840125053721372472e-01
9.783001186396822035e+00,0.000000000000000000e+00,-4.814738296141141127e-01
9.783125147202676786e+00,0.000000000000000000e+00,-4.789484479727665334e-01
9.783247810523043597e+00,0.000000000000000000e+00,-4.764362911670064760e-01
9.783369189933239340e+00,0.000000000000000000e+00,-4.739372902715360825e-01
9.783489298866653527e+00,0.000000000000000000e+00,-4.714513767150979029e-01
9.783608150616235122e+00,0.000000000000000000e+00,-4.689784822787463892e-01
9.783725758335950928e+00,0.000000000000000000e+00,-4.665185390941135046e-01
9.783842135042249311e+00,0.000000000000000000e+00,-4.640714796416876564e-01
9.783957293615481277e+00,0.000000000000000000e+00,-4.616372367490955697e-01
9.784071246801330446e+00,0.000000000000000000e+00,-4.592157435893951534e-01
9.784184007212218148e+00,0.000000000000000000e+00,-4.568069336793785240e-01
9.784295587328692534e+00,0.000000000000000000e+00,-4.544107408778761958e-01
9.784405999500803475e+00,0.000000000000000000e+00,-4.520270993840660445e-01
9.784515255949472134e+00,0.000000000000000000e+00,-4.496559437357989242e-01
9.784623368767830343e+00,0.000000000000000000e+00,-4.472972088079237296e-01
9.784730349922563519e+00,0.000000000000000000e+00,-4.449508298106251702e-01
9.784836211255223404e+00,0.000000000000000000e+00,-4.426167422877642643e-01
9.784940964483539005e+00,0.000000000000000000e+00,-4.402948821152238845e-01
9.785044621202708015e+00,0.000000000000000000e+00,-4.379851854992725113e-01
9.785147192886682888e+00,0.000000000000000000e+00,-4.356875889749163844e-01
9.785248690889421397e+00,0.000000000000000000e+00,-4.334020294042823518e-01
9.785349126446158508e+00,0.000000000000000000e+00,-4.311284439749872854e-01
9.785448510674633837e+00,0.000000000000000000e+00,-4.288667701985205416e-01
9.785546854576317344e+00,0.000000000000000000e+00,-4.266169459086441296e-01
9.785644169037640339e+00,0.000000000000000000e+00,-4.243789092597838875e-01
9.785740464831174990e+00,0.000000000000000000e+00,-4.221525987254380330e-01
9.785835752616836913e+00,0.000000000000000000e+00,-4.199379530965860474e-01
9.785930042943061125e+00,0.000000000000000000e+00,-4.177349114801128249e-01
9.786023346247963772e+00,0.000000000000000000e+00,-4.155434132972309347e-01
9.786115672860491443e+00,0.000000000000000000e+00,-4.133633982819154284e-01
9.786207033001566913e+00,0.000000000000000000e+00,-4.111948064793466973e-01
9.786297436785215353e+00,0.000000000000000000e+00,-4.090375782443543273e-01
9.786386894219686994e+00,0.000000000000000000e+00,-4.068916542398686720e-01
9.786475415208547801e+00,0.000000000000000000e+00,-4.047569754353899096e-01
9.786563009551784376e+00,0.000000000000000000e+00,-4.026334831054441676e-01
9.786649686946887527e+00,0.000000000000000000e+00,-4.005211188280685675e-01
9.786735456989914539e+00,0.000000000000000000e+00,-3.984198244832899971e-01
9.786820329176556754e+00,0.000000000000000000e+00,-3.963295422516064370e-01
9.786904312903182301e+00,0.000000000000000000e+00,-3.942502146124906570e-01
9.786987417467875261e+00,0.000000000000000000e+00,-3.921817843428877515e-01
9.787069652071469505e+00,0.000000000000000000e+00,-3.901241945157238877e-01
9.787151025818552341e+00,0.000000000000000000e+00,-3.880773884984244360e-01
9.787231547718480584e+00,0.000000000000000000e+00,-3.860413099514286572e-01
9.787311226686369992e+00,0.000000000000000000e+00,-3.840159028267259855e-01
9.787390071544086467e+00,0.000000000000000000e+00,-3.820011113663869251e-01
9.787468091021207073e+00,0.000000000000000000e+00,-3.799968801011074926e-01
9.787545293756004128e+00,0.000000000000000000e+00,-3.780031538487563791e-01
9.787621688296377798e+00,0.000000000000000000e+00,-3.760198777129316050e-01
9.787697283100820655e+00,0.000000000000000000e+00,-3.740469970815180067e-01
9.787772086539337835e+00,0.000000000000000000e+00,-3.720844576252623215e-01
9.787846106894374287e+00,0.000000000000000000e+00,-3.701322052963432196e-01
9.787919352361736713e+00,0.000000000000000000e+00,-3.681901863269522734e-01
9.787991831051494174e+00,0.000000000000000000e+00,-3.662583472278874153e-01
9.788063550988871597e+00,0.000000000000000000e+00,-3.643366347871416777e-01
9.788134520115139736e+00,0.000000000000000000e+00,-3.624249960685070882e-01
9.788204746288494462e+00,0.000000000000000000e+00,-3.605233784101828931e-01
9.788274237284920076e+00,0.000000000000000000e+00,-3.586317294233852260e-01
9.788343000799054394e+00,0.000000000000000000e+00,-3.567499969909742052e-01
9.788411044445034292e+00,0.000000000000000000e+00,-3.548781292660746489e-01
9.788478375757335925e+00,0.000000000000000000e+00,-3.530160746707113328e-01
9.788545002191616717e+00,0.000000000000000000e+00,-3.511637818944488010e-01
9.788610931125528936e+00,0.000000000000000000e+00,-3.493211998930376150e-01
9.788676169859536813e+00,0.000000000000000000e+00,-3.474882778870665989e-01
9.788740725617730121e+00,0.000000000000000000e+00,-3.456649653606201356e-01
9.788804605548616422e+00,0.000000000000000000e+00,-3.438512120599453992e-01
9.788867816725911553e+00,0.000000000000000000e+00,-3.420469679921159245e-01
9.788930366149321216e+00,0.000000000000000000e+00,-3.402521834237207110e-01
9.788992260745320806e+00,0.000000000000000000e+00,-3.384668088795385610e-01
9.789053507367913909e+00,0.000000000000000000e+00,-3.366907951412292377e-01
9.789114112799392586e+00,0.000000000000000000e+00,-3.349240932460321174e-01
9.789174083751083444e+00,0.000000000000000000e+00,-3.331666544854678391e-01
9.789233426864097254e+00,0.000000000000000000e+00,-3.314184304040439510e-01
9.789292148710060815e+00,0.000000000000000000e+00,-3.296793727979719368e-01
9.789350255791832822e+00,0.000000000000000000e+00,-3.279494337138834092e-01
9.789407754544241058e+00,0.000000000000000000e+00,-3.262285654475586827e-01
9.789464651334776946e+00,0.000000000000000000e+00,-3.245167205426650603e-01
9.789520952464309644e+00,0.000000000000000000e+00,-3.228138517894830195e-01
9.789576664167780606e+00,0.000000000000000000e+00,-3.211199122236623738e-01
9.789631792614889250e+00,0.000000000000000000e+00,-3.194348551249664991e-01
9.789686343910776856e+00,0.000000000000000000e+00,-3.177586340160304945e-01
9.789740324096708690e+00,0.000000000000000000e+00,-3.160912026611212844e-01
9.789793739150731255e+00,0.000000000000000000e+00,-3.144325150649096012e-01
9.789846594988336648e+00,0.000000000000000000e+00,-3.127825254712427450e-01
9.789898897463119809e+00,0.000000000000000000e+00,-3.111411883619220053e-01
9.789950652367426898e+00,0.000000000000000000e+00,-3.095084584554909646e-01
9.790001865432985895e+00,0.000000000000000000e+00,-3.078842907060262979e-01
9.790052542331553198e+00,0.000000000000000000e+00,-3.062686403019379555e-01
9.790102688675531795e+00,0.000000000000000000e+00,-3.046614626647688451e-01
9.790152310018594761e+00,0.000000000000000000e+00,-3.030627134480044504e-01
9.790201411856303437e+00,0.000000000000000000e+00,-3.014723485358902777e-01
9.790249999626706057e+00,0.000000000000000000e+00,-2.998903240422489125e-01
9.790298078710950591e+00,0.000000000000000000e+00,-2.983165963093069584e-01
9.790345654433867395e+00,0.000000000000000000e+00,-2.967511219065276373e-01
9.790392732064569614e+00,0.000000000000000000e+00,-2.951938576294517169e-01
9.790439316817026949e+00,0.000000000000000000e+00,-2.936447604985329418e-01
9.790485413850650076e+00,0.000000000000000000e+00,-2.921037877579927833e-01
9.790531028270853753e+00,0.000000000000000000e+00,-2.905708968746720244e-01
9.790576165129628805e+00,0.000000000000000000e+00,-2.890460455368946135e-01
9.790620829426092797e+00,0.000000000000000000e+00,-2.875291916533248560e-01
9.790665026107053137e+00,0.000000000000000000e+00,-2.860202933518473101e-01
9.790708760067543537e+00,0.000000000000000000e+00,-2.845193089784395779e-01
9.790752036151372906e+00,0.000000000000000000e+00,-2.830261970960513684e-01
9.790794859151658258e+00,0.000000000000000000e+00,-2.815409164834956623e-01
9.790837233811355844e+00,0.000000000000000000e+00,-2.800634261343392106e-01
9.790879164823783398e+00,0.000000000000000000e+00,-2.785936852558057453e-01
9.790920656833147717e+00,0.000000000000000000e+00,-2.771316532676717515e-01
9.790961714435042040e+00,0.000000000000000000e+00,-2.756772898011792816e-01
9.791002342176971851e+00,0.000000000000000000e+00,-2.742305546979525444e-01
9.791042544558848704e+00,0.000000000000000000e+00,-2.727914080089135496e-01
9.791082326033489380e+00,0.000000000000000000e+00,-2.713598099932066354e-01
9.791121691007107941e+00,0.000000000000000000e+00,-2.699357211171344861e-01
9.791160643839804223e+00,0.000000000000000000e+00,-2.685191020530880435e-01
9.791199188846050561e+00,0.000000000000000000e+00,-2.671099136784882977e-01
9.791237330295160746e+00,0.000000000000000000e+00,-2.657081170747322418e-01
9.791275072411764313e+00,0.000000000000000000e+00,-2.643136735261467085e-01
9.791312419376282605e+00,0.000000000000000000e+00,-2.629265445189376549e-01
9.791349375325378190e+00,0.000000000000000000e+00,-2.615466917401581548e-01
9.791385944352423820e+00,0.000000000000000000e+00,-2.601740770766743371e-01
9.791422130507946520e+00,0.000000000000000000e+00,-2.588086626141321567e-01
9.791457937800084110e+00,0.000000000000000000e+00,-2.574504106359395972e-01
9.791493370195022194e+00,0.000000000000000000e+00,-2.560992836222460434e-01
9.791528431617434691e+00,0.000000000000000000e+00,-2.547552442489273705e-01
9.791563125950919044e+00,0.000000000000000000e+00,-2.534182553865777510e-01
9.791597457038426100e+00,0.000000000000000000e+00,-2.520882800995133399e-01
9.791631428682684657e+00,0.000000000000000000e+00,-2.507652816447630828e-01
9.791665044646624239e+00,0.000000000000000000e+00,-2.494492234710826706e-01
9.791698308653785432e+00,0.000000000000000000e+00,-2.481400692179636103e-01
9.791731224388740884e+00,0.000000000000000000e+00,-2.468377827146531200e-01
9.791763795497493206e+00,0.000000000000000000e+00,-2.455423279791690561e-01
9.791796025587888863e+00,0.000000000000000000e+00,-2.442536692173317980e-01
9.791827918230008976e+00,0.000000000000000000e+00,-2.429717708217934424e-01
9.791859476956567221e+00,0.000000000000000000e+00,-2.416965973710755999e-01
9.791890705263304184e+00,0.000000000000000000e+00,-2.404281136286045284e-01
9.791921606609367501e+00,0.000000000000000000e+00,-2.391662845417608096e-01
9.791952184417700877e+00,0.000000000000000000e+00,-2.379110752409311913e-01
9.791982442075420678e+00,0.000000000000000000e+00,-2.366624510385600677e-01
9.792012382934187187e+00,0.000000000000000000e+00,-2.354203774282131179e-01
9.792042010310581190e+00,0.000000000000000000e+00,-2.341848200836347538e-01
9.792071327486469912e+00,0.000000000000000000e+00,-2.329557448578244150e-01
9.792100337709365832e+00,0.000000000000000000e+00,-2.317331177821058408e-01
9.792129044192792620e+00,0.000000000000000000e+00,-2.305169050652094709e-01
9.792157450116635076e+00,0.000000000000000000e+00,-2.293070730923519873e-01
9.792185558627494402e+00,0.000000000000000000e+00,-2.281035884243242384e-01
9.792213372839034591e+00,0.000000000000000000e+00,-2.269064177965835760e-01
9.792240895832330594e+00,0.000000000000000000e+00,-2.257155281183539364e-01
9.792268130656202274e+00,0.000000000000000000e+00,-2.245308864717195652e-01
9.792295080327562573e+00,0.000000000000000000e+00,-2.233524601107379493e-01
9.792321747831739032e+00,0.000000000000000000e+00,-2.221802164605477803e-01
9.792348136122813074e+00,0.000000000000000000e+00,-2.210141231164812203e-01
9.792374248123946856e+00,0.000000000000000000e+00,-2.198541478431868812e-01
9.792400086727701236e+00,0.000000000000000000e+00,-2.187002585737520266e-01
9.792425654796355516e+00,0.000000000000000000e+00,-2.175524234088272446e-01
9.792450955162237847e+00,0.000000000000000000e+00,-2.164106106157632770e-01
9.792475990628018323e+00,0.000000000000000000e+00,-2.152747886277439071e-01
9.792500763967035837e+00,0.000000000000000000e+00,-2.141449260429330592e-01
9.792525277923596505e+00,0.000000000000000000e+00,-2.130209916236134593e-01
9.792549535213279199e+00,0.000000000000000000e+00,-2.119029542953400902e-01
9.792573538523239307e+00,0.000000000000000000e+00,-2.107907831460911763e-01
9.792597290512501829e+00,0.000000000000000000e+00,-2.096844474254319357e-01
9.792620793812256252e+00,0.000000000000000000e+00,-2.085839165436694231e-01
9.792644051026154983e+00,0.000000000000000000e+00,-2.074891600710267459e-01
9.792667064730585125e+00,0.000000000000000000e+00,-2.064001477368103410e-01
9.792689837474974013e+00,0.000000000000000000e+00,-2.053168494285838308e-01
9.792712371782055669e+00,0.000000000000000000e+00,-2.042392351913499549e-01
9.792734670148163900e+00,0.000000000000000000e+00,-2.031672752267303095e-01
9.792756735043488092e+00,0.000000000000000000e+00,-2.021009398921602140e-01
9.792778568912371639e+00,0.000000000000000000e+00,-2.010401997000742513e-01
9.792800174173565964e+00,0.000000000000000000e+00,-1.999850253171029657e-01
9.792821553220498743e+00,0.000000000000000000e+00,-1.989353875632709212e-01
9.792842708421549247e+00,0.000000000000000000e+00,-1.978912574112081935e-01
9.792863642120300582e+00,0.000000000000000000e+00,-1.968526059853482058e-01
9.792884356635802590e+00,0.000000000000000000e+00,-1.958194045611471035e-01
9.792904854262831194e+00,0.000000000000000000e+00,-1.947916245642967170e-01
9.792925137272135316e+00,0.000000000000000000e+00,-1.937692375699456293e-01
9.792945207910698002e+00,0.000000000000000000e+00,-1.927522153019224360e-01
9.792965068401978002e+00,0.000000000000000000e+00,-1.917405296319653896e-01
9.792984720946156685e+00,0.000000000000000000e+00,-1.907341525789471304e-01
9.793004167720386732e+00,0.000000000000000000e+00,-1.897330563081194577e-01
9.793023410879026613e+00,0.000000000000000000e+00,-1.887372131303505507e-01
9.793042452553882171e+00,0.000000000000000000e+00,-1.877465955013628840e-01
9.793061294854441101e+00,0.000000000000000000e+00,-1.867611760209874627e-01
9.793079939868112760e+00,0.000000000000000000e+00,-1.857809274324122850e-01
9.793098389660450209e+00,0.000000000000000000e+00,-1.848058226214340516e-01
9.793116646275384696e+00,0.000000000000000000e+00,-1.838358346157213385e-01
9.793134711735449471e+00,0.000000000000000000e+00,-1.828709365840771039e-01
9.793152588042003615e+00,0.000000000000000000e+00,-1.819111018357035259e-01
9.793170277175461180e+00,0.000000000000000000e+00,-1.809563038194685058e-01
9.793187781095493705e+00,0.000000000000000000e+00,-1.800065161231854116e-01
9.793205101741266461e+00,0.000000000000000000e+00,-1.790617124728859644e-01
9.793222241031639186e+00,0.000000000000000000e+00,-1.781218667321057825e-01
9.793239200865386351e+00,0.000000000000000000e+00,-1.771869529011639022e-01
9.793255983121401442e+00,0.000000000000000000e+00,-1.762569451164566203e-01
9.793272589658910121e+00,0.000000000000000000e+00,-1.753318176497449810e-01
9.793289022317676285e+00,0.000000000000000000e+00,-1.744115449074533086e-01
9.793305282918199239e+00,0.000000000000000000e+00,-1.734961014299647442e-01
9.793321373261921536e+00,0.000000000000000000e+00,-1.725854618909302973e-01
9.793337295131431475e+00,0.000000000000000000e+00,-1.716796010965707941e-01
9.793353050290646067e+00,0.000000000000000000e+00,-1.707784939849877059e-01
9.793368640485025978e+00,0.000000000000000000e+00,-1.698821156254758102e-01
9.793384067441749607e+00,0.000000000000000000e+00,-1.689904412178402093e-01
9.793399332869919149e+00,0.000000000000000000e+00,-1.681034460917217588e-01
9.793414438460745330e+00,0.000000000000000000e+00,-1.672211057059137806e-01
9.793429385887728600e+00,0.000000000000000000e+00,-1.663433956476937370e-01
9.793444176806854529e+00,0.000000000000000000e+00,-1.654702916321529327e-01
9.793458812856766116e+00,0.000000000000000000e+00,-1.646017695015321303e-01
9.793473295658959188e+00,0.000000000000000000e+00,-1.637378052245574422e-01
9.793487626817945824e+00,0.000000000000000000e+00,-1.628783748957824684e-01
9.793501807921447977e+00,0.000000000000000000e+00,-1.620234547349324317e-01
9.793515840540557349e+00,0.000000000000000000e+00,-1.611730210862526436e-01
9.793529726229925458e+00,0.000000000000000000e+00,-1.603270504178589684e-01
9.793543466527923513e+00,0.000000000000000000e+00,-1.594855193210948097e-01
9.793557062956818271e+00,0.000000000000000000e+00,-1.586484045098812690e-01
9.793570517022937238e+00,0.000000000000000000e+00,-1.578156828200913686e-01
9.793583830216842756e+00,0.000000000000000000e+00,-1.569873312088998496e-01
9.793597004013488316e+00,0.000000000000000000e+00,-1.561633267541638614e-01
9.793610039872385542e+00,0.000000000000000000e+00,-1.553436466537855554e-01
9.793622939237769387e+00,0.000000000000000000e+00,-1.545282682250881112e-01
9.793635703538750903e+00,0.000000000000000000e+00,-1.537171689041935962e-01
9.793648334189482441e+00,0.000000000000000000e+00,-1.529103262454071799e-01
9.793660832589306864e+00,0.000000000000000000e+00,-1.521077179205949925e-01
9.793673200122920974e+00,0.000000000000000000e+00,-1.513093217185724482e-01
9.793685438160524726e+00,0.000000000000000000e+00,-1.505151155444992284e-01
9.793697548057968660e+00,0.000000000000000000e+00,-1.497250774192676048e-01
9.793709531156913783e+00,0.000000000000000000e+00,-1.489391854788970626e-01
9.793721388784970117e+00,0.000000000000000000e+00,-1.481574179739397756e-01
9.793733122255849466e+00,0.000000000000000000e+00,-1.473797532688796985e-01
9.793744732869511083e+00,0.000000000000000000e+00,-1.466061698415397629e-01
9.793756221912303772e+00,0.000000000000000000e+00,-1.458366462824873810e-01
9.793767590657109778e+00,0.000000000000000000e+00,-1.450711612944480533e-01
9.793778840363483340e+00,0.000000000000000000e+00,-1.443096936917236672e-01
9.793789972277791023e+00,0.000000000000000000e+00,-1.435522223996039126e-01
9.793800987633353827e+00,0.000000000000000000e+00,-1.427987264537929069e-01
9.793811887650578640e+00,0.000000000000000000e+00,-1.420491849998271050e-01
9.793822673537091461e+00,0.000000000000000000e+00,-1.413035772925104461e-01
9.793833346487883063e+00,0.000000000000000000e+00,-1.405618826953342615e-01
9.793843907685424455e+00,0.000000000000000000e+00,-1.398240806799144753e-01
9.793854358299814322e+00,0.000000000000000000e+00,-1.390901508254308305e-01
9.793864699488894487e+00,0.000000000000000000e+00,-1.383600728180618966e-01
9.793874932398386690e+00,0.000000000000000000e+00,-1.376338264504219644e-01
9.793885058162020485e+00,0.000000000000000000e+00,-1.369113916210153159e-01
9.793895077901652257e+00,0.000000000000000000e+00,-1.361927483336731470e-01
9.793904992727393122e+00,0.000000000000000000e+00,-1.354778766970120008e-01
9.793914803737733266e+00,0.000000000000000000e+00,-1.347667569238814034e-01
9.793924512019659190e+00,0.000000000000000000e+00,-1.340593693308222145e-01
9.793934118648779830e+00,0.000000000000000000e+00,-1.333556943375227288e-01
9.793943624689442018e+00,0.000000000000000000e+00,-1.326557124662813003e-01
9.793953031194847725e+00,0.000000000000000000e+00,-1.319594043414710205e-01
9.793962339207173073e+00,0.000000000000000000e+00,-1.312667506890065616e-01
9.793971549757683803e+00,0.000000000000000000e+00,-1.305777323358131015e-01
9.793980663866847181e+00,0.000000000000000000e+00,-1.298923302092973298e-01
9.793989682544447462e+00,0.000000000000000000e+00,-1.292105253368250051e-01
9.793998606789694250e+00,0.000000000000000000e+00,-1.285322988451960968e-01
9.794007437591337961e+00,0.000000000000000000e+00,-1.278576319601288924e-01
9.794016175927776402e+00,0.000000000000000000e+00,-1.271865060057414676e-01
9.794024822767164906e+00,0.000000000000000000e+00,-1.265189024040377919e-01
9.794033379067517586e+00,0.000000000000000000e+00,-1.258548026743914472e-01
9.794041845776824573e+00,0.000000000000000000e+00,-1.251941884330444454e-01
9.794050223833146163e+00,0.000000000000000000e+00,-1.245370413925975112e-01
9.794058514164721174e+00,0.000000000000000000e+00,-1.238833433615065260e-01
9.794066717690075308e+00,0.000000000000000000e+00,-1.232330762435815269e-01
9.794074835318111738e+00,0.000000000000000000e+00,-1.225862220374872857e-01
9.794082867948215920e+00,0.000000000000000000e+00,-1.219427628362508842e-01
9.794090816470365723e+00,0.000000000000000000e+00,-1.213026808267645140e-01
9.794098681765209591e+00,0.000000000000000000e+00,-1.206659582892971178e-01
9.794106464704185555e+00,0.000000000000000000e+00,-1.200325775970081388e-01
9.794114166149601175e+00,0.000000000000000000e+00,-1.194025212154545823e-01
9.794121786954738340e+00,0.000000000000000000e+00,-1.187757717021155762e-01
9.794129327963943865e+00,0.000000000000000000e+00,-1.181523117059102984e-01
9.794136790012725413e+00,0.000000000000000000e+00,-1.175321239667179302e-01
9.794144173927842090e+00,0.000000000000000000e+00,-1.169151913149021615e-01
9.794151480527398590e+00,0.000000000000000000e+00,-1.163014966708397907e-01
9.794158710620928687e+00,0.000000000000000000e+00,-1.156910230444493093e-01
9.794165865009498262e+00,0.000000000000000000e+00,-1.150837535347194879e-01
9.794172944485779908e+00,0.000000000000000000e+00,-1.144796713292510204e-01
9.794179949834147081e+00,0.000000000000000000e+00,-1.138787597037849431e-01
9.794186881830764690e+00,0.000000000000000000e+00,-1.132810020217463881e-01
9.794193741243667262e+00,0.000000000000000000e+00,-1.126863817337859369e-01
9.794200528832851305e+00,0.000000000000000000e+00,-1.120948823773211811e-01
9.794207245350353475e+00,0.000000000000000000e+00,-1.115064875760844731e-01
9.794213891540334060e+00,0.000000000000000000e+00,-1.109211810396709269e-01
9.794220468139169355e+00,0.000000000000000000e+00,-1.103389465630883470e-01
9.794226975875519159e+00,0.000000000000000000e+00,-1.097597680263137365e-01
9.794233415470415594e+00,0.000000000000000000e+00,-1.091836293938476116e-01
9.794239787637343042e+00,0.000000000000000000e+00,-1.086105147142660404e-01
9.794246093082316307e+00,0.000000000000000000e+00,-1.080404081197900157e-01
9.794252332503953440e+00,0.000000000000000000e+00,-1.074732938258397830e-01
9.794258506593561009e+00,0.000000000000000000e+00,-1.069091561306061977e-01
9.794264616035210480e+00,0.000000000000000000e+00,-1.063479794146137414e-01
9.794270661505802167e+00,0.000000000000000000e+00,-1.057897481402895884e-01
9.794276643675159377e+00,0.000000000000000000e+00,-1.052344468515373499e-01
9.794282563206085257e+00,0.000000000000000000e+00,-1.046820601733084999e-01
9.794288420754446278e+00,0.000000000000000000e+00,-1.041325728111801990e-01
9.794294216969239741e+00,0.000000000000000000e+00,-1.035859695509288581e-01
9.794299952492670158e+00,0.000000000000000000e+00,-1.030422352581188278e-01
9.794305627960214977e+00,0.000000000000000000e+00,-1.025013548776758515e-01
9.794311244000700967e+00,0.000000000000000000e+00,-1.019633134334801128e-01
9.794316801236369940e+00,0.000000000000000000e+00,-1.014280960279439342e-01
9.794322300282948035e+00,0.000000000000000000e+00,-1.008956878416090580e-01
9.794327741749714988e+00,0.000000000000000000e+00,-1.003660741327330602e-01
9.794333126239571641e+00,0.000000000000000000e+00,-9.983924023688227345e-02
9.794338454349103884e+00,0.000000000000000000e+00,-9.931517156653110745e-02
9.794343726668655492e+00,0.000000000000000000e+00,-9.879385361065488869e-02
9.794348943782384964e+00,0.000000000000000000e+00,-9.827527193433358010e-02
9.794354106268336579e+00,0.000000000000000000e+00,-9.775941217834882568e-02
9.794359214698502569e+00,0.000000000000000000e+00,-9.724626005878989066e-02
9.794364269638885290e+00,0.000000000000000000e+00,-9.673580136666146134e-02
9.794369271649559394e+00,0.000000000000000000e+00,-9.622802196748947434e-02
9.794374221284737558e+00,0.000000000000000000e+00,-9.572290780093117846e-02
9.794379119092832653e+00,0.000000000000000000e+00,-9.522044488038303167e-02
9.794383965616507481e+00,0.000000000000000000e+00,-9.472061929260372493e-02
9.794388761392747611e+00,0.000000000000000000e+00,-9.422341719732205134e-02
9.794393506952918216e+00,0.000000000000000000e+00,-9.372882482685993000e-02
9.794398202822815591e+00,0.000000000000000000e+00,-9.323682848574453563e-02
9.794402849522738208e+00,0.000000000000000000e+00,-9.274741455034213322e-02
9.794407447567527569e+00,0.000000000000000000e+00,-9.226056946847237261e-02
9.794411997466641040e+00,0.000000000000000000e+00,-9.177627975903558666e-02
9.794416499724201586e+00,0.000000000000000000e+00,-9.129453201164651477e-02
9.794420954839049287e+00,0.000000000000000000e+00,-9.081531288625513398e-02
9.794425363304805288e+00,0.000000000000000000e+00,-9.033860911278464301e-02
9.794429725609921533e+00,0.000000000000000000e+00,-8.986440749076310408e-02
9.794434042237734062e+00,0.000000000000000000e+00,-8.939269488896148252e-02
9.794438313666519846e+00,0.000000000000000000e+00,-8.892345824502294327e-02
9.794442540369546535e+00,0.000000000000000000e+00,-8.845668456511179834e-02
9.794446722815127515e+00,0.000000000000000000e+00,-8.799236092354935368e-02
9.794450861466673430e+00,0.000000000000000000e+00,-8.753047446246046970e-02
9.794454956782743693e+00,0.000000000000000000e+00,-8.707101239141168403e-02
9.794459009217089118e+00,0.000000000000000000e+00,-8.661396198706425298e-02
9.794463019218719424e+00,0.000000000000000000e+00,-8.615931059281869975e-02
9.794466987231936983e+00,0.000000000000000000e+00,-8.570704561847224123e-02
9.794470913696393666e+00,0.000000000000000000e+00,-8.525715453986316972e-02
9.794474799047137026e+00,0.000000000000000000e+00,-8.480962489852626740e-02
9.794478643714663590e+00,0.000000000000000000e+00,-8.436444430135221773e-02
9.794482448124954388e+00,0.000000000000000000e+00,-8.392160042024086886e-02
9.794486212699537120e+00,0.000000000000000000e+00,-8.348108099176716757e-02
9.794489937855525241e+00,0.000000000000000000e+00,-8.304287381683213287e-02
9.794493624005662369e+00,0.000000000000000000e+00,-8.260696676033756070e-02
9.794497271558368467e+00,0.000000000000000000e+00,-8.217334775084120246e-02
9.794500880917793140e+00,0.000000000000000000e+00,-8.174200478022934646e-02
9.794504452483847601e+00,0.000000000000000000e+00,-8.131292590338067006e-02
9.794507986652263298e+00,0.000000000000000000e+00,-8.088609923784091660e-02
9.794511483814622110e+00,0.000000000000000000e+00,-8.046151296348673376e-02
9.794514944358409636e+00,0.000000000000000000e+00,-8.003915532221120288e-02
9.794518368667048946e+00,0.000000000000000000e+00,-7.961901461758544296e-02
9.794521757119953875e+00,0.000000000000000000e+00,-7.920107921454638822e-02
9.794525110092564546e+00,0.000000000000000000e+00,-7.878533753906911963e-02
9.794528427956386452e+00,0.000000000000000000e+00,-7.837177807784811989e-02
9.794531711079041969e+00,0.000000000000000000e+00,-7.796038937798049906e-02
9.794534959824295228e+00,0.000000000000000000e+00,-7.755116004664935891e-02
9.794538174552110732e+00,0.000000000000000000e+00,-7.714407875080482591e-02
9.794541355618676448e+00,0.000000000000000000e+00,-7.673913421685825409e-02
9.794544503376455324e+00,0.000000000000000000e+00,-7.633631523036329969e-02
9.794547618174219039e+00,0.000000000000000000e+00,-7.593561063570995751e-02
9.794550700357087081e+00,0.000000000000000000e+00,-7.553700933581879162e-02
9.794553750266562275e+00,0.000000000000000000e+00,-7.514050029182620105e-02
9.794556768240578748e+00,0.000000000000000000e+00,-7.474607252278732406e-02
9.794559754613523239e+00,0.000000000000000000e+00,-7.435371510536564754e-02
9.794562709716290172e+00,0.000000000000000000e+00,-7.396341717354019962e-02
9.794565633876302968e+00,0.000000000000000000e+00,-7.357516791829302183e-02
9.794568527417558457e+00,0.000000000000000000e+00,-7.318895658732275933e-02
9.794571390660662402e+00,0.000000000000000000e+00,-7.280477248473661567e-02
9.794574223922863254e+00,0.000000000000000000e+00,-7.242260497076377646e-02
9.794577027518085899e+00,0.000000000000000000e+00,-7.204244346145392830e-02
9.794579801756968962e+00,0.000000000000000000e+00,-7.166427742839072412e-02
9.794582546946898560e+00,0.000000000000000000e+00,-7.128809639839668588e-02
9.794585263392043828e+00,0.000000000000000000e+00,-7.091388995324232614e-02
9.794587951393388892e+00,0.000000000000000000e+00,-7.054164772936416528e-02
9.794590611248761292e+00,0.000000000000000000e+00,-7.017135941757379758e-02
9.794593243252878167e+00,0.000000000000000000e+00,-6.980301476277363248e-02
9.794595847697364022e+00,0.000000000000000000e+00,-6.943660356367040154e-02
9.794598424870793352e+00,0.000000000000000000e+00,-6.907211567250164108e-02
9.794600975058719072e+00,0.000000000000000000e+00,-6.870954099474496646e-02
9.794603498543700937e+00,0.000000000000000000e+00,-6.834886948884665026e-02
9.794605995605344617e+00,0.000000000000000000e+00,-6.799009116593733582e-02
9.794608466520323020e+00,0.000000000000000000e+00,-6.763319608956286366e-02
9.794610911562418920e+00,0.000000000000000000e+00,-6.727817437540428713e-02
9.794613331002542722e+00,0.000000000000000000e+00,-6.692501619100651999e-02
9.794615725108769766e+00,0.000000000000000000e+00,-6.657371175550697018e-02
9.794618094146368747e+00,0.000000000000000000e+00,-6.622425133936209185e-02
9.794620438377830141e+00,0.000000000000000000e+00,-6.587662526408466501e-02
9.794622758062896395e+00,0.000000000000000000e+00,-6.553082390196593443e-02
9.794625053458592134e+00,0.000000000000000000e+00,-6.518683767582164612e-02
9.794627324819247249e+00,0.000000000000000000e+00,-6.484465705871628183e-02
9.794629572396530648e+00,0.000000000000000000e+00,-6.450427257370477951e-02
9.794631796439475124e+00,0.000000000000000000e+00,-6.416567479357197790e-02
9.794633997194507558e+00,0.000000000000000000e+00,-6.382885434056990992e-02
9.794636174905473780e+00,0.000000000000000000e+00,-6.349380188615730281e-02
9.794638329813665223e+00,0.000000000000000000e+00,-6.316050815074118752e-02
9.794640462157849115e+00,0.000000000000000000e+00,-6.282896390342285198e-02
9.794642572174289796e+00,0.000000000000000000e+00,-6.249915996174172650e-02
9.794644660096778921e+00,0.000000000000000000e+00,-6.217108719142124679e-02
9.794646726156660321e+00,0.000000000000000000e+00,-6.184473650611484186e-02
9.794648770582856656e+00,0.000000000000000000e+00,-6.152009886715627957e-02
9.794650793601892502e+00,0.000000000000000000e+00,-6.119716528330772926e-02
9.794652795437919224e+00,0.000000000000000000e+00,-6.087592681051442328e-02
9.794654776312743394e+00,0.000000000000000000e+00,-6.055637455165494704e-02
9.794656736445849887e+00,0.000000000000000000e+00,-6.023849965629584496e-02
9.794658676054419644e+00,0.000000000000000000e+00,-5.992229332044406165e-02
9.794660595353365196e+00,0.000000000000000000e+00,-5.960774678630592627e-02
9.794662494555350207e+00,0.000000000000000000e+00,-5.929485134204827423e-02
9.794664373870803686e+00,0.000000000000000000e+00,-5.898359832154869559e-02
9.794666233507959063e+00,0.000000000000000000e+00,-5.867397910416535106e-02
9.794668073672864850e+00,0.000000000000000000e+00,-5.836598511449157117e-02
9.794669894569414836e+00,0.000000000000000000e+00,-5.805960782212131466e-02
9.794671696399365857e+00,0.000000000000000000e+00,-5.775483874141461998e-02
9.794673479362364432e+00,0.000000000000000000e+00,-5.745166943125868536e-02
9.794675243655964536e+00,0.000000000000000000e+00,-5.715009149483986362e-02
9.794676989475650686e+00,0.000000000000000000e+00,-5.685009657940474914e-02
9.794678717014864588e+00,0.000000000000000000e+00,-5.655167637603428221e-02
9.794680426465019352e+00,0.000000000000000000e+00,-5.625482261941355810e-02
9.794682118015522576e+00,0.000000000000000000e+00,-5.595952708760157379e-02
9.794683791853801225e+00,0.000000000000000000e+00,-5.566578160180317425e-02
9.794685448165319386e+00,0.000000000000000000e+00,-5.537357802614320534e-02
9.794687087133601366e+00,0.000000000000000000e+00,-5.508290826744273450e-02
9.794688708940242350e+00,0.000000000000000000e+00,-5.479376427499317581e-02
9.794690313764943923e+00,0.000000000000000000e+00,-5.450613804033477977e-02
9.794691901785522958e+00,0.000000000000000000e+00,-5.422002159703499802e-02
9.794693473177934706e+00,0.000000000000000000e+00,-5.393540702046917268e-02
9.794695028116290558e+00,0.000000000000000000e+00,-5.365228642759892891e-02
9.794696566772881141e+00,0.000000000000000000e+00,-5.337065197675498057e-02
9.794698089318192302e+00,0.000000000000000000e+00,-5.309049586742204535e-02
9.794699595920922874e+00,0.000000000000000000e+00,-5.281181034001729974e-02
9.794701086748009544e+00,0.000000000000000000e+00,-5.253458767568400939e-02
9.794702561964635734e+00,0.000000000000000000e+00,-5.225882019606994250e-02
9.794704021734260024e+00,0.000000000000000000e+00,-5.198450026312100708e-02
9.794705466218626810e+00,0.000000000000000000e+00,-5.171162027886402196e-02
9.794706895577785843e+00,0.000000000000000000e+00,-5.144017268520464231e-02
9.794708309970113547e+00,0.000000000000000000e+00,-5.117014996371018615e-02
9.794709709552327226e+00,0.000000000000000000e+00,-5.090154463540318142e-02
9.794711094479502833e+00,0.000000000000000000e+00,-5.063434926056153973e-02
9.794712464905092730e+00,0.000000000000000000e+00,-5.036855643850129266e-02
9.794713820980943453e+00,0.000000000000000000e+00,-5.010415880738106759e-02
9.794715162857308144e+00,0.000000000000000000e+00,-4.984114904399353230e-02
9.794716490682871424e+00,0.000000000000000000e+00,-4.957951986356333440e-02
9.794717804604760047e+00,0.000000000000000000e+00,-4.931926401954721262e-02
9.794719104768553564e+00,0.000000000000000000e+00,-4.906037430343414274e-02
9.794720391318318065e+00,0.000000000000000000e+00,-4.880284354454107049e-02
9.794721664396602634e+00,0.000000000000000000e+00,-4.854666460981959392e-02
9.794722924144467768e+00,0.000000000000000000e+00,-4.829183040365601920e-02
9.794724170701496035e+00,0.000000000000000000e+00,-4.803833386767587116e-02
9.794725404205808061e+00,0.000000000000000000e+00,-4.778616798054830667e-02
9.794726624794078518e+00,0.000000000000000000e+00,-4.753532575778841168e-02
9.794727832601550332e+00,0.000000000000000000e+00,-4.728580025157250871e-02
9.794729027762052453e+00,0.000000000000000000e+00,-4.703758455053607540e-02
9.794730210408008730e+00,0.000000000000000000e+00,-4.679067177958910057e-02
9.794731380670461007e+00,0.000000000000000000e+00,-4.654505509972262089e-02
9.794732538679074452e+00,0.000000000000000000e+00,-4.630072770781976099e-02
9.794733684562160647e+00,0.000000000000000000e+00,-4.605768283646881345e-02
9.794734818446684699e+00,0.000000000000000000e+00,-4.581591375377638137e-02
9.794735940458282997e+00,0.000000000000000000e+00,-4.557541376318054172e-02
9.794737050721277427e+00,0.000000000000000000e+00,-4.533617620325953307e-02
9.794738149358689583e+00,0.000000000000000000e+00,-4.509819444755804041e-02
9.794739236492246093e+00,0.000000000000000000e+00,-4.486146190439587594e-02
9.794740312242407043e+00,0.000000000000000000e+00,-4.462597201668982994e-02
9.794741376728365978e+00,0.000000000000000000e+00,-4.439171826176677854e-02
9.794742430068069439e+00,0.000000000000000000e+00,-4.415869415118985064e-02
9.794743472378232951e+00,0.000000000000000000e+00,-4.392689323057590023e-02
9.794744503774344579e+00,0.000000000000000000e+00,-4.369630907941292330e-02
9.794745524370686240e+00,0.000000000000000000e+00,-4.346693531089061008e-02
9.794746534280340811e+00,0.000000000000000000e+00,-4.323876557171774798e-02
9.794747533615208113e+00,0.000000000000000000e+00,-4.301179354194407251e-02
9.794748522486019127e+00,0.000000000000000000e+00,-4.278601293479290801e-02
9.794749501002339542e+00,0.000000000000000000e+00,-4.256141749648296307e-02
9.794750469272594628e+00,0.000000000000000000e+00,-4.233800100605448341e-02
9.794751427404067456e+00,0.000000000000000000e+00,-4.211575727519538404e-02
9.794752375502925545e+00,0.000000000000000000e+00,-4.189468014807611052e-02
9.794753313674215534e+00,0.000000000000000000e+00,-4.167476350117357842e-02
9.794754242021889823e+00,0.000000000000000000e+00,-4.145600124310602069e-02
9.794755160648815462e+00,0.000000000000000000e+00,-4.123838731445907818e-02
9.794756069656774145e+00,0.000000000000000000e+00,-4.102191568762071638e-02
9.794756969146487080e+00,0.000000000000000000e+00,-4.080658036661814758e-02
9.794757859217620322e+00,0.000000000000000000e+00,-4.059237538694400460e-02
9.794758739968795425e+00,0.000000000000000000e+00,-4.037929481539983406e-02
9.794759611497601881e+00,0.000000000000000000e+00,-4.016733274992444203e-02
9.794760473900606002e+00,0.000000000000000000e+00,-3.995648331943516679e-02
9.794761327273366902e+00,0.000000000000000000e+00,-3.974674068366494672e-02
9.794762171710436505e+00,0.000000000000000000e+00,-3.953809903299492640e-02
9.794763007305384406e+00,0.000000000000000000e+00,-3.933055258830232132e-02
9.794763834150792547e+00,0.000000000000000000e+00,-3.912409560079523757e-02
9.794764652338278310e+00,0.000000000000000000e+00,-3.891872235185619283e-02
9.794765461958499841e+00,0.000000000000000000e+00,-3.871442715287910785e-02
9.794766263101166714e+00,0.000000000000000000e+00,-3.851120434511494384e-02
9.794767055855043481e+00,0.000000000000000000e+00,-3.830904829951745083e-02
9.794767840307972762e+00,0.000000000000000000e+00,-3.810795341658444746e-02
9.794768616546869922e+00,0.000000000000000000e+00,-3.790791412620134887e-02
9.794769384657747935e+00,0.000000000000000000e+00,-3.770892488748901761e-02
9.794770144725713834e+00,0.000000000000000000e+00,-3.751098018865379330e-02
9.794770896834984697e+00,0.000000000000000000e+00,-3.731407454682662134e-02
9.794771641068896528e+00,0.000000000000000000e+00,-3.711820250791962594e-02
9.794772377509911365e+00,0.000000000000000000e+00,-3.692335864646742460e-02
9.794773106239629712e+00,0.000000000000000000e+00,-3.672953756548366644e-02
9.794773827338795869e+00,0.000000000000000000e+00,-3.653673389630887613e-02
9.794774540887310366e+00,0.000000000000000000e+00,-3.634494229846049057e-02
9.794775246964235293e+00,0.000000000000000000e+00,-3.615415745948937637e-02
9.794775945647806736e+00,0.000000000000000000e+00,-3.596437409482332315e-02
9.794776637015438325e+00,0.000000000000000000e+00,-3.577558694763446900e-02
9.794777321143737225e+00,0.000000000000000000e+00,-3.558779078868060802e-02
9.794777998108505912e+00,0.000000000000000000e+00,-3.540098041616825120e-02
9.794778667984754605e+00,0.000000000000000000e+00,-3.521515065560697211e-02
9.794779330846706600e+00,0.000000000000000000e+00,-3.503029635966380118e-02
9.794779986767808921e+00,0.000000000000000000e+00,-3.484641240802622414e-02
9.794780635820737658e+00,0.000000000000000000e+00,-3.466349370725226725e-02
9.794781278077413944e+00,0.000000000000000000e+00,-3.448153519063782563e-02
9.794781913608995083e+00,0.000000000000000000e+00,-3.430053181807104362e-02
9.794782542485904742e+00,0.000000000000000000e+00,-3.412047857589322469e-02
9.794783164777822293e+00,0.000000000000000000e+00,-3.394137047675967189e-02
9.794783780553698804e+00,0.000000000000000000e+00,-3.376320255950708560e-02
9.794784389881765918e+00,0.000000000000000000e+00,-3.358596988901010189e-02
9.794784992829535852e+00,0.000000000000000000e+00,-3.340966755604652533e-02
9.794785589463819164e+00,0.000000000000000000e+00,-3.323429067716034829e-02
9.794786179850721197e+00,0.000000000000000000e+00,-3.305983439452699069e-02
9.794786764055663397e+00,0.000000000000000000e+00,-3.288629387582286956e-02
9.794787342143372655e+00,0.000000000000000000e+00,-3.271366431408625347e-02
9.794787914177904398e+00,0.000000000000000000e+00,-3.254194092758685292e-02
9.794788480222642590e+00,0.000000000000000000e+00,-3.237111895969101150e-02
9.794789040340305064e+00,0.000000000000000000e+00,-3.220119367873347516e-02
9.794789594592954174e+00,0.000000000000000000e+00,-3.203216037788257642e-02
9.794790143042003905e+00,0.000000000000000000e+00,-3.186401437501199668e-02
9.794790685748223424e+00,0.000000000000000000e+00,-3.169675101257249383e-02
9.794791222771744188e+00,0.000000000000000000e+00,-3.153036565746146491e-02
9.794791754172072373e+00,0.000000000000000000e+00,-3.136485370089251573e-02
9.794792280008087104e+00,0.000000000000000000e+00,-3.120021055827152875e-02
9.794792800338052885e+00,0.000000000000000000e+00,-3.103643166906841153e-02
9.794793315219623153e+00,0.000000000000000000e+00,-3.087351249669100309e-02
9.794793824709849162e+00,0.000000000000000000e+00,-3.071144852835680158e-02
9.794794328865181754e+00,0.000000000000000000e+00,-3.055023527496905991e-02
9.794794827741485577e+00,0.000000000000000000e+00,-3.038986827099935534e-02
9.794795321394035525e+00,0.000000000000000000e+00,-3.023034307435285353e-02
9.794795809877530957e+00,0.000000000000000000e+00,-3.007165526625085739e-02
9.794796293246095686e+00,0.000000000000000000e+00,-2.991380045111126026e-02
9.794796771553290426e+00,0.000000000000000000e+00,-2.975677425642245244e-02
9.794797244852109230e+00,0.000000000000000000e+00,-2.960057233262374313e-02
9.794797713194999034e+00,0.000000000000000000e+00,-2.944519035298360371e-02
9.794798176633850773e+00,0.000000000000000000e+00,-2.929062401348010020e-02
9.794798635220015370e+00,0.000000000000000000e+00,-2.913686903268567635e-02
9.794799089004305515e+00,0.000000000000000000e+00,-2.898392115164321811e-02
9.794799538037000985e+00,0.000000000000000000e+00,-2.883177613375081591e-02
9.794799982367859315e+00,0.000000000000000000e+00,-2.868042976464656516e-02
9.794800422046110455e+00,0.000000000000000000e+00,-2.852987785208461330e-02
9.794800857120470994e+00,0.000000000000000000e+00,-2.838011622582647595e-02
9.794801287639151255e+00,0.000000000000000000e+00,-2.823114073752360648e-02
9.794801713649851749e+00,0.000000000000000000e+00,-2.808294726060002119e-02
9.794802135199775606e+00,0.000000000000000000e+00,-2.793553169014139845e-02
9.794802552335633905e+00,0.000000000000000000e+00,-2.778888994277767602e-02
9.794802965103645676e+00,0.000000000000000000e+00,-2.764301795657435681e-02
9.794803373549543224e+00,0.000000000000000000e+00,-2.749791169091724691e-02
9.794803777718589899e+00,0.000000000000000000e+00,-2.735356712639943483e-02
9.794804177655564104e+00,0.000000000000000000e+00,-2.720998026471255909e-02
9.794804573404780612e+00,0.000000000000000000e+00,-2.706714712853592122e-02
9.794804965010090569e+00,0.000000000000000000e+00,-2.692506376142561955e-02
9.794805352514885044e+00,0.000000000000000000e+00,-2.678372622770147649e-02
9.794805735962100357e+00,0.000000000000000000e+00,-2.664313061234702476e-02
9.794806115394223411e+00,0.000000000000000000e+00,-2.650327302089209788e-02
9.794806490853295244e+00,0.000000000000000000e+00,-2.636414957930847611e-02
9.794806862380919910e+00,0.000000000000000000e+00,-2.622575643390334318e-02
9.794807230018262700e+00,0.000000000000000000e+00,-2.608808975121057472e-02
9.794807593806059032e+00,0.000000000000000000e+00,-2.595114571788853172e-02
9.794807953784616217e+00,0.000000000000000000e+00,-2.581492054060921179e-02
9.794808309993822348e+00,0.000000000000000000e+00,-2.567941044595601491e-02
9.794808662473146299e+00,0.000000000000000000e+00,-2.554461168031940677e-02
9.794809011261644827e+00,0.000000000000000000e+00,-2.541052050979254046e-02
9.794809356397962574e+00,0.000000000000000000e+00,-2.527713322006908125e-02
9.794809697920342728e+00,0.000000000000000000e+00,-2.514444611633446375e-02
9.794810035866627018e+00,0.000000000000000000e+00,-2.501245552317459334e-02
9.794810370274261047e+00,0.000000000000000000e+00,-2.488115778446277002e-02
9.794810701180297841e+00,0.000000000000000000e+00,-2.475054926326403920e-02
9.794811028621401405e+00,0.000000000000000000e+00,-2.462062634173731515e-02
9.794811352633855606e+00,0.000000000000000000e+00,-2.449138542102669014e-02
9.794811673253560613e+00,0.000000000000000000e+00,-2.436282292117010820e-02
9.794811990516041789e+00,0.000000000000000000e+00,-2.423493528099280453e-02
9.794812304456453234e+00,0.000000000000000000e+00,-2.410771895801818929e-02
9.794812615109581344e+00,0.000000000000000000e+00,-2.398117042835909776e-02
9.794812922509844810e+00,0.000000000000000000e+00,-2.385528618663083911e-02
9.794813226691307051e+00,0.000000000000000000e+00,-2.373006274584245692e-02
9.794813527687670884e+00,0.000000000000000000e+00,-2.360549663730979186e-02
9.794813825532287410e+00,0.000000000000000000e+00,-2.348158441055541237e-02
9.794814120258161338e+00,0.000000000000000000e+00,-2.335832263321297592e-02
9.794814411897945661e+00,0.000000000000000000e+00,-2.323570789093372044e-02
9.794814700483957637e+00,0.000000000000000000e+00,-2.311373678729079090e-02
9.794814986048169914e+00,0.000000000000000000e+00,-2.299240594368356233e-02
9.794815268622226512e+00,0.000000000000000000e+00,-2.287171199924850282e-02
9.794815548237439273e+00,0.000000000000000000e+00,-2.275165161076130038e-02
9.794815824924786085e+00,0.000000000000000000e+00,-2.263222145254774678e-02
9.794816098714926866e+00,0.000000000000000000e+00,-2.251341821639020122e-02
9.794816369638200015e+00,0.000000000000000000e+00,-2.239523861143411995e-02
9.794816637724620634e+00,0.000000000000000000e+00,-2.227767936410106342e-02
9.794816903003896513e+00,0.000000000000000000e+00,-2.216073721799519808e-02
9.794817165505421031e+00,0.000000000000000000e+00,-2.204440893381197017e-02
9.794817425258280252e+00,0.000000000000000000e+00,-2.192869128925330896e-02
9.794817682291254712e+00,0.000000000000000000e+00,-2.181358107893412168e-02
9.794817936632822963e+00,0.000000000000000000e+00,-2.169907511429313568e-02
9.794818188311170459e+00,0.000000000000000000e+00,-2.158517022350592285e-02
9.794818437354182450e+00,0.000000000000000000e+00,-2.147186325140010635e-02
9.794818683789451086e+00,0.000000000000000000e+00,-2.135915105936184166e-02
9.794818927644286077e+00,0.000000000000000000e+00,-2.124703052525320213e-02
9.794819168945704035e+00,0.000000000000000000e+00,-2.113549854332518949e-02
9.794819407720444460e+00,0.000000000000000000e+00,-2.102455202413293714e-02
9.794819643994962632e+00,0.000000000000000000e+00,-2.091418789444438042e-02
9.794819877795440277e+00,0.000000000000000000e+00,-2.080440309715978278e-02
9.794820109147780229e+00,0.000000000000000000e+00,-2.069519459122913865e-02
9.794820338077618871e+00,0.000000000000000000e+00,-2.058655935156299480e-02
9.794820564610322577e+00,0.000000000000000000e+00,-2.047849436895200423e-02
9.794820788770991271e+00,0.000000000000000000e+00,-2.037099664998210519e-02
9.794821010584461973e+00,0.000000000000000000e+00,-2.026406321695192053e-02
9.794821230075314134e+00,0.000000000000000000e+00,-2.015769110779009471e-02
9.794821447267866077e+00,0.000000000000000000e+00,-2.005187737597485809e-02
9.794821662186185662e+00,0.000000000000000000e+00,-1.994661909044702711e-02
9.794821874854084953e+00,0.000000000000000000e+00,-1.984191333553825959e-02
9.794822085295127323e+00,0.000000000000000000e+00,-1.973775721088190729e-02
9.794822293532631008e+00,0.000000000000000000e+00,-1.963414783133471397e-02
9.794822499589669107e+00,0.000000000000000000e+00,-1.953108232690069918e-02
9.794822703489076687e+00,0.000000000000000000e+00,-1.942855784264639965e-02
9.794822905253440126e+00,0.000000000000000000e+00,-1.932657153862469071e-02
9.794823104905121980e+00,0.000000000000000000e+00,-1.922512058979873595e-02
9.794823302466239667e+00,0.000000000000000000e+00,-1.912420218595498392e-02
9.794823497958685010e+00,0.000000000000000000e+00,-1.902381353163574290e-02
9.794823691404120680e+00,0.000000000000000000e+00,-1.892395184605439110e-02
9.794823882823976646e+00,0.000000000000000000e+00,-1.882461436302361804e-02
9.794824072239467938e+00,0.000000000000000000e+00,-1.872579833087495774e-02
9.794824259671580435e+00,0.000000000000000000e+00,-1.862750101238267245e-02
9.794824445141081526e+00,0.000000000000000000e+00,-1.852971968468766079e-02
9.794824628668523658e+00,0.000000000000000000e+00,-1.843245163922785715e-02
9.794824810274239013e+00,0.000000000000000000e+00,-1.833569418165777870e-02
9.794824989978351937e+00,0.000000000000000000e+00,-1.823944463177240571e-02
9.794825167800773613e+00,0.000000000000000000e+00,-1.814370032343761568e-02
9.794825343761209169e+00,0.000000000000000000e+00,-1.804845860451187445e-02
9.794825517879154120e+00,0.000000000000000000e+00,-1.795371683677883870e-02
9.794825690173901478e+00,0.000000000000000000e+00,-1.785947239586689259e-02
9.794825860664541750e+00,0.000000000000000000e+00,-1.776572267118173634e-02
9.794826029369964715e+00,0.000000000000000000e+00,-1.767246506583244198e-02
9.794826196308866528e+00,0.000000000000000000e+00,-1.757969699656188392e-02
9.794826361499740841e+00,0.000000000000000000e+00,-1.748741589366842666e-02
9.794826524960894787e+00,0.000000000000000000e+00,-1.739561920094071651e-02
9.794826686710438324e+00,0.000000000000000000e+00,-1.730430437558589177e-02
9.794826846766293116e+00,0.000000000000000000e+00,-1.721346888816002035e-02
9.794827005146196086e+00,0.000000000000000000e+00,-1.712311022249414158e-02
9.794827161867695864e+00,0.000000000000000000e+00,-1.703322587562904056e-02
9.794827316948154561e+00,0.000000000000000000e+00,-1.694381335774348615e-02
9.794827470404760206e+00,0.000000000000000000e+00,-1.685487019208462348e-02
9.794827622254512534e+00,0.000000000000000000e+00,-1.676639391490059722e-02
9.794827772514238973e+00,0.000000000000000000e+00,-1.667838207537309866e-02
9.794827921200587539e+00,0.000000000000000000e+00,-1.659083223554779982e-02
9.794828068330033943e+00,0.000000000000000000e+00,-1.650374197026912085e-02
9.794828213918881588e+00,0.000000000000000000e+00,-1.641710886710843684e-02
9.794828357983259792e+00,0.000000000000000000e+00,-1.633093052630539901e-02
9.794828500539132676e+00,0.000000000000000000e+00,-1.624520456068962240e-02
9.794828641602295605e+00,0.000000000000000000e+00,-1.615992859562850534e-02
9.794828781188380518e+00,0.000000000000000000e+00,-1.607510026894893099e-02
9.794828919312850601e+00,0.000000000000000000e+00,-1.599071723088074659e-02
9.794829055991012723e+00,0.000000000000000000e+00,-1.590677714398497714e-02
9.794829191238010324e+00,0.000000000000000000e+00,-1.582327768309512578e-02
9.794829325068830528e+00,0.000000000000000000e+00,-1.574021653524975556e-02
9.794829457498300584e+00,0.000000000000000000e+00,-1.565759139962724297e-02
9.794829588541094978e+00,0.000000000000000000e+00,-1.557539998748272599e-02
9.794829718211733649e+00,0.000000000000000000e+00,-1.549364002208719442e-02
9.794829846524585548e+00,0.000000000000000000e+00,-1.541230923866009073e-02
9.794829973493865083e+00,0.000000000000000000e+00,-1.533140538431276498e-02
9.794830099133644552e+00,0.000000000000000000e+00,-1.525092621798106000e-02
9.794830223457841711e+00,0.000000000000000000e+00,-1.517086951036224034e-02
9.794830346480233985e+00,0.000000000000000000e+00,-1.509123304385846104e-02
9.794830468214453134e+00,0.000000000000000000e+00,-1.501201461251151260e-02
9.794830588673987037e+00,0.000000000000000000e+00,-1.493321202194412313e-02
9.794830707872181463e+00,0.000000000000000000e+00,-1.485482308929252614e-02
9.794830825822247178e+00,0.000000000000000000e+00,-1.477684564315862557e-02
9.794830942537251062e+00,0.000000000000000000e+00,-1.469927752353605843e-02
9.794831058030126769e+00,0.000000000000000000e+00,-1.462211658176017053e-02
9.794831172313669398e+00,0.000000000000000000e+00,-1.454536068044495409e-02
9.794831285400542598e+00,0.000000000000000000e+00,-1.446900769342433606e-02
9.794831397303278564e+00,0.000000000000000000e+00,-1.439305550569127366e-02
9.794831508034274492e+00,0.000000000000000000e+00,-1.431750201333904619e-02
9.794831617605801455e+00,0.000000000000000000e+00,-1.424234512350906409e-02
9.794831726029999075e+00,0.000000000000000000e+00,-1.416758275432780136e-02
9.794831833318879077e+00,0.000000000000000000e+00,-1.409321283484806994e-02
9.794831939484334171e+00,0.000000000000000000e+00,-1.401923330499466394e-02
9.794832044538123839e+00,0.000000000000000000e+00,-1.394564211550563745e-02
9.794832148491890322e+00,0.000000000000000000e+00,-1.387243722787575607e-02
9.794832251357151520e+00,0.000000000000000000e+00,-1.379961661429996919e-02
9.794832353145304538e+00,0.000000000000000000e+00,-1.372717825761902641e-02
9.794832453867629241e+00,0.000000000000000000e+00,-1.365512015126077103e-02
9.794832553535284703e+00,0.000000000000000000e+00,-1.358344029918794049e-02
9.794832652159314534e+00,0.000000000000000000e+00,-1.351213671583945120e-02
9.794832749750646883e+00,0.000000000000000000e+00,-1.344120742607820586e-02
9.794832846320096209e+00,0.000000000000000000e+00,-1.337065046513237661e-02
9.794832941878361510e+00,0.000000000000000000e+00,-1.330046387854538770e-02
9.794833036436029872e+00,0.000000000000000000e+00,-1.323064572212153713e-02
9.794833130003581800e+00,0.000000000000000000e+00,-1.316119406186729013e-02
9.794833222591382338e+00,0.000000000000000000e+00,-1.309210697394125843e-02
9.794833314209691721e+00,0.000000000000000000e+00,-1.302338254460418121e-02
9.794833404868660054e+00,0.000000000000000000e+00,-1.295501887016020127e-02
9.794833494578332633e+00,0.000000000000000000e+00,-1.288701405690685121e-02
9.794833583348651729e+00,0.000000000000000000e+00,-1.281936622108069065e-02
9.794833671189451252e+00,0.000000000000000000e+00,-1.275207348880945044e-02
9.794833758110467414e+00,0.000000000000000000e+00,-1.268513399605549277e-02
9.794833844121326294e+00,0.000000000000000000e+00,-1.261854588856362730e-02
9.794833929231561598e+00,0.000000000000000000e+00,-1.255230732181759901e-02
9.794834013450604004e+00,0.000000000000000000e+00,-1.248641646097921679e-02
9.794834096787782940e+00,0.000000000000000000e+00,-1.242087148084048201e-02
9.794834179252335460e+00,0.000000000000000000e+00,-1.235567056578012329e-02
9.794834260853397367e+00,0.000000000000000000e+00,-1.229081190970267648e-02
9.794834341600008543e+00,0.000000000000000000e+00,-1.222629371599501073e-02
9.794834421501118271e+00,0.000000000000000000e+00,-1.216211419747194843e-02
9.794834500565579916e+00,0.000000000000000000e+00,-1.209827157633494403e-02
9.794834578802152691e+00,0.000000000000000000e+00,-1.203476408411554774e-02
9.794834656219505220e+00,0.000000000000000000e+00,-1.197158996162538125e-02
9.794834732826219081e+00,0.000000000000000000e+00,-1.190874745891263957e-02
9.794834808630778156e+00,0.000000000000000000e+00,-1.184623483521425776e-02
9.794834883641582834e+00,0.000000000000000000e+00,-1.178405035889935545e-02
9.794834957866946468e+00,0.000000000000000000e+00,-1.172219230743009113e-02
9.794835031315093588e+00,0.000000000000000000e+00,-1.166065896731165348e-02
9.794835103994159908e+00,0.000000000000000000e+00,-1.159944863404005835e-02
9.794835175912199432e+00,0.000000000000000000e+00,-1.153855961206300129e-02
9.794835247077182672e+00,0.000000000000000000e+00,-1.147799021472549648e-02
9.794835317496993099e+00,0.000000000000000000e+00,-1.141773876422637682e-02
9.794835387179432473e+00,0.000000000000000000e+00,-1.135780359157261866e-02
9.794835456132226170e+00,0.000000000000000000e+00,-1.129818303653150509e-02
9.794835524363008972e+00,0.000000000000000000e+00,-1.123887544758713115e-02
9.794835591879344605e+00,0.000000000000000000e+00,-1.117987918189037103e-02
9.794835658688711533e+00,0.000000000000000000e+00,-1.112119260521540233e-02
9.794835724798515386e+00,0.000000000000000000e+00,-1.106281409191836422e-02
9.794835790216080085e+00,0.000000000000000000e+00,-1.100474202488518211e-02
9.794835854948653164e+00,0.000000000000000000e+00,-1.094697479549240973e-02
9.794835919003409330e+00,0.000000000000000000e+00,-1.088951080356155739e-02
9.794835982387443352e+00,0.000000000000000000e+00,-1.083234845731125690e-02
9.794836045107780720e+00,0.000000000000000000e+00,-1.077548617331593531e-02
9.794836107171370543e+00,0.000000000000000000e+00,-1.071892237646448857e-02
9.794836168585087322e+00,0.000000000000000000e+00,-1.066265549991244309e-02
9.794836229355738055e+00,0.000000000000000000e+00,-1.060668398503846269e-02
9.794836289490056913e+00,0.000000000000000000e+00,-1.055100628140519074e-02
9.794836348994705233e+00,0.000000000000000000e+00,-1.049562084671359745e-02
9.794836407876278628e+00,0.000000000000000000e+00,-1.044052614675946081e-02
9.794836466141298104e+00,0.000000000000000000e+00,-1.038572065539206807e-02
9.794836523796222494e+00,0.000000000000000000e+00,-1.033120285447288074e-02
9.794836580847439578e+00,0.000000000000000000e+00,-1.027697123383204507e-02
9.794836637301269633e+00,0.000000000000000000e+00,-1.022302429122489038e-02
9.794836693163968988e+00,0.000000000000000000e+00,-1.016936053229714268e-02
9.794836748441724694e+00,0.000000000000000000e+00,-1.011597847053489173e-02
9.794836803140666959e+00,0.000000000000000000e+00,-1.006287662722762585e-02
9.794836857266853158e+00,0.000000000000000000e+00,-1.001005353142908963e-02
9.794836910826280274e+00,0.000000000000000000e+00,-9.957507719911605146e-03
9.794836963824884890e+00,0.000000000000000000e+00,-9.905237737129105047e-03
9.794837016268536090e+00,0.000000000000000000e+00,-9.853242135177986763e-03
9.794837068163047888e+00,0.000000000000000000e+00,-9.801519473755787928e-03
9.794837119514170354e+00,0.000000000000000000e+00,-9.750068320115512846e-03
9.794837170327593157e+00,0.000000000000000000e+00,-9.698887249035198499e-03
9.794837220608943795e+00,0.000000000000000000e+00,-9.647974842772232343e-03
9.794837270363794701e+00,0.000000000000000000e+00,-9.597329691028552018e-03
9.794837319597663239e+00,0.000000000000000000e+00,-9.546950390907161035e-03
9.794837368315999271e+00,0.000000000000000000e+00,-9.496835546875149678e-03
9.794837416524202922e+00,0.000000000000000000e+00,-9.446983770726722837e-03
9.794837464227617474e+00,0.000000000000000000e+00,-9.397393681541885840e-03
9.794837511431525812e+00,0.000000000000000000e+00,-9.348063905647284802e-03
9.794837558141159306e+00,0.000000000000000000e+00,-9.298993076585770901e-03
9.794837604361694261e+00,0.000000000000000000e+00,-9.250179835068554970e-03
9.794837650098250137e+00,0.000000000000000000e+00,-9.201622828942573884e-03
9.794837695355896656e+00,0.000000000000000000e+00,-9.153320713155704141e-03
9.794837740139648474e+00,0.000000000000000000e+00,-9.105272149713263680e-03
9.794837784454466956e+00,0.000000000000000000e+00,-9.057475807643209850e-03
9.794837828305261951e+00,0.000000000000000000e+00,-9.009930362963523148e-03
9.794837871696895348e+00,0.000000000000000000e+00,-8.962634498640880895e-03
9.794837914634170417e+00,0.000000000000000000e+00,-8.915586904553692016e-03
9.794837957121846017e+00,0.000000000000000000e+00,-8.868786277459465156e-03
9.794837999164631270e+00,0.000000000000000000e+00,-8.822231320957846928e-03
9.794838040767185561e+00,0.000000000000000000e+00,-8.775920745449290392e-03
9.794838081934116758e+00,0.000000000000000000e+00,-8.729853268108966544e-03
9.794838122669986546e+00,0.000000000000000000e+00,-8.684027612841087318e-03
9.794838162979308649e+00,0.000000000000000000e+00,-8.638442510252810139e-03
9.794838202866550603e+00,0.000000000000000000e+00,-8.593096697610737994e-03
9.794838242336130207e+00,0.000000000000000000e+00,-8.547988918812650383e-03
9.794838281392422630e+00,0.000000000000000000e+00,-8.503117924348359280e-03
9.794838320039753299e+00,0.000000000000000000e+00,-8.458482471267077252e-03
9.794838358282406787e+00,0.000000000000000000e+00,-8.414081323144802921e-03
9.794838396124617930e+00,0.000000000000000000e+00,-8.369913250045173461e-03
9.794838433570582481e+00,0.000000000000000000e+00,-8.325977028486839654e-03
9.794838470624448235e+00,0.000000000000000000e+00,-8.282271441415193364e-03
9.794838507290320351e+00,0.000000000000000000e+00,-8.238795278161046426e-03
9.794838543572261358e+00,0.000000000000000000e+00,-8.195547334412359858e-03
9.794838579474292928e+00,0.000000000000000000e+00,-8.152526412175092885e-03
9.794838615000394100e+00,0.000000000000000000e+00,-8.109731319749286307e-03
9.794838650154495951e+00,0.000000000000000000e+00,-8.067160871685553902e-03
9.794838684940501139e+00,0.000000000000000000e+00,-8.024813888761174463e-03
9.794838719362257251e+00,0.000000000000000000e+00,-7.982689197940935621e-03
9.794838753423581679e+00,0.000000000000000000e+00,-7.940785632348861325e-03
9.794838787128249180e+00,0.000000000000000000e+00,-7.899102031231239676e-03
9.794838820479993657e+00,0.000000000000000000e+00,-7.857637239930527484e-03
9.794838853482508156e+00,0.000000000000000000e+00,-7.816390109850556919e-03
9.794838886139453749e+00,0.000000000000000000e+00,-7.775359498421724816e-03
9.794838918454445320e+00,0.000000000000000000e+00,-7.734544269074909370e-03
9.794838950431064006e+00,0.000000000000000000e+00,-7.693943291204487570e-03
9.794838982072855416e+00,0.000000000000000000e+00,-7.653555440142242351e-03
9.794839013383324300e+00,0.000000000000000000e+00,-7.613379597122564915e-03
9.794839044365938108e+00,0.000000000000000000e+00,-7.573414649252003389e-03
9.794839075024132313e+00,0.000000000000000000e+00,-7.533659489478821032e-03
9.794839105361301534e+00,0.000000000000000000e+00,-7.494113016564717643e-03
9.794839135380810191e+00,0.000000000000000000e+00,-7.454774135047859997e-03
9.794839165085981847e+00,0.000000000000000000e+00,-7.415641755221132753e-03
9.794839194480109867e+00,0.000000000000000000e+00,-7.376714793097341634e-03
9.794839223566450315e+00,0.000000000000000000e+00,-7.337992170376592821e-03
9.794839252348223724e+00,0.000000000000000000e+00,-7.299472814420187965e-03
9.794839280828625760e+00,0.000000000000000000e+00,-7.261155658222360337e-03
9.794839309010804129e+00,0.000000000000000000e+00,-7.223039640375467606e-03
9.794839336897886994e+00,0.000000000000000000e+00,-7.185123705043905060e-03
9.794839364492961664e+00,0.000000000000000000e+00,-7.147406801935822680e-03
9.794839391799088801e+00,0.000000000000000000e+00,-7.109887886270506267e-03
9.794839418819289989e+00,0.000000000000000000e+00,-7.072565918754454735e-03
9.794839445556563717e+00,0.000000000000000000e+00,-7.035439865548758637e-03
9.794839472013867621e+00,0.000000000000000000e+00,-6.998508698240822438e-03
9.794839498194136240e+00,0.000000000000000000e+00,-6.961771393816097199e-03
9.794839524100270367e+00,0.000000000000000000e+00,-6.925226934629803710e-03
9.794839549735138817e+00,0.000000000000000000e+00,-6.888874308380834449e-03
9.794839575101583762e+00,0.000000000000000000e+00,-6.852712508081308315e-03
9.794839600202415397e+00,0.000000000000000000e+00,-6.816740532028294636e-03
9.794839625040415498e+00,0.000000000000000000e+00,-6.780957383777718589e-03
9.794839649618335642e+00,0.000000000000000000e+00,-6.745362072116083477e-03
9.794839673938897207e+00,0.000000000000000000e+00,-6.709953611034376146e-03
9.794839698004796702e+00,0.000000000000000000e+00,-6.674731019697619991e-03
9.794839721818702216e+00,0.000000000000000000e+00,-6.639693322418769965e-03
9.794839745383251639e+00,0.000000000000000000e+00,-6.604839548634798552e-03
9.794839768701054439e+00,0.000000000000000000e+00,-6.570168732876240092e-03
9.794839791774695215e+00,0.000000000000000000e+00,-6.535679914743273283e-03
9.794839814606730144e+00,0.000000000000000000e+00,-6.501372138873093634e-03
9.794839837199690535e+00,0.000000000000000000e+00,-6.467244454922516789e-03
9.794839859556077499e+00,0.000000000000000000e+00,-6.433295917535358788e-03
9.794839881678370830e+00,0.000000000000000000e+00,-6.399525586318504690e-03
9.794839903569020123e+00,0.000000000000000000e+00,-6.365932525813643855e-03
9.794839925230450106e+00,0.000000000000000000e+00,-6.332515805473342904e-03
9.794839946665064190e+00,0.000000000000000000e+00,-6.299274499637119544e-03
9.794839967875233810e+00,0.000000000000000000e+00,-6.266207687498826298e-03
9.794839988863310865e+00,0.000000000000000000e+00,-6.233314453091423103e-03
9.794840009631620603e+00,0.000000000000000000e+00,-6.200593885252174420e-03
9.794840030182463408e+00,0.000000000000000000e+00,-6.168045077603085020e-03
9.794840050518118346e+00,0.000000000000000000e+00,-6.135667128522620528e-03
9.794840070640837837e+00,0.000000000000000000e+00,-6.103459141123962657e-03
9.794840090552849432e+00,0.000000000000000000e+00,-6.071420223228906829e-03
9.794840110256362919e+00,0.000000000000000000e+00,-6.039549487337417776e-03
9.794840129753559665e+00,0.000000000000000000e+00,-6.007846050614576612e-03
9.794840149046599720e+00,0.000000000000000000e+00,-5.976309034855788356e-03
9.794840168137621816e+00,0.000000000000000000e+00,-5.944937566467202970e-03
9.794840187028739820e+00,0.000000000000000000e+00,-5.913730776441796129e-03
9.794840205722048054e+00,0.000000000000000000e+00,-5.882687800333266832e-03
9.794840224219619529e+00,0.000000000000000000e+00,-5.851807778234292649e-03
9.794840242523498830e+00,0.000000000000000000e+00,-5.821089854748254591e-03
9.794840260635719886e+00,0.000000000000000000e+00,-5.790533178971836968e-03
9.794840278558284652e+00,0.000000000000000000e+00,-5.760136904468931944e-03
9.794840296293182647e+00,0.000000000000000000e+00,-5.729900189242365278e-03
9.794840313842376744e+00,0.000000000000000000e+00,-5.699822195718671526e-03
9.794840331207812056e+00,0.000000000000000000e+00,-5.669902090721995989e-03
9.794840348391414153e+00,0.000000000000000000e+00,-5.640139045445823063e-03
9.794840365395085513e+00,0.000000000000000000e+00,-5.610532235437747095e-03
9.794840382220710850e+00,0.000000000000000000e+00,-5.581080840571206805e-03
9.794840398870153564e+00,0.000000000000000000e+00,-5.551784045023730983e-03
