accel_x (m/s^2),accel_y (m/s^2),accel_z (m/s^2)
7.641378910595816518e-03,-7.597540789159935165e-03,9.792294841025313445e+00
-1.921892516297139938e-03,-2.134095256157131013e-03,9.794189490920674146e+00
3.201963489655938570e-03,7.251275517903803779e-03,9.803446119267414716e+00
-6.143320515223098417e-05,5.076412076522185055e-03,9.796384466853503170e+00
-1.346966890858494401e-03,3.471672254765063945e-03,9.792734214481749078e+00
2.833428513425342854e-03,5.684472471674806293e-04,9.796264467613978510e+00
9.039191236087733804e-04,6.792080763930534101e-03,9.797378875330625903e+00
-1.160708444967818980e-03,3.879768296133262462e-03,9.797077332054977106e+00
-1.039327504223563339e-03,9.379750845940779081e-04,9.795307784532971240e+00
-3.721743288409548643e-04,2.909109371359987033e-04,9.796834119483209591e+00
-1.236400754098618618e-02,3.823388760606372203e-03,9.793049999196274058e+00
9.835938180738973066e-03,1.058638308814480178e-02,9.795476801452421611e+00
-2.135530929985187017e-03,-1.371807150358197742e-03,9.795307494647252256e+00
3.754254503944811500e-03,-1.666443424084701475e-03,9.793210090141172941e+00
-3.242440133429507973e-03,1.422138625093864240e-04,9.801206691109392466e+00
1.081553855358519979e-02,-2.552836942638794012e-03,9.806845941102842801e+00
8.166027722923043658e-04,2.535057907872854000e-03,9.804379771279140954e+00
-8.067386951731200101e-04,1.434463168455089041e-04,9.789581667349905203e+00
1.982696894121090039e-03,2.906031282951542947e-04,9.797247146773644388e+00
5.976928602630796668e-04,-1.308033527770431203e-03,9.786567732728194358e+00
4.872317729878158921e-03,-1.771164161630619897e-03,9.801024206776160597e+00
-3.752909253609689692e-03,-1.158483354820737544e-03,9.796644071461244607e+00
2.540107571447254749e-03,2.669928604253159025e-03,9.794394486063268346e+00
6.923230167110954250e-03,-1.466085023478644594e-03,9.804496192672553789e+00
-1.478478246571506569e-03,-2.961243962187014647e-03,9.794214068582485666e+00
-1.690699847013291904e-03,-9.782891276090076305e-03,9.799234762131048271e+00
4.193303271430303368e-03,-6.572666343169134180e-03,9.791332892757907302e+00
2.006746775368516145e-03,-2.119360134900376714e-03,9.791235705061875905e+00
4.911666696375895612e-03,-3.190354304690443295e-03,9.800595271421236987e+00
4.558441535745556307e-03,-5.621524909850331283e-04,9.799849879682728471e+00
2.564518060619880866e-04,-8.290584509202591698e-03,9.794016811633426300e+00
-2.262186003479461742e-03,1.026375423150963605e-02,9.797895553565686200e+00
8.438888455209762537e-03,5.255581694889869225e-03,9.788857428580879372e+00
5.664648113830631111e-03,-7.431395764341675383e-03,9.790819801413631396e+00
-4.755312905094746800e-03,-2.641293001632476559e-03,9.794842019254076604e+00
-1.787589180503930397e-03,8.942693597832309304e-04,9.790779383529802260e+00
1.169314511944680862e-02,-3.292663769713289126e-03,9.800381384025504516e+00
-1.407923941623877989e-02,7.399316046704804486e-03,9.797412998240755400e+00
2.766703676827039424e-03,6.382923730191657555e-03,9.790605464563162386e+00
-7.471556556134195844e-03,-2.876418234734695600e-03,9.791656413136843540e+00
9.619240112689313865e-05,-3.777085204173930705e-03,9.798375949189550127e+00
-6.047187208472651343e-03,-1.013443417953139702e-03,9.796212406211095569e+00
6.604755023340265832e-03,1.052027206995200664e-02,9.789581778902196163e+00
-6.836455548821769677e-04,4.323092104080095621e-04,9.800182026126067925e+00
6.198544311722925526e-03,4.789385450678005501e-03,9.797459025512837982e+00
-3.666752279709607158e-03,-2.280108855575891692e-03,9.798490559104811481e+00
-3.283186768989051693e-04,-4.809694637523000312e-03,9.798864068529780980e+00
-6.114816139449181717e-03,-1.265208587950730941e-03,9.801696504207594529e+00
3.348791453471521018e-03,1.170613639971964347e-03,9.792997979730753144e+00
-4.425528167298898446e-03,8.357824361646181560e-03,9.791101565145650554e+00
-4.764458959692951905e-03,5.818129190471969803e-03,9.791244895657992942e+00
3.449231726802123345e-03,-3.376145171353267180e-04,9.790434989879518213e+00
2.200992444962319300e-03,-2.114664634284156054e-03,9.789050805626828833e+00
4.956302168117474038e-03,-5.925909534433521780e-03,9.792193820991762720e+00
-3.403535658390259696e-04,-7.325185326833234855e-04,9.798085084794971422e+00
7.120291470237399313e-03,1.220140660318814584e-03,9.790329586347077395e+00
3.420205154393775489e-03,3.235278738218008276e-03,9.798288484646516139e+00
6.141711900956405186e-03,-6.505549305038858766e-04,9.798111131291680209e+00
-9.750988179938774748e-04,2.684576006267659284e-03,9.804099536292232742e+00
1.425385662674032985e-03,-6.428265467677323798e-03,9.797968220732219180e+00
-3.240177876227543982e-03,5.834400051865199638e-03,9.801319209189609083e+00
-3.084453482594457039e-03,6.980446746874586876e-03,9.790628096085734811e+00
2.492501546049136294e-03,9.652925656573857482e-03,9.777066820273448755e+00
8.667464574572995243e-04,-1.799411795050275941e-03,9.797738278571154424e+00
8.626778208352670063e-03,3.539299200805258797e-04,9.789145450917155600e+00
1.705542093086043643e-03,4.507798260390588792e-03,9.800771915246178523e+00
-4.982670524407989063e-03,-1.580555871132647335e-03,9.794834454475388696e+00
1.511204271586610122e-04,1.363584497074625101e-03,9.795451456966951298e+00
4.119363934235854494e-03,-7.034140798048072428e-03,9.788706355215762045e+00
1.043946290056814528e-03,4.358306219426009639e-03,9.801915977102106936e+00
-2.140240341550615766e-03,1.692798855480279197e-03,9.794599574920642482e+00
3.695162942256818676e-04,6.188453533737010327e-03,9.801563229423463142e+00
-2.969888164856074493e-03,4.080483906503370832e-03,9.798778693142331520e+00
6.154180452606561151e-03,-5.159078505024760827e-03,9.799510797396859374e+00
-2.335333970160912744e-03,8.162102979004247534e-04,9.806702116282378867e+00
-1.001814279475863115e-02,-2.384286772756157458e-03,9.795574804570119198e+00
5.470056333304253171e-03,2.452458828199664907e-04,9.798305700568750609e+00
-6.508886221385185109e-04,-3.604362517370737892e-04,9.796210060878722814e+00
1.674990088852551734e-03,1.015046699100828793e-03,9.795027685220095037e+00
6.283816521054883496e-03,-1.033021435012744862e-03,9.790797452276509105e+00
-9.645318800059832567e-04,1.786618106962000688e-03,9.798427221212342886e+00
8.759467903893546114e-05,1.083878652525786281e-02,9.789305434506724524e+00
2.254397058830270514e-03,1.024509237402839584e-02,9.800186398597752202e+00
1.154662045788792555e-03,1.125425192860179426e-02,9.798112228459309847e+00
-1.613720776910913986e-03,-1.832870147397395837e-03,9.803145308497917654e+00
-7.601795598559478624e-03,9.663992135198097447e-04,9.793370868282721631e+00
-7.559889959403775367e-03,-4.460162362313857022e-03,9.803372806296673403e+00
-6.312190963603839591e-03,-3.232540627508283075e-03,9.791683089535322182e+00
1.716387672068167818e-03,2.155115387782326631e-03,9.790454125615925207e+00
-2.463505328274212883e-03,8.038567283820063306e-04,9.790430927800375827e+00
-5.664132074300280012e-03,5.773371678050030417e-03,9.799430486881819391e+00
2.863878996921555113e-03,-2.465008383353306000e-03,9.794360478567444517e+00
1.105952935039831476e-02,-9.143298611732800923e-03,9.792142896318329903e+00
5.924812909414022173e-03,1.876495266461290692e-03,9.807480773954560860e+00
-3.697714380836013282e-03,5.913438755965776984e-03,9.792889861987490008e+00
6.372821475112194246e-03,-6.791080003649281084e-03,9.796518181294484151e+00
-1.424439753404286441e-03,-2.841838534554016679e-03,9.800273188490647769e+00
-1.554194305797510639e-03,-2.873102472296899280e-03,9.794592735926825000e+00
-3.569712264746482174e-03,8.188534673843717721e-03,9.796342926417962005e+00
3.892724536966953074e-04,-1.784099321051953180e-03,9.797407070044798161e+00
-3.232406710176440393e-03,-2.359394356954816734e-03,9.796738461083641880e+00
-3.238336705264762902e-03,-7.259555569014915048e-03,9.796002063361703094e+00
4.043953379134101155e-03,6.761357719550904061e-03,9.798874095230127423e+00
2.478586898676817928e-03,-4.169370635705961330e-03,9.789399028393262370e+00
-1.797765517502056178e-03,1.872031373248597089e-03,9.779762560811857242e+00
-3.254598752572880789e-03,4.789296499751538399e-04,9.793750350943186689e+00
-5.225247486522591016e-03,-7.804875417018848020e-04,9.792843932496877457e+00
-6.779657038899818827e-03,-3.631130076556427205e-03,9.792804008862702858e+00
-3.703811785064218057e-03,-6.492515226823497619e-04,9.793364775158151403e+00
1.041788559859702611e-02,-3.493926496375339332e-03,9.806122660137829072e+00
8.376263736533431578e-03,1.921778869018433891e-03,9.798056172083636994e+00
7.414453582381128234e-03,9.929785350199081973e-04,9.800391711936148553e+00
-6.820024483709098001e-03,1.685725575753782221e-03,9.806152231986921208e+00
1.950515840257227834e-03,5.312300822600905630e-03,9.793470445457415963e+00
-9.584657283369510047e-03,6.535329515724534570e-03,9.799202323944454562e+00
7.543655972685225138e-04,3.586206873643065646e-04,9.794748560793280490e+00
-4.535960185156766127e-03,5.808741392587570820e-04,9.792479627570537914e+00
4.037378485855046403e-04,4.173761413503202389e-04,9.807482465329934840e+00
-4.614327323976829404e-03,5.267506646011098706e-03,9.804375038770835715e+00
9.519517405141231237e-03,2.393622290802530691e-03,9.794709854321949294e+00
-7.165443866804368372e-03,-4.594499763296109630e-03,9.803373022253170532e+00
5.332555344876834446e-04,-4.967891178699784457e-03,9.800648821872208316e+00
1.488575253193244593e-03,-9.944183954931674202e-03,9.794881241208098999e+00
2.502822306624056040e-03,2.352188390969225593e-03,9.799446617182917763e+00
-1.481253199496926007e-03,4.560727770737965300e-03,9.800060316964170681e+00
-8.134475425467050649e-04,-3.149869449017201478e-03,9.796018537253127434e+00
4.289127541809552302e-03,-4.668099374700248466e-03,9.790214616661190306e+00
1.360437701434616701e-03,-7.570993382841419194e-04,9.796180508250909469e+00
-5.079579727110824540e-03,-8.681740796389364467e-03,9.802764468634126871e+00
7.673020554646246480e-03,5.752709539211964956e-04,9.799869070016523409e+00
8.575316040481275812e-03,5.214852320370149535e-03,9.799511346270829648e+00
9.354129819886975242e-03,-1.886326815079421293e-03,9.803019951210499627e+00
-5.615499695287029698e-03,-6.745807986994731102e-03,9.783538783586811505e+00
4.035647872495538337e-03,5.752858277252292105e-04,9.797265642060770219e+00
4.069381547771563738e-03,5.622918559365941774e-03,9.785380982609460432e+00
-3.344874811093613998e-04,-6.773876369617654915e-03,9.801511532675169391e+00
-6.657891189276197996e-03,-2.913878723512386242e-03,9.796826555949021298e+00
-2.863595829241922987e-03,7.273516195715928542e-03,9.799075276438367510e+00
1.547920234526442909e-03,9.764350199429748956e-04,9.807799448831191924e+00
4.692309968747825424e-03,-2.557823387630712986e-03,9.804928566471371454e+00
-6.231246341511178892e-03,9.176764410171147496e-03,9.795331848742893754e+00
-3.431253295219544117e-03,5.208402065994138970e-03,9.794264272257107606e+00
-3.718573899231413047e-03,-1.328754180024195250e-02,9.797211131332435485e+00
4.405251079257274140e-03,-8.443409440110757544e-03,9.792536773150567697e+00
-4.190760445017259993e-03,-8.216947391244171228e-03,9.789259835398921084e+00
6.493140082489867911e-03,2.038925225091916052e-03,9.789439316380818212e+00
5.093668936248581681e-04,-2.889187746719295647e-04,9.793152720613633733e+00
1.439736243087906846e-03,-8.323265133893385792e-03,9.795264701347022651e+00
2.070260963630442784e-03,-7.258893338690802603e-03,9.797615630711401735e+00
-8.309065418533729402e-03,2.947063489920290734e-03,9.798039858280228387e+00
4.313127346395224070e-03,6.581464671879677306e-03,9.796191440486463620e+00
-1.582993525728722695e-03,2.014845540365301467e-03,9.801180466196173668e+00
-2.493408413303336776e-03,-6.375236092241477748e-03,9.789471683800929469e+00
-3.620338773975626933e-05,-6.553171867727303201e-03,9.800122467462115239e+00
-7.125841119825362252e-03,-6.174630835614114757e-03,9.791320949955458985e+00
-3.215885492285653138e-03,-4.214457791553617369e-03,9.790110572124097743e+00
-7.740741064882505386e-04,-3.969937194406678894e-03,9.793861541424803363e+00
3.801064221599304276e-03,-2.191758722480480204e-03,9.785317895393134791e+00
6.856788637855668403e-04,-2.847328150205324839e-03,9.797015728509943955e+00
1.957106330175098323e-03,-5.662950148436297036e-03,9.790833874239618595e+00
-1.027529145058002011e-02,-6.271787261736904741e-03,9.792285036068028248e+00
2.206379622124202914e-03,-4.941305363297890905e-03,9.800501429906100626e+00
6.013997906968015540e-03,-2.659805549154145663e-03,9.788948915008299778e+00
-1.180486135864912065e-02,-2.680805995903193326e-03,9.793646034983600757e+00
-8.751662449501267267e-04,-6.789779434140870949e-03,9.784930717588199656e+00
-3.946836243585948728e-03,6.993964192910118519e-03,9.801340095679854869e+00
2.276738340929477730e-03,-4.732408510019063888e-03,9.792218242763190972e+00
-7.517503685949144740e-03,-2.895823397055042984e-03,9.798458758070038854e+00
-3.002668788167201647e-03,2.838255759027910868e-03,9.796352421350860595e+00
3.237001191078066765e-03,-3.711768523798176980e-03,9.793240539252758836e+00
2.045989194375096975e-04,-2.766991250824723733e-03,9.800088591086485224e+00
-6.830834134390754639e-03,3.844283490833935116e-03,9.791779410991532373e+00
-2.643147458697193714e-03,1.827561638210336258e-03,9.789759568357220942e+00
2.603033032360245382e-03,-7.919056731550612460e-03,9.795786494621662399e+00
3.146899679150786701e-03,-6.144312520212845755e-03,9.794715665906299051e+00
-1.584595024370107335e-03,2.167329122027569430e-03,9.786425010764647325e+00
-1.970408243959626254e-03,-8.156875446427240941e-04,9.792748937085997696e+00
-7.154412621847556705e-03,-2.742136494145149331e-03,9.798152683216791559e+00
-5.331597524928608813e-03,6.384717632245314953e-03,9.794131611403621207e+00
2.128229806491345206e-03,2.070151793503994392e-03,9.796674872222153496e+00
2.882260765464976331e-03,-3.378006640497894109e-04,9.799856910289959089e+00
-2.750519664320920203e-03,-2.852537084217947327e-03,9.790210263469674601e+00
3.294044742703209575e-03,6.499045807272529375e-03,9.800551085774486637e+00
2.137820388687220775e-03,-6.890708462520329057e-03,9.797666284001364190e+00
2.544026324554138352e-03,1.343749522974911192e-03,9.791959203664289291e+00
-5.395012295678712662e-03,3.716476863951652214e-03,9.800461726102046356e+00
-8.933497333770423505e-04,1.088186683264102516e-03,9.800025546677765931e+00
6.356056038879348211e-03,-3.034740944770002863e-03,9.801678930491481978e+00
3.267723809187825408e-03,7.984129149455076319e-03,9.795349136588272998e+00
-4.098727570007581209e-04,3.490880949676282083e-03,9.785483319085171772e+00
1.826688877289933764e-03,1.489946402655071764e-02,9.787892965548723012e+00
-5.316437268388070694e-03,3.097404040755252254e-03,9.791668274814258055e+00
5.357900430272939316e-04,2.249440517038319830e-03,9.797342117040074072e+00
2.691296517203424325e-03,2.671573169057841948e-03,9.799929585619194583e+00
1.489299926731516965e-03,1.901380085866925373e-03,9.787872317447495973e+00
-2.794148648332629107e-03,9.482898555468653951e-04,9.793599544152330694e+00
-4.503301390327453871e-03,1.306980496889020935e-03,9.800596866693735976e+00
6.002576565292254765e-03,-2.891984091002204257e-03,9.793116589792116855e+00
4.927751479554455354e-03,3.933483402766281903e-03,9.797888156349234379e+00
-3.833336482293005134e-03,2.438080542913550293e-04,9.785184209116856380e+00
4.935887760634537040e-03,-1.831125513443443431e-05,9.803157871479031726e+00
-8.163177534030606822e-03,-6.168528779922233946e-03,9.797730121464358177e+00
6.213173571870538557e-03,4.456228801770623213e-04,9.789605487827337527e+00
-4.050731166916224021e-03,2.430089936586504393e-04,9.797821526840760242e+00
-7.080835548002126049e-03,8.592291905399751864e-03,9.788717959937164537e+00
-5.715513464778617042e-04,2.046551987557841245e-03,9.798569171105379283e+00
7.552537929179874328e-03,-1.575513439661510064e-03,9.794546881139453376e+00
-1.028182232133168991e-02,-4.495465253106502258e-04,9.793803361887801984e+00
-5.340176992836817398e-03,3.637500842330020946e-03,9.795282564448282159e+00
2.963138663807238162e-04,7.799547830801795839e-03,9.798990877037001113e+00
-1.093686810113877854e-03,-1.258187700229454996e-02,9.792617939936269167e+00
9.515826012536695439e-03,1.725166433022143515e-03,9.789950205700991503e+00
5.558310258527844432e-03,-1.180193035489261223e-03,9.791878511339049851e+00
-1.856651378581837064e-03,-8.588369257321858477e-03,9.792974166655719515e+00
6.214809110612055064e-03,-1.521862765244956939e-03,9.805144025796181495e+00
-8.728706936363015909e-03,-3.487245954846921077e-03,9.793975310182666760e+00
-8.002156909522797207e-03,-2.891316210226607935e-04,9.795818134343104333e+00
1.050296606226231756e-02,2.790745825152199464e-03,9.788149109405143378e+00
9.414548115263970257e-03,-5.834503554035643316e-04,9.792774783364235347e+00
-1.056328670364386655e-03,5.607346458346036504e-03,9.794433997303311656e+00
-2.470963684507747424e-03,2.177744876796187425e-03,9.792062818741383623e+00
-1.056086884266359792e-02,-2.065676741458725811e-03,9.794522564960931987e+00
-4.845134793393983397e-03,-2.704969056589404813e-03,9.800654170094746931e+00
-4.281896705664235041e-04,7.350445521200597160e-03,9.793115473468580134e+00
-2.133952426872861869e-04,-2.100317217201856743e-03,9.791165048981346430e+00
5.589781695508651803e-03,8.358767655820425330e-03,9.786870048643145026e+00
7.999208222145127653e-03,-6.126473833706301379e-03,9.791907702366753341e+00
5.601416131378603863e-03,1.442176418764358784e-04,9.802874961589267855e+00
6.244819709340383718e-03,3.328647827803153832e-03,9.801683296055744066e+00
-5.526068428878974301e-03,6.105508945973693417e-04,9.798733207506174381e+00
-2.270831385265039120e-03,-2.640110317537647851e-03,9.799377425513936757e+00
3.756405322409800233e-03,4.277845258456781756e-03,9.803374278789375396e+00
-2.842897269196812890e-03,-4.147754491151014848e-03,9.798361918457594300e+00
2.173075259214023516e-03,-7.638349771205795629e-04,9.804150388575965991e+00
-2.609993310466188904e-03,-6.442897919714669387e-03,9.799967836441116020e+00
5.171950092297300690e-04,2.099730240354904663e-04,9.797673881082799241e+00
3.093513522407127098e-03,2.470977754336234605e-03,9.800468214084416374e+00
9.754445646334153341e-03,5.489266452755391795e-03,9.800573908983674087e+00
3.436266917859001797e-03,2.861949319213902623e-03,9.795133228010557858e+00
4.395209373626799820e-04,9.460866495997286713e-04,9.793558110102715375e+00
3.495930307100030476e-05,-2.981532696748154243e-03,9.803902329912993707e+00
4.372265421720268261e-03,-3.241584492576622331e-03,9.802836790920149923e+00
6.098073338206866020e-03,-3.730584073976607289e-03,9.787338277203158299e+00
3.934669284624124630e-03,-8.139217254932856749e-03,9.792628302296066067e+00
1.751558981459813875e-03,1.762072981242615750e-03,9.786784704461412687e+00
-2.681221356335287791e-03,4.512776022073631578e-03,9.798721700896148690e+00
5.422818067479625442e-03,-6.854102048644843299e-03,9.801202800574525753e+00
-9.097908823483411489e-04,1.090972512528024093e-03,9.791667198351797552e+00
-3.479983402692851148e-03,2.817109581840811575e-03,9.806198760737503406e+00
4.255342004794835167e-03,2.805495231272419482e-03,9.796886995709156665e+00
-3.048622522665685435e-03,3.118947303701489256e-03,9.792975892970472884e+00
1.274560017716886394e-02,1.453030230659308180e-03,9.796751340555355014e+00
4.218903332445522042e-03,-3.047698731755266351e-03,9.803863672440863652e+00
1.845792138853817729e-04,6.862691009285548649e-03,9.796274144739543388e+00
2.707930367191428624e-03,-3.579997429547556939e-03,9.793189331017302379e+00
-7.405709451867348997e-03,-4.513778419325749879e-03,9.797550574865088180e+00
-7.715690314699347185e-03,-7.478985492432282077e-03,9.793161682148316061e+00
-6.839015175554228644e-03,-1.501340373452444196e-04,9.798088654477751902e+00
4.975652456724792214e-03,2.139592515671213252e-03,9.791115093051486085e+00
-1.905589758661674783e-03,4.733232491802104661e-03,9.787655959899343117e+00
5.359265581478107193e-03,-1.506546435660468088e-03,9.792240835674215660e+00
-1.647276136907017009e-03,6.279198852521651088e-03,9.801710123078317238e+00
4.345046704974642876e-03,9.550383733876382586e-04,9.798182492732095739e+00
-7.802127150139052947e-03,5.558490767828945522e-03,9.792347758439156280e+00
7.266167489434437014e-03,-1.321036074522023793e-03,9.795121585453651747e+00
-5.990555307499051234e-03,1.597159009379470196e-03,9.786206207276570979e+00
1.422354191720084926e-03,-1.924776033798715567e-03,9.792254055406576896e+00
1.952548243426094950e-03,3.796550009505791218e-03,9.796299346179910827e+00
2.395494679470108398e-03,2.889300236017965616e-03,9.793706896497708314e+00
-9.707553366157853011e-03,7.020688768180893650e-03,9.795112757607899567e+00
5.770488107003082442e-03,9.405152826403770025e-03,9.801065476494432716e+00
5.589092637595421270e-03,-1.158346359067841634e-02,9.802797012469532945e+00
-4.463986560369438217e-04,4.281761676807691736e-03,9.790365181962357610e+00
9.255543793683649809e-03,1.457281287365173265e-03,9.800202781527474372e+00
1.165804197939418994e-02,-3.708232465735563504e-03,9.789134660851873448e+00
3.725924574676083012e-03,-3.735274583432286657e-03,9.796778059019978002e+00
7.024498698305133015e-03,-1.236982187444046061e-02,9.792302849909974682e+00
4.247516164039786754e-03,-1.760197287601749511e-03,9.804364115452374406e+00
-4.304197384987381442e-03,-1.563834522190554093e-03,9.790935630797955369e+00
1.171096849198770490e-03,7.868013665656415495e-03,9.793803023164782573e+00
-9.650137327480246083e-04,3.613352970834410923e-03,9.797236019923809991e+00
-1.196907922410390349e-03,-7.567121453536043360e-03,9.798626370549003539e+00
3.472670352710384087e-03,1.279889524503580525e-02,9.792191780489671871e+00
-8.460165621466286812e-03,-6.830407090028731143e-05,9.791700441271599331e+00
2.074259602595205677e-03,1.283566113894507588e-02,9.801572432318064187e+00
-4.931804597994178183e-03,-9.006539368270737728e-03,9.789819606348862280e+00
5.176598182665173055e-03,4.471478293774576798e-03,9.804970334841744517e+00
-2.775212346294054621e-03,-4.411675896455434509e-03,9.797340774091878757e+00
-2.176109089620854430e-03,-5.445596430192644992e-03,9.805396536526815865e+00
-2.416144763746575809e-03,4.038054571131934403e-03,9.787802121687713353e+00
-9.042614481978505318e-04,5.067336950489777572e-03,9.794473890879816125e+00
-9.461329729138497069e-03,-4.705791720986943726e-03,9.793941353217430645e+00
2.543242232846089010e-03,-2.024420613966728451e-03,9.797393093604638281e+00
1.034394396006234427e-03,4.535261944968108495e-04,9.800974293410005700e+00
-1.223167173900758641e-03,5.068919458521160132e-03,9.789435090204410272e+00
4.887233157410886784e-03,1.077974867312459471e-03,9.800451785353345713e+00
1.103521762750753286e-03,1.688922174362997384e-03,9.796957106186189534e+00
4.259220361244543153e-03,6.661837297791653630e-04,9.793842157287748762e+00
-5.719081692656860678e-03,1.107567402928549653e-02,9.792702495834662457e+00
2.248198206093552786e-04,3.789062779004765368e-04,9.788219082934448423e+00
1.094815542817112507e-03,5.047265066400226027e-03,9.804043846154804953e+00
4.146061131007634792e-03,-9.341268369937335767e-03,9.789154807591375018e+00
-3.041374452357237506e-03,6.230543428461974079e-03,9.782885381584287998e+00
-3.792770531393272262e-03,2.835775072686590268e-03,9.797464699670468846e+00
-9.365581115436132000e-04,7.922434108021415280e-04,9.793133272682467805e+00
9.978330244118954100e-05,5.460464037128734058e-03,9.795167997497886248e+00
-3.490924000427724546e-03,-1.249908918519190924e-03,9.790833493980596103e+00
-3.524674685913994215e-03,-2.539091386456676820e-03,9.796754816672001098e+00
2.409823055476695459e-03,-6.592017327215461686e-03,9.788911179101836169e+00
7.895667967183382305e-03,6.894383518957006296e-03,9.787547403751533537e+00
-5.531593483903221326e-04,2.857526118232923008e-03,9.791605354204280687e+00
7.481670449916199075e-03,2.585712041884335836e-03,9.801197614374105527e+00
6.582935021051076075e-04,8.051213956361193136e-03,9.805062203935262843e+00
3.783404861444485817e-03,4.499930874815307943e-03,9.796768415747290959e+00
1.040646803469880838e-02,5.797175112826495440e-03,9.787442600150738414e+00
1.671371579112837166e-03,4.580093211343577546e-03,9.795435234074780340e+00
4.472325035677147953e-03,1.877988055385468704e-03,9.797345507836578093e+00
6.970996073673012272e-03,6.816084191009445271e-03,9.795007840839355495e+00
2.899224778464181622e-04,-1.057784232322536190e-02,9.792643712549315538e+00
-4.229334989065932845e-03,-4.363255690187093153e-03,9.791087274209022695e+00
6.381003053507554833e-03,-2.984772994473816783e-03,9.790711535440582480e+00
-2.487806389859058623e-03,-3.054427876469705157e-03,9.799513011286958175e+00
5.349141523676244694e-03,-6.761498171092802587e-03,9.798795501326209134e+00
-1.068041377737541375e-03,6.587932635135944175e-03,9.789653744801260160e+00
6.061827432769169993e-03,-2.522734719208075474e-03,9.789173037811279343e+00
2.671387845365363542e-03,2.046123335982003022e-03,9.796900177120226871e+00
-2.863745592513598955e-03,7.093847471741133483e-03,9.805721789812471556e+00
1.246217485946592412e-03,-3.906216160320540812e-03,9.796051485636224854e+00
-8.940043285629062017e-03,-3.636334226077982471e-03,9.789623553799852829e+00
7.911297914009738416e-04,-2.710977970045367648e-03,9.797826492365732776e+00
3.739873678003759368e-03,7.087145843295031234e-04,9.794335643487158904e+00
-6.697945215734018611e-03,3.804530530929987019e-03,9.799397367552415972e+00
-2.818491592160957647e-03,1.355704410846178803e-03,9.794149938339176131e+00
1.915495856941741223e-03,-4.585135508139916161e-03,9.788068200584591594e+00
9.276283784761473437e-04,-2.997327687917957124e-03,9.791569562029586393e+00
-9.256550266484401060e-03,4.671336627610101801e-03,9.792730506343337638e+00
-4.158809779327137836e-03,-2.487184402060787147e-04,9.784582675081978209e+00
-3.959806262733607182e-03,-1.167064282517030378e-03,9.795813007691601015e+00
3.059660295544195090e-03,9.798568409406563026e-03,9.796317179666653274e+00
-5.472062185084058082e-03,-1.846271488744404346e-03,9.802772237864425975e+00
-2.846409323571014215e-04,-6.761184210055018462e-03,9.802407673479503813e+00
5.827554133178185691e-04,4.279664871620293166e-03,9.798617465266236337e+00
2.671183575664087297e-03,-1.342124596728839526e-02,9.804913823171746756e+00
5.137605082046982005e-03,-1.024711157271542342e-02,9.792934591538285716e+00
-3.370880490479151361e-03,-1.183744768559583105e-02,9.792420398970467232e+00
-9.164802217745262464e-03,-6.470982889242814055e-03,9.791749627341005180e+00
-4.217683605688900793e-03,1.221172096778588151e-03,9.802827198708509826e+00
-1.789579384052946472e-03,-1.931942183052058615e-03,9.793249030277626943e+00
4.286213957426997581e-03,4.519467325588541473e-03,9.791247603648466580e+00
3.366172841505171275e-03,4.433432710696613710e-03,9.793324151918142206e+00
-1.608353898140471236e-02,-1.552964925622266979e-03,9.791088744719083081e+00
7.645492319358225888e-03,-2.433337707447334047e-03,9.798363406248240537e+00
-3.156666976935917392e-03,-6.093309057454942591e-03,9.801461141479519412e+00
3.410070147598127802e-04,3.278130651675520597e-04,9.778843446462984090e+00
5.270929637009421275e-04,2.013804986833576342e-03,9.799133528568289009e+00
1.116742597185302506e-03,1.885143629996606897e-03,9.789696410860520004e+00
-3.538006528187383811e-03,-1.024771697237746373e-02,9.801069532957914276e+00
-3.032083785890019598e-04,2.935741540082490407e-03,9.794267072537088836e+00
6.842618655696386908e-03,3.425374727402567127e-03,9.791938381964785165e+00
-2.266969232693006979e-03,4.388332451756001527e-03,9.799892947845400215e+00
-3.229056621867263527e-03,2.583918762824523319e-03,9.786350357830038149e+00
5.042933838341996829e-03,5.244601667355471009e-03,9.795879668617221370e+00
9.964497706669609225e-03,-1.363041777851123305e-03,9.795331161971930101e+00
3.298840373643527075e-03,-1.395040189927016991e-03,9.790114755847342920e+00
-1.271076505265294771e-03,3.521081452592716900e-03,9.801930084890241091e+00
7.646289066522501607e-03,-1.187401831815831747e-03,9.806877220088928482e+00
-5.886646892459707417e-03,-1.055628981075537078e-03,9.793112951393647236e+00
-1.547858781334615977e-03,3.552924318949336399e-03,9.788177634828077345e+00
5.518959409701318375e-03,7.294961845860432025e-03,9.799011379516450404e+00
-5.320145666782411485e-03,-5.319950703783666050e-04,9.793073465608905792e+00
-5.053286686280595436e-03,-2.155676321139634449e-03,9.797032676627157599e+00
-2.698804622486796661e-04,7.479474361432800200e-03,9.805684805010507432e+00
1.885650280394269218e-03,1.824853288026496729e-03,9.798599202094187888e+00
2.041102486209412509e-03,-2.995137000559144457e-03,9.786320452550020477e+00
7.152575651699687696e-03,-2.835685796790228096e-03,9.800414539629068500e+00
-2.547140875105023856e-03,3.357969460549017036e-03,9.795322582268790157e+00
1.301414929277746636e-03,6.312841776049484682e-03,9.786062665722344178e+00
-1.816713349571802243e-03,4.103491831829328418e-03,9.798475790783404804e+00
7.835414278920899145e-03,9.412985592244644401e-03,9.793983044839874808e+00
7.349471317886150344e-03,9.213403988599941710e-03,9.787337299482565811e+00
6.677963271348450521e-04,-4.699109888792477041e-03,9.793971174382679834e+00
-2.718427253978568901e-03,3.125768833131789808e-03,9.798807725845186667e+00
4.328619735668765185e-03,-2.127698829569846760e-03,9.802270374813634390e+00
4.803918453249847280e-03,8.381515568083338155e-03,9.792930935570787199e+00
-3.153291705136495758e-04,3.838269370970470978e-03,9.797693815464489475e+00
-9.944450480647119839e-03,6.990479759966351965e-03,9.803141413404926396e+00
-1.913068916805800521e-03,-6.386312072793371049e-03,9.794658433937735609e+00
1.294290220975043669e-02,1.929084212850828940e-03,9.796630248949201203e+00
9.378660752846845012e-05,7.021936304482109120e-03,9.791017431036651786e+00
-2.058802618419942627e-03,2.400325100786466440e-03,9.799319886010239955e+00
-1.111031695052466274e-03,-2.186464556948109535e-03,9.800345679932489062e+00
3.088229494270522141e-03,-9.720805103890887977e-03,9.788509415037026429e+00
-5.214495930296591912e-03,-8.067292682945243973e-03,9.804427270255365201e+00
9.784969837425480654e-03,9.475029053011238024e-04,9.794798683950567408e+00
-8.603440345632902900e-03,4.143303626947088193e-04,9.794017049150692600e+00
-6.172942787898595164e-03,2.366654832099939453e-03,9.785530920645058472e+00
-2.571312681630289181e-03,-1.975850306020212558e-03,9.800035222234457777e+00
3.832206493278275759e-03,-2.746374239300432979e-03,9.797194749461590746e+00
5.632322698398684740e-03,-1.204257688885799777e-03,9.794982404130058384e+00
-1.482376825350395673e-02,4.455327694218433527e-04,9.794028157437963955e+00
-3.896788228306099274e-03,-6.428324924480253652e-03,9.791921764551004159e+00
1.630905803090317539e-03,6.521870882042243855e-03,9.792473603736484122e+00
8.965468125882579409e-03,-2.884106305899342311e-03,9.792318637651346691e+00
-1.525755309914928739e-03,7.127248641665362427e-03,9.800887617023125387e+00
-5.463163838925257434e-03,-2.658424132630751377e-03,9.802453810309044613e+00
-4.133776277039414877e-04,2.757953168704532169e-03,9.787645141911339053e+00
-9.127682219640987499e-03,1.847399284985145294e-03,9.795616544485330479e+00
6.863781227850800299e-04,1.585910534928012747e-03,9.802064730383227342e+00
1.029514346003224589e-03,-5.395106832889299837e-04,9.798891443169299720e+00
5.402883850094802312e-04,-1.872372912524906518e-03,9.798006712519040207e+00
2.826742535224383186e-03,-5.141361463507649471e-05,9.798366201293358557e+00
5.366341343766542309e-03,-1.919260120761739690e-03,9.797129855315699132e+00
-2.051791574480391935e-03,2.537049333427801416e-03,9.799692568862246489e+00
-8.438381976107784885e-03,3.570661478316308583e-03,9.794690631194585606e+00
5.167288119535983458e-03,6.728029968947606566e-04,9.794175190284944321e+00
2.027941211985182998e-03,-4.117725629826551187e-03,9.797603906805836260e+00
-1.836757122101756717e-03,2.874600934524683274e-04,9.794422109679626232e+00
2.322147349462399223e-03,-1.300543009447663063e-03,9.793465753014709563e+00
1.353337578163403684e-03,6.498764433267378111e-04,9.795826406200733416e+00
-8.340708573826904892e-03,-3.659637984552011839e-03,9.802963316682546946e+00
2.506946490048307837e-03,1.109917199447736733e-03,9.796393546520405948e+00
-1.432964333588847197e-03,6.563984042816642731e-03,9.796121172792892295e+00
3.892821860531374325e-03,-3.968560641395382001e-04,9.794269476579946954e+00
-5.381416455588253732e-03,5.531908942234671674e-03,9.798719110256481457e+00
4.670409140946411158e-03,-5.256331077301963813e-03,9.805921426052627510e+00
-3.724281494729840287e-03,-2.236637638884023463e-03,9.800649930901462525e+00
1.622778995239603037e-03,-5.446296112742984646e-04,9.795149948249456173e+00
-4.194837289969541305e-03,-5.886757645184188467e-03,9.791928539971918255e+00
-3.798171175154165836e-03,-1.559963621621340488e-03,9.797786916744755104e+00
2.373449483967678131e-03,-4.827491115673514764e-04,9.796046244442157658e+00
-1.673276735896778427e-04,-4.002161237921669085e-03,9.792217313207508766e+00
4.580560770656312217e-03,-1.895890634918080469e-03,9.797120789556320375e+00
7.894135982055875897e-03,1.472269637204963282e-03,9.792717421982727544e+00
-3.450016857216928277e-03,-5.215023644784086421e-03,9.790973529991781277e+00
-1.031636872609203483e-03,-7.000118439829007902e-03,9.795072483166055832e+00
1.509762992133434215e-03,3.074467196767593537e-03,9.799320324994299725e+00
1.271092813557169604e-02,-5.459593264949606090e-03,9.799918054688406599e+00
-2.465225328167175434e-03,2.322323490925627134e-04,9.802123303074804284e+00
2.379609615803954248e-03,-2.793993687269339353e-03,9.796112773792803097e+00
-2.389057636200130758e-03,-3.505983577964152508e-03,9.788760920328712700e+00
-9.639104541626031253e-03,5.313689356363605204e-03,9.797920280015949501e+00
-1.921126156890346631e-03,5.865708112400491118e-04,9.795513078845301536e+00
4.573655135514815011e-04,2.203010555114880750e-03,9.794549917465820599e+00
-6.071001966547212407e-03,-9.053155112220373849e-03,9.790348780174403132e+00
7.196089257001554718e-03,-8.980112430919536329e-03,9.796272677331808509e+00
1.302036058928150025e-03,-2.941269861880751492e-03,9.791648789113695628e+00
3.633665297976076871e-03,1.010298231793438578e-03,9.786082112837339864e+00
-2.734460903646037527e-03,3.221896147698349779e-03,9.796824577112483112e+00
-4.917886492993949052e-04,4.591155891812431604e-03,9.805523187517472650e+00
1.938604827952737425e-03,-1.042200815233566271e-03,9.791955508441585465e+00
-3.145605729275222345e-04,-7.808713644131187737e-03,9.795136694399118937e+00
-3.023971916318867869e-03,-4.523971987840606085e-03,9.797242484523069450e+00
8.418137935990247997e-03,6.499639424474607137e-03,9.802567478154587732e+00
3.419779768725695907e-03,-2.394394438002502533e-03,9.797345055763148736e+00
-4.381131553749354228e-04,1.102428079459159219e-03,9.794228954903623219e+00
3.671712805684714410e-03,1.781635578511114393e-03,9.793411511420218929e+00
1.376956176337794553e-03,9.490396981581068932e-04,9.791898093449637130e+00
-3.798103669788360781e-03,-7.650358523989830156e-03,9.801290071138909710e+00
-4.583861712954513841e-03,4.945462835805151947e-03,9.798971120476849705e+00
-4.648082897057765304e-03,-5.895886199814909983e-04,9.801315848057219782e+00
8.998821084576573773e-03,7.204271181782580247e-03,9.801336835432250538e+00
5.401622589816724995e-03,7.521297020345907823e-03,9.797577477065694040e+00
2.172047716041962569e-03,8.582072638645386192e-03,9.793683782293836515e+00
-4.582953804006332718e-03,2.472563725815698880e-03,9.803818209233973846e+00
6.092806881922643511e-03,5.170473694311818191e-03,9.792588827090034087e+00
-5.673495023594852388e-03,-1.451288766374153084e-02,9.806875609458122867e+00
1.143324285991618658e-03,-1.573246837382422233e-03,9.799927289663598273e+00
-3.739297737526073133e-03,1.431331372166201599e-03,9.803364681662683822e+00
6.950258242764641679e-03,-1.801183281682228361e-03,9.791304188613692006e+00
4.124740285043481877e-03,2.865784743733279516e-04,9.804917778554267827e+00
-1.456464015399289245e-03,1.649694377247705457e-04,9.803116876397169221e+00
1.057035306901298391e-02,4.086235245452700610e-04,9.791117627241645138e+00
-8.105218917370033858e-04,1.039832105259241943e-03,9.799686401092710497e+00
8.955193171662217608e-03,2.316190175313538949e-03,9.789388295275083252e+00
2.611881300203081936e-03,9.561304693913124080e-04,9.796304595824006256e+00
-4.302647248642456172e-03,-1.489927505072658224e-03,9.794089888497879315e+00
8.440131598533039993e-04,-2.723292716064112072e-03,9.806727822901068592e+00
-4.065197183378978230e-03,1.916048542280686124e-03,9.804988270420304630e+00
4.705202412099705397e-03,3.137512968841073193e-03,9.793304337464492804e+00
-4.177350880716060658e-03,3.290246733214502711e-03,9.794887054622648748e+00
6.823426089342163499e-03,7.246995313264332009e-03,9.798225324968500516e+00
7.724776483404326155e-03,-3.417454081008025699e-04,9.796900184913980070e+00
9.170655307670695991e-03,-8.596086711116144013e-04,9.789139570507643384e+00
-3.689184705350231647e-03,-4.156569483588525710e-03,9.797110758970939415e+00
-2.408556507165956432e-03,-3.699336070479180769e-03,9.797492117896377195e+00
1.605124581466714495e-03,3.120202077941169666e-05,9.790163977742857071e+00
-9.446375972120893676e-04,1.147512070128541917e-03,9.797010472475912835e+00
4.399171758658065520e-03,-8.283801874189844136e-03,9.799650206204887581e+00
2.942643557436785962e-03,1.591357464658940506e-03,9.795351760487845283e+00
1.752246685549853703e-03,2.294352842729551010e-03,9.785090017388728967e+00
-5.636799862322459161e-04,-6.005367505965403642e-04,9.797931290646939573e+00
-5.787100399524161033e-03,-4.279454718849931213e-03,9.800996237337766814e+00
2.838774700176850598e-03,9.460714503726683905e-03,9.793655568908182119e+00
1.401138656904598809e-02,4.851972617959656939e-03,9.798909873692593919e+00
4.146925363225075108e-03,-1.000296148362546551e-03,9.792996936866597224e+00
2.441938143700037814e-03,-4.077629388443581269e-03,9.789097948602595523e+00
4.423514787700835033e-03,7.630136895009278532e-03,9.797029938839115104e+00
4.891725686722653982e-03,8.714767942409985119e-03,9.799624879093491003e+00
1.522748589461620557e-03,4.428296372540284180e-03,9.803184958032913343e+00
2.694768758382083749e-04,-6.093133256694217674e-03,9.790333408928949765e+00
-3.378773525290712683e-03,-4.007320535333268145e-03,9.801388586153498395e+00
3.612204217590597819e-03,1.062845548291227460e-02,9.792835336264223756e+00
3.868170124538153429e-03,-3.013208247970467369e-04,9.789840664060575293e+00
-5.522999475449126908e-03,4.358426965134530769e-03,9.787835562234606712e+00
2.618369073552222204e-03,1.234262677462425427e-02,9.799072509580424750e+00
-2.569611117470823290e-03,-3.249961689104558134e-03,9.798621724652431197e+00
1.067149135905348699e-03,5.040131138980218604e-03,9.800986459026512776e+00
4.080795153581558837e-03,-2.758801907179449144e-03,9.792725549413534125e+00
7.675084647533461299e-03,1.740197891636977110e-03,9.797885722203476533e+00
-5.721418940277126809e-03,-9.218462243171441500e-03,9.788876874377665516e+00
2.977060887757863438e-03,1.668187330310861791e-03,9.796335468115870526e+00
8.137717051637387983e-03,-2.941837481173496978e-03,9.789110439982856349e+00
-3.908089894200642359e-03,3.632311898531834921e-03,9.794824542436279202e+00
4.845544075397062098e-03,2.520231336057248816e-03,9.799775421731935054e+00
-1.346643060584659917e-03,-5.797736863683056012e-03,9.790991991046231746e+00
2.991384810639752083e-03,-1.725226913692911755e-04,9.791314423225847108e+00
1.262779149751437711e-03,1.138729502534275369e-04,9.798475715547860787e+00
-4.612393231775997055e-03,1.503593018073301219e-03,9.788260166625512682e+00
1.141026432239102104e-04,7.613075038580031928e-04,9.791314837173491270e+00
-4.332183938962717341e-03,5.034343499665821023e-03,9.800523161229278912e+00
-2.913779937972700400e-03,-8.505362155734441654e-03,9.796364891998514679e+00
-3.473772001052451933e-03,3.325771298755535871e-06,9.801860826554422701e+00
6.880649885281366410e-03,-6.343113253844242985e-05,9.792416434281843607e+00
4.188100804836588156e-03,1.031666745053646259e-03,9.804197430546214065e+00
-1.220810371303258663e-03,6.605513428405420870e-03,9.796271881277279547e+00
1.134950492396669466e-06,-5.526915442250982663e-04,9.794902555430153868e+00
-3.186049237878795263e-04,-1.403390520349111562e-02,9.793744511958006882e+00
-1.241648423757278326e-04,-5.067918408585161613e-03,9.800329711259726295e+00
-8.301870758575640927e-03,-4.753278390525349142e-04,9.790685093456911403e+00
4.655814862307425424e-03,6.692817336168861838e-04,9.803271803510375193e+00
6.086205230089361540e-03,-5.069699180347208515e-04,9.791570588272584530e+00
-1.697723150837919786e-03,6.329498226881756680e-04,9.792505674778851699e+00
4.040862181595045524e-03,3.535580541499401715e-03,9.792237527547435150e+00
-4.715964408313236093e-04,7.881214073459440021e-04,9.797051601856120229e+00
3.397387746555202617e-03,8.943666742068309000e-03,9.799418743947356347e+00
2.010644546241173621e-03,3.639523772605144335e-03,9.800276424313453916e+00
-2.835155182837389119e-03,-5.039953336082965939e-03,9.797883060531235699e+00
6.647002298989108590e-03,2.920001529077574480e-03,9.797530666273528865e+00
3.790008018726007382e-03,3.345226886603807487e-03,9.796599048199023940e+00
6.135637410825136272e-03,1.105404852272955703e-03,9.798877014218314585e+00
-5.093944240184276537e-03,1.339086015252194221e-03,9.796875308521002523e+00
3.035246718972491910e-03,-5.917946424635058770e-04,9.798911938514194730e+00
6.636381759490346706e-03,8.506053469044288400e-04,9.797511703599216304e+00
3.603990877455168045e-03,-7.533251694117730230e-04,9.795736520044318496e+00
1.519870287423911656e-02,2.957480040481406600e-03,9.791227428521265708e+00
1.541596288625456763e-03,-8.397906660970466414e-04,9.793374949641057370e+00
2.059287677319166822e-03,-4.388497287775836031e-03,9.802661631716707902e+00
1.462444796081122707e-03,-2.442072056657176773e-03,9.790272624238602006e+00
-1.088160588960717344e-03,2.233164279070155270e-04,9.801313124620063988e+00
-4.409038492938720764e-04,-8.940911776777634573e-03,9.800525937807661236e+00
5.434548892527648993e-03,-9.680853617489708351e-03,9.788083911581558993e+00
3.425187939227064288e-03,5.339885520582662859e-03,9.798893606219467145e+00
-2.151149434927043802e-03,9.393247358490076568e-03,9.798316719777711015e+00
5.978414182440864970e-03,-1.984576565416546964e-03,9.794282449318448158e+00
5.056463159569452026e-03,-2.366647330541683802e-03,9.798168051240308429e+00
-4.976454650117504699e-04,1.113424727496685647e-02,9.797360658374330455e+00
3.319577330531679488e-03,-1.979942156247672079e-03,9.803478990649711733e+00
-7.262808397294558301e-04,4.673157559234255957e-03,9.789719215926313112e+00
-3.116630700601438417e-03,3.523847075316928999e-03,9.791591657550046790e+00
9.976822914921716287e-03,-4.438671890234279025e-04,9.793774665798526513e+00
7.584278825515338232e-03,1.418279640622621858e-02,9.792398855757781462e+00
-9.794168598002231732e-03,1.186801370515211916e-02,9.788631855747638610e+00
-4.169233663702142344e-03,7.172760252840490978e-03,9.796192257936603198e+00
-4.020595710880758844e-03,7.032924403473225609e-03,9.798766144799303746e+00
-2.592955865047712367e-03,2.174024334966731531e-03,9.801164115510781372e+00
2.278278657678102850e-03,3.299896778062109937e-04,9.798515338978145195e+00
-6.648684250396960302e-03,-6.707233596597959348e-03,9.793475813113227346e+00
5.577075654529147809e-03,6.867710271003135691e-03,9.798793131906343490e+00
7.930824233242254884e-03,1.578372681618244681e-03,9.803310522150960438e+00
-4.446255471699513302e-03,-1.043005701482592994e-03,9.789592949478855388e+00
1.708323224946236858e-03,3.139754181709847065e-03,9.789386209444012721e+00
1.892535068671294656e-03,-1.193344279248797742e-03,9.796806067365420034e+00
1.800547765126992578e-03,4.662792733138724881e-03,9.801044041728459888e+00
5.839814775727080257e-03,1.028775135481540745e-02,9.793594794973664364e+00
2.205012931110853468e-03,-8.210408438179474678e-04,9.800571317542273064e+00
-1.175396665802792883e-03,1.296188312966459547e-02,9.795330419978640180e+00
2.565100775329636276e-03,-2.313749871913792829e-03,9.790970974474587862e+00
7.929945888313038455e-03,-4.742092312531748797e-04,9.796924722752656578e+00
-5.799826187537570439e-04,7.970576941418981015e-03,9.794336683261922971e+00
-2.855788183800669292e-03,3.984620133710615087e-04,9.791282241246962670e+00
5.964214242459411723e-03,-3.338056312400519785e-03,9.796637013305330655e+00
7.829339874161919330e-03,2.521218789559678472e-03,9.797768807237719813e+00
2.470148766119893355e-03,1.136057474978328366e-03,9.792715861673398692e+00
-9.763101466144093969e-05,-4.640395239928765507e-03,9.792696943198517801e+00
-6.944923802310530060e-03,1.170433418241711900e-03,9.795533668581324349e+00
-9.796773986452463490e-04,-6.089850107945627214e-03,9.800854916435964626e+00
-3.615295095129499037e-03,-5.324750848650631162e-03,9.795340052406697140e+00
-1.278580863155629951e-04,4.123820453874688314e-04,9.794903872186505822e+00
4.254818375740943188e-03,-3.422949819334458136e-03,9.803448370984282789e+00
5.221374296084917849e-03,2.901687211333974642e-03,9.790915128585805149e+00
7.087169398144449635e-03,5.252660617437725221e-03,9.796484161495346399e+00
1.631930340306204409e-03,6.135309934167720858e-03,9.794348504606642081e+00
9.934401733094001125e-03,3.080094191399109903e-03,9.783500129441046411e+00
2.890062305184295036e-03,1.613212305646236772e-03,9.795748747487701635e+00
-5.525012989157799224e-03,-5.899983236528776737e-03,9.796127105548984915e+00
6.254856661055270897e-03,1.171632018736012667e-03,9.789018556496190016e+00
4.020611974039830887e-03,-2.947091708455246064e-03,9.796082168446924143e+00
-2.631740851087206387e-03,3.416713817573604345e-03,9.788100829688001880e+00
-3.145667783281339957e-03,4.856618931253004661e-04,9.800292785961328690e+00
3.909710787736316549e-03,-2.243433582715643939e-03,9.795797686545290262e+00
-1.274795748777308611e-03,-1.978254540300519639e-03,9.787149424240336515e+00
7.512055180535114757e-03,-3.134128329267433979e-03,9.793606969274298635e+00
-4.447993731852343396e-03,-4.307818904845597471e-03,9.799332837217551884e+00
-3.806532061467156509e-03,-1.384728322894390479e-03,9.790353130028126571e+00
-2.595211179128763083e-03,-6.235972961398577284e-03,9.797164040802240237e+00
-1.967979902688150482e-04,-6.218718829759614132e-03,9.798504526391200287e+00
5.690256289662297927e-03,6.356128819141582641e-03,9.788597269459556216e+00
-3.065391369942200780e-03,-4.456434344486183072e-03,9.809023541265341706e+00
5.980097959294441816e-03,-2.310174808191938628e-03,9.799331500513222437e+00
-3.262657795584233446e-03,-6.571222440857872821e-04,9.791961433246475721e+00
5.499838002806096450e-03,4.810346784837700972e-03,9.794658563185263844e+00
2.731723603500276799e-03,-2.823061248955337655e-03,9.791285345426116393e+00
-8.330341841041205867e-04,-1.556526189210024301e-03,9.800659131201381769e+00
1.830333338538374811e-03,8.884724836970617906e-03,9.790213322447987920e+00
-6.117807414442384337e-03,-9.185203808312029580e-03,9.796787982243575499e+00
3.865875488145188287e-03,1.123255295864674860e-03,9.792428092915431037e+00
-5.040119037017523835e-04,-4.880856768466433973e-03,9.790483206813112460e+00
-1.632470531703152875e-03,3.783326794999040607e-03,9.797014667685923328e+00
-1.431553736308904812e-03,4.553868326473993651e-03,9.791489283609461580e+00
4.153416961985094934e-03,-3.680550643880695603e-03,9.789373099758757135e+00
1.523476678821517830e-03,2.321013164563124221e-03,9.798922715419010387e+00
-3.254632540432903214e-03,-3.380732805896871380e-03,9.803640550620380978e+00
6.884519311478375179e-04,-4.258110378301521899e-03,9.803076540757414747e+00
-2.587159186977924796e-03,-6.222303602721410316e-03,9.795395305148861809e+00
1.672556226594134254e-03,3.421362187387806068e-04,9.787333109961554811e+00
-7.565711561664724850e-05,6.136763879253812060e-03,9.804692985267687177e+00
1.048343872081616856e-04,-4.743367435956512279e-03,9.794746740870728274e+00
4.031213281140790840e-04,-8.325443150803159970e-03,9.798717750014047212e+00
6.467070207198831119e-03,2.420810961704803269e-03,9.792275344953951688e+00
3.557596274787043922e-03,1.366204413580095070e-03,9.795186086533735903e+00
6.777692330872031254e-03,2.700112683378541427e-03,9.795842720253602920e+00
-2.413394438542439688e-04,4.228513936095616536e-03,9.795932882985688650e+00
1.560804707306492033e-02,7.098874987559967639e-04,9.809103450560556325e+00
-4.114978875442265593e-03,2.260817538682438101e-03,9.787272777064885076e+00
-1.198653940893132028e-02,7.220204856066404862e-04,9.781407182109415288e+00
2.366737797972307857e-03,1.044844727615129240e-02,9.795771140282518274e+00
1.506646782649806449e-02,-5.887002580469136853e-03,9.801058082463454113e+00
-8.327449584094570242e-03,1.103756267994308177e-02,9.786116322031562120e+00
-6.124373151516298436e-03,1.075130525187076649e-03,9.783869513209044300e+00
8.584739370700183309e-03,-2.850048487979441134e-03,9.797199747871509601e+00
8.261295641777599910e-03,4.057866844221482035e-03,9.795134642079448284e+00
-4.163827620288492598e-03,-2.552696588797794507e-03,9.806928542037010033e+00
1.018045561673322497e-02,-6.608945811954085314e-03,9.787496283474483860e+00
4.923145807843974306e-03,3.518043012879088632e-03,9.802018751301865507e+00
7.133021518994119188e-03,6.577337517447049775e-04,9.791411099332350432e+00
-7.718275515304585596e-04,7.989397360949685584e-03,9.796313736967766417e+00
9.004259795627474194e-03,9.174741161564550079e-03,9.802137814049832087e+00
-4.798780438020117459e-03,7.246712645666567726e-03,9.796572172174197846e+00
9.227763091465593067e-04,4.415770739468381778e-03,9.795166208004298269e+00
5.808969712744954184e-04,1.375517554705844338e-02,9.796122507510537147e+00
9.993743126787831780e-04,-3.871730662570702607e-03,9.798604550626285103e+00
-4.396984459244733219e-04,-5.102125658248839006e-03,9.797240015342929098e+00
5.494987353768153665e-04,5.045367489082675221e-04,9.792119088496139767e+00
7.140489119104088435e-03,3.468246390827123184e-03,9.793837751496921484e+00
1.860835935620203628e-03,1.800191568732436393e-03,9.794920743641377214e+00
1.393397553439965075e-03,1.705417060548607665e-03,9.793259026031893910e+00
5.518695477703458932e-03,6.244915060834019434e-03,9.795870404054825897e+00
-8.923940643477398099e-03,1.999032379736124035e-03,9.799679837078860700e+00
4.932186246077478568e-03,-4.380972684540783771e-03,9.800126831941932792e+00
8.363584980996987932e-04,1.781940783340736547e-03,9.788916958161731685e+00
1.888698866038318385e-03,6.436306205683764436e-03,9.794644452701360748e+00
5.073864480831798834e-03,1.700528429079159985e-03,9.794841870694705577e+00
-5.065401919864015445e-03,-4.118327128283074887e-03,9.795489140358737856e+00
8.084619979886065871e-03,1.988621221226782865e-03,9.800227346136860973e+00
4.914485028003741374e-03,3.586335259561242682e-03,9.791169480323821617e+00
-2.498775556917138228e-03,-3.369361803075121130e-03,9.794967645521142074e+00
-5.104058244182356485e-03,-7.848315560015924064e-03,9.797177999935909654e+00
-1.204365764127999800e-03,-8.314359291713559891e-03,9.798552281056698732e+00
-2.907245286887011251e-04,3.777419831990147525e-03,9.801222057672116961e+00
3.633312839213970755e-04,-8.848158044088522828e-03,9.791582317282962578e+00
7.532996522825757650e-03,-9.873068124374906242e-04,9.793299321460887441e+00
-5.942440973570649668e-03,5.200619519997495659e-03,9.798904698888053488e+00
5.654511916148190383e-03,-2.489562522793543117e-03,9.797038436371911629e+00
-1.579655832275125675e-03,-1.211323360885869886e-02,9.802375199929770133e+00
-2.848587290805833054e-03,2.438549894992869671e-03,9.792953462906808682e+00
7.397779520429772788e-05,-2.313221970104447581e-03,9.790955228836031310e+00
9.104149791324674806e-03,-1.591236553395968369e-03,9.790764034806475280e+00
6.204979356323494372e-03,8.076122206726073574e-03,9.796734359664325709e+00
-4.481256147157555540e-03,-1.901458875170751808e-03,9.785482390195042512e+00
-1.854457704385814761e-03,3.203905940067541119e-03,9.796914276241833974e+00
2.622843944795613192e-04,8.823100003038136102e-03,9.797366905038758844e+00
5.783825294477185075e-03,9.825682649092523733e-04,9.802046858875058888e+00
-2.777476881076536893e-03,1.330998570783647355e-04,9.806390272313008083e+00
7.706558408722937945e-03,1.622447941329235865e-03,9.788764218523526850e+00
3.880905497773049374e-03,-5.193295041713738049e-03,9.794108852997409187e+00
-3.108198287150135217e-03,-1.768993653882440769e-03,9.796440129504563998e+00
-7.300229048228949573e-03,-9.078667155596598440e-03,9.796006835736903895e+00
1.109355585399571589e-02,5.561617831372075819e-03,9.787054412604796028e+00
8.143314871727955467e-04,3.743036986962764486e-03,9.790647916539823470e+00
3.551684044498053944e-03,-8.644300659019744319e-04,9.792587480842531278e+00
-1.028477293258168480e-04,-3.059967064850366639e-03,9.796222055883685442e+00
5.728803256360674202e-03,3.368209684539709252e-03,9.795473687100379578e+00
-1.732116751130549376e-03,3.577180927979791867e-04,9.793617812331275374e+00
8.928127333409823299e-03,-6.702979808830966148e-03,9.790233113590147696e+00
-9.456016526312340312e-03,-1.892307777796694646e-03,9.791703411789624667e+00
-2.105413011473716497e-03,1.080719285016100081e-03,9.793551563631234913e+00
1.257623052885909441e-02,3.209351244669941903e-03,9.795509249453253631e+00
-5.734891960437274623e-03,1.400019784549067121e-02,9.802173772522923656e+00
4.635542175694342196e-03,-1.625252289504918943e-03,9.805870327368710448e+00
6.251380131195356619e-03,4.612764144622734895e-03,9.787620857840181543e+00
-6.991019760229940858e-03,1.330773244674944740e-03,9.798857630116620143e+00
1.226520809187449032e-02,4.755739681468321481e-04,9.796040833057391595e+00
-2.752380824764279893e-03,-1.790534602903715976e-03,9.794656730003083567e+00
-4.744685332391167330e-04,-1.623767860478045506e-03,9.790201837010629404e+00
-6.311227942191714388e-03,5.591993078205930411e-04,9.791489401208268717e+00
-1.514074309256547906e-03,-4.360700035084810397e-04,9.800733758017301511e+00
1.495080993212532811e-03,-1.359138631967180813e-03,9.795410507880450979e+00
6.031507998828923404e-03,-1.697055958272989870e-04,9.794699031664636735e+00
-6.655707386185348746e-03,1.515449720640432837e-05,9.792391770867292067e+00
-7.128659428460708616e-03,7.114749143565708006e-03,9.801292191199751258e+00
6.829103750296196262e-03,-5.897808487655298998e-03,9.797457564895758253e+00
5.870007851700935475e-03,9.168944994260706804e-03,9.785079751313556784e+00
3.595606107877622956e-03,-9.394158887369318325e-03,9.795697664256833193e+00
-9.215100296921324924e-04,4.118388121144860373e-03,9.792294980890845935e+00
-1.050125759098161950e-02,-9.715196021022274794e-03,9.786455201160435990e+00
1.131232215168687365e-03,-2.536630933238333621e-04,9.796521435743004602e+00
4.346697699251743374e-03,3.471400195127192535e-04,9.794968518695702286e+00
-1.911560202246002579e-03,7.065832659368354810e-04,9.799768982536539497e+00
-6.115870377303372386e-03,-1.743123303880819231e-03,9.792202626771357998e+00
-5.071528025655381092e-03,6.269162022903554052e-03,9.787840757713901496e+00
1.407666145050001216e-03,1.563827902041866821e-03,9.788392591305457913e+00
-1.615732068632184937e-03,1.488867197823701052e-03,9.789991087955225879e+00
-3.176799922984314094e-03,5.461371037413224883e-03,9.789780545195370109e+00
7.296485525631953017e-03,1.930897430776967478e-03,9.793051511411384524e+00
-5.095771926980053289e-03,-4.053703066519920295e-03,9.795839486082176251e+00
1.935646590625300471e-03,2.721129156908579094e-03,9.796735262592724425e+00
2.321579295799978092e-03,-6.755002707506091008e-04,9.796184233691185739e+00
7.302112756997771251e-03,-6.754304867063644878e-03,9.789917992380363643e+00
6.384854819988539446e-03,-5.762020121694964728e-04,9.798488052482458244e+00
-5.139014194098625969e-03,1.544433881556227760e-03,9.797181846962894625e+00
-3.389993235208050085e-03,5.783715922064697201e-03,9.790617108732199370e+00
-5.850385725786602306e-03,-2.214617380584068922e-03,9.796995354297941105e+00
3.930313078515851322e-03,9.346351317303021669e-03,9.793829313713562357e+00
-7.401719964660068152e-03,-1.497571716269294802e-03,9.799083944781418865e+00
-1.232173270409172953e-03,4.402032658094655326e-03,9.791656392701613143e+00
-3.955960671907456441e-03,5.357297420577301732e-03,9.794725223916112000e+00
1.773146965295786196e-03,7.587344617024338080e-03,9.797164990567942766e+00
3.070923105898328877e-03,9.379458724849163787e-04,9.790380536681452028e+00
-9.093056920318979414e-03,5.902746094096341344e-03,9.786398475802542407e+00
-3.658567772475609676e-03,7.468620347392075642e-03,9.802175235640849138e+00
-6.107390279514227603e-03,5.159677312023070242e-03,9.793779968297343430e+00
9.077455624506205328e-03,-1.860494012022331995e-03,9.803898247063420612e+00
-1.749895264577919262e-03,7.807218019184505430e-04,9.795935933839400533e+00
3.750529438426372306e-03,-1.143615592401981372e-03,9.805594843538509409e+00
-8.120943241354263223e-03,-3.893754088513512197e-03,9.789953432886960627e+00
-4.780015019612560145e-03,1.902507277143123017e-03,9.793631002297917831e+00
-6.245027357819088812e-03,6.921968692689321832e-04,9.786789042155833229e+00
-3.338429055581263079e-03,-4.161965448903709452e-03,9.803669411486993113e+00
7.661782561351292500e-03,1.166085552092985993e-03,9.795507918546210391e+00
-4.953767502556272184e-03,6.973849252173489402e-03,9.802619135546882134e+00
4.790879015145709831e-03,3.895195856938269210e-03,9.793975266104769872e+00
-5.048979074178224641e-03,-1.010574905454653810e-02,9.800698236752461767e+00
-9.479253866648716317e-03,1.600850950911432945e-03,9.792616262263310389e+00
-3.698868339001586472e-03,-1.161204179848486506e-02,9.795774099717991845e+00
-3.243640301558040149e-03,-1.004374170231098901e-03,9.799594916226839203e+00
7.295270196971226188e-03,5.867696241654538764e-03,9.784058270753726916e+00
-1.124516486190939128e-02,-1.914972230811975030e-03,9.795052641863222220e+00
-9.153681240285437915e-04,-1.025056863605592304e-03,9.789290818661674720e+00
6.125043161057556335e-03,-1.082701336342477023e-05,9.791694320918926664e+00
1.424656349421489195e-03,-2.772172925601495671e-04,9.796949836240921528e+00
1.788455173945195913e-03,3.767811508406862108e-04,9.799141387486759669e+00
9.038404119541702591e-05,9.884869732153805585e-03,9.801600164763284440e+00
7.619430975486460658e-03,-4.855863246371178860e-03,9.794278442286481479e+00
-5.371531180075389197e-04,-1.954161629454296244e-04,9.795053223902510098e+00
4.550940147299236890e-03,9.739802597161676539e-03,9.801985116389088759e+00
4.400151430001618229e-03,4.192180700457832573e-03,9.791442119451367887e+00
-1.155036480516079267e-02,1.745263514351748412e-03,9.789097614510808398e+00
-2.595438286829902103e-03,2.426771327524152640e-03,9.795863842584958903e+00
-2.177728811682687077e-03,-8.218593447558842149e-03,9.799516999282042562e+00
-3.197721186996507411e-03,-2.949213407931580884e-03,9.797542760262409445e+00
-4.831024932401102243e-03,4.966034665130201163e-03,9.805073269844895023e+00
-7.006621689433357829e-03,-9.374684269663010119e-03,9.793142385723220045e+00
-7.613534905903395628e-03,8.305017696950170794e-03,9.795444277659242971e+00
-1.164193934418676765e-03,1.825088481909296206e-03,9.797155752367102011e+00
4.615282218705251565e-04,-4.520264771667625164e-03,9.794255262380239913e+00
5.553260478444510539e-03,-1.497533739118124888e-03,9.789911738158792787e+00
-3.550114007786201419e-03,-1.722400632768654547e-04,9.793753165906398550e+00
1.033869586001444699e-02,6.585438655721018164e-03,9.801480445011335974e+00
2.381183446058132962e-03,7.045938141571436719e-03,9.804524424704522900e+00
-2.099619625593666765e-03,1.503561568840925886e-02,9.793143046971680477e+00
2.923034420572837109e-03,3.352244957493444224e-04,9.796002537642459984e+00
-3.440426115083771840e-03,-4.361088317371236006e-03,9.790655884825822497e+00
3.610141604313114611e-04,-6.792576053825511578e-03,9.787495127213743373e+00
8.052705013705814541e-03,-3.245868237265836596e-03,9.796999810495446326e+00
-3.799498830999183206e-03,-1.030190070513789958e-04,9.797883985413189833e+00
2.686211891694475183e-03,3.869334521855306679e-03,9.789955581589486755e+00
-2.797237622997243364e-03,-3.190169946417289668e-03,9.791401056029108929e+00
-6.032090023090169034e-03,-1.731203671823452290e-03,9.789887074472261475e+00
1.958196141940744903e-03,-3.359442054669764186e-03,9.792346500731319736e+00
-9.892510186788088661e-03,-4.388337455451164597e-03,9.793644060431690335e+00
1.302520613942333757e-03,1.262544590175260651e-03,9.790560030867764496e+00
-3.340196147485866322e-04,6.939616235835278403e-03,9.796155771294744241e+00
-4.141771382445131808e-03,2.035285665040916393e-03,9.789663942849971434e+00
1.155262048745207999e-02,-7.305586704017897996e-03,9.793392115415972654e+00
5.801699053428870274e-03,3.745762881927620046e-03,9.798863566975864359e+00
-7.672255222740011552e-03,-5.334842567534763338e-03,9.809378025819913915e+00
8.276406749202979210e-03,2.056913521609556386e-03,9.801279154317613873e+00
6.839540973074545926e-04,-1.110968082945773712e-02,9.793007498546176137e+00
-3.519946607538786566e-03,2.775355881201889419e-03,9.807604735481994851e+00
1.277535554970608746e-03,6.942068934522377041e-03,9.800531588800902583e+00
6.852253007634547498e-03,-2.508026233874498332e-03,9.797908374135198883e+00
-3.529139660450083225e-03,-7.689863355224765308e-03,9.787319178439007672e+00
-8.754307649512221151e-03,4.609308576550482164e-03,9.792430493375896106e+00
4.321356644242760857e-03,-2.132622525333088478e-03,9.792404009516653574e+00
4.448712393566826330e-03,2.018078586755166562e-03,9.790884816576488348e+00
8.499437547757213163e-03,9.347828374224371626e-04,9.800572203776281910e+00
-1.799345172390092590e-03,8.881477815573395745e-03,9.793467113887290409e+00
8.156511885077178184e-03,3.171660301055282023e-03,9.792217365804942730e+00
3.138998229600108072e-03,1.746342540066710223e-03,9.802499963768116942e+00
-2.542081456057645929e-03,-7.671577620965395160e-03,9.798922889400152769e+00
3.320705993343977137e-03,-2.369084620631289884e-03,9.796621617423484807e+00
7.858513573805779931e-03,-4.767617960628677334e-03,9.798279432250103227e+00
1.640754234772466569e-03,-4.040887847117488087e-03,9.791477877871507474e+00
-1.685187965815566728e-04,6.539798078718303889e-03,9.792358500982611957e+00
5.316787161000861850e-03,6.877545084044811574e-03,9.801560516116387234e+00
-7.693713617655910386e-03,1.738824022241737891e-03,9.800182550293268235e+00
5.093872133731053298e-03,-2.199265337461048415e-03,9.801332165075221425e+00
-4.348466783078850512e-03,-3.448303346851191217e-03,9.792228187426546882e+00
-4.895099553816943672e-03,-8.600481126422106389e-04,9.797806981250168690e+00
3.753756957974156185e-03,4.465495358236507180e-03,9.791410885683525578e+00
-3.332690729908959360e-03,-5.203891525612236446e-03,9.795881624187281034e+00
2.842474103454927783e-04,-3.744011868154664691e-03,9.790811692550798639e+00
6.572895194504279042e-04,3.945690624685401458e-03,9.800685831150156346e+00
-4.242761154112185962e-03,-5.963910179885574103e-04,9.796614323063838725e+00
3.602285064037269620e-03,4.281237033149731461e-03,9.796277748989721701e+00
9.249536056690603209e-05,1.050788121383868651e-03,9.796709760031262704e+00
-3.076190754515532866e-03,1.885918170241875167e-03,9.790770406802819181e+00
-1.500414171839497407e-02,3.376593943868312717e-04,9.797421136045390000e+00
-6.853471502675714290e-03,4.038844833024376460e-04,9.801582406353210430e+00
4.119850515010733266e-03,-2.876315030121362817e-04,9.793610888986625795e+00
-3.039210177280357583e-03,4.908630960176493634e-03,9.794577914107989614e+00
-4.828293030197557990e-03,9.771578499330722117e-03,9.786787075388334145e+00
-2.072811336658251548e-03,9.316022466716377542e-03,9.797956475111414321e+00
-4.917313062009799618e-03,-3.921912366881616721e-03,9.794673869136985900e+00
2.641456901089605201e-03,9.447236737712952706e-03,9.802315498092562862e+00
8.666512016720296502e-03,7.001797190602998371e-03,9.802366571945643869e+00
-1.306404870347163856e-03,-1.222348725058382962e-02,9.786271994420536302e+00
-3.057655320476771257e-04,-5.895834563110191259e-03,9.787877754519627160e+00
5.207434867767355736e-03,6.792023153812517741e-03,9.782421655125789428e+00
-4.160675967313166163e-03,2.093155989679761509e-03,9.793045515820397284e+00
3.940254556151789357e-03,4.630984575938539363e-03,9.788268023247329808e+00
4.860569160765191221e-04,1.014943616147715756e-02,9.794645820961076055e+00
6.853711673156023289e-03,8.151204965391461651e-03,9.795443397720584144e+00
2.120505264453760065e-03,9.192676504794498188e-03,9.791469549834095787e+00
5.395273942463855131e-03,-2.435828879262689258e-03,9.796158611390124449e+00
7.353932129580627135e-03,2.880789013932698664e-03,9.787363887604385582e+00
1.469415042262930851e-04,8.111059520240706741e-03,9.787709695056513226e+00
-5.898487761566374200e-03,-8.573645148818151776e-03,9.792142854098981886e+00
3.088848855254764519e-03,7.891801576224168578e-04,9.791269892390264573e+00
8.091643814390198433e-03,-9.509429252639992058e-03,9.794276105482758510e+00
-5.010506658454611873e-04,7.001492671722925332e-03,9.799363517860168571e+00
-7.801795018922544345e-03,-7.292016985885780254e-03,9.801340749007259490e+00
-3.961843944169317865e-03,5.552051434735198916e-03,9.788494745985646617e+00
-5.931041764903924665e-03,6.648500650130441565e-03,9.788778418430926109e+00
2.918903687538779851e-03,-3.323555286454314651e-04,9.792480694101115546e+00
-1.791918586344787376e-03,2.602100905179349430e-03,9.795563864071157312e+00
2.429528273597960936e-03,-3.245426695226699600e-03,9.798896868029041585e+00
5.148343309296047644e-03,5.590985035660252017e-04,9.791760613212291631e+00
5.734310365968168371e-03,-3.338494112947491214e-03,9.793122977555166031e+00
1.120018357054289315e-03,-2.228247955860771651e-03,9.794308200918804275e+00
-1.046910341495722353e-02,7.841213960007654190e-05,9.795216015552687949e+00
-3.410935211820230115e-03,3.426486283474200131e-03,9.798875136149119314e+00
-7.011370852754706534e-03,-2.476475171779094538e-03,9.793903679699091924e+00
1.386204085267745811e-03,-1.732135132994594602e-03,9.792436172149184159e+00
1.461449214850475816e-03,4.892484040193432679e-03,9.800001948223085790e+00
8.063778888079528931e-03,-3.822419361956892921e-03,9.796470271592532697e+00
-3.030013965041433287e-03,9.420334145257846375e-03,9.792138423692035687e+00
4.038919303075728115e-04,4.027737523679331653e-03,9.793247751709527549e+00
-3.481092909081566836e-03,4.972762314477055870e-03,9.801867856257494793e+00
6.394912711125013251e-04,6.414717281321026705e-03,9.784875631095930615e+00
-4.982448280614746282e-03,-2.332912749910463941e-03,9.797637639205422744e+00
1.833872245073532494e-03,-1.225273623946297220e-03,9.805834262060223239e+00
-2.105992266734394661e-03,7.455250627051000388e-04,9.791278126397143566e+00
5.634039218044671268e-03,5.783296750601977761e-04,9.801436146379801428e+00
6.849600836805425259e-03,-3.436101115776646082e-03,9.789473902306061959e+00
-9.542715594882582655e-06,4.274053819185353112e-03,9.797522386429220020e+00
-7.015039018588267901e-05,-2.344820504327109001e-04,9.793276636242257638e+00
4.697186769026641742e-03,-7.106471617056220845e-03,9.802213565286789887e+00
-1.666195230286032520e-03,-5.335760796269574738e-03,9.792480832427401083e+00
-1.972227860481665096e-03,4.839373853376731046e-04,9.796890990960319456e+00
1.907978668526490954e-03,1.407945077048320705e-03,9.802971651759820659e+00
4.306406498159565284e-03,1.644759172017771099e-03,9.792040337246236348e+00
-6.162989093325747098e-03,-5.525815959110800223e-03,9.786485040470131125e+00
7.648020926459004297e-03,-4.095215114441799927e-03,9.798005692576669645e+00
-7.849882179547995262e-03,-2.735975039362379974e-04,9.793727666898552897e+00
-5.035440440096091916e-03,5.574169425141146592e-03,9.791191627470739789e+00
-9.038723753690965784e-03,-5.332236878344741304e-03,9.793646320665438054e+00
-3.704347474997241822e-03,-9.376760984699644350e-03,9.794134789455926082e+00
-6.151334895262759814e-04,5.485792059605222419e-03,9.784926335835990585e+00
6.838568597693855944e-03,4.476963861462013305e-03,9.797997377743058678e+00
1.426591211248894736e-03,8.933703746871990772e-03,9.793963760034680277e+00
-1.237272224789427288e-03,8.189509235763949360e-03,9.793213093446704320e+00
-9.408420398712549759e-03,8.713902166045003200e-03,9.793021823596170350e+00
1.650510274122177429e-03,6.986424860110822602e-03,9.794627485399187705e+00
-4.225917515595018978e-03,5.782622191739914159e-03,9.792333596455517153e+00
2.540239292749528737e-03,-6.267236809984143807e-03,9.798896703717362655e+00
2.938907634431040840e-03,-9.780905477498880174e-04,9.784935574743649056e+00
-2.943341199970808501e-03,4.446507182434209816e-03,9.792426790880913501e+00
-3.894409657366537658e-03,3.994097395739246333e-03,9.799953130888798825e+00
1.001435846056628054e-02,-7.067678001035511068e-03,9.798604299373018023e+00
-4.064813158735973387e-04,-9.810455772189252688e-04,9.801111976602888021e+00
-3.865684070016525004e-03,5.442724537270676212e-03,9.796880690057303553e+00
3.021752737511513610e-03,4.224038143016394138e-03,9.796028296084623221e+00
1.119510309503375829e-03,1.073639579470691933e-02,9.808259896787173915e+00
-4.666665221670436743e-04,-6.338675760394336250e-03,9.797676369130309482e+00
8.930500104913249165e-03,-1.294978409837824716e-03,9.800249817029875743e+00
4.484611419330921875e-03,1.264977236285764854e-03,9.794810945893496879e+00
-4.092524741047640514e-04,4.319925147760121480e-03,9.789097037199255169e+00
2.610747249349419218e-03,-5.661206678190345253e-03,9.790904475421985609e+00
3.234176303320976907e-03,-5.453397511441359768e-04,9.805216525320725296e+00
-2.472847305308360430e-03,1.730315138628214875e-03,9.802843602904664166e+00
5.696704909776808927e-03,3.319193525853783057e-03,9.796897798805693114e+00
8.858643962996898616e-03,7.404247695402846503e-03,9.798087466684416214e+00
-8.295118834897933753e-04,9.037671420666096517e-05,9.794652951748100023e+00
2.519710964650230881e-03,-1.831258256273699848e-03,9.793129020184606404e+00
-4.451687626768572985e-03,2.084179795319424273e-03,9.793353481172758279e+00
8.369969741107758168e-03,4.262136906752776733e-03,9.802036155255709815e+00
3.100524872785541224e-03,8.681551033071588028e-03,9.793096454941093043e+00
7.287544734177107096e-03,3.232048997223887620e-03,9.785799064342302955e+00
3.839991874232824218e-03,-5.406543605553975652e-03,9.792428678190660207e+00
5.689005207735724906e-03,8.371168017875187019e-04,9.797633833337842546e+00
-4.823343260806307875e-03,-3.455184443655977440e-03,9.786440545416882131e+00
7.069546408616418382e-04,-6.237000828320766500e-03,9.793206626967014827e+00
-2.422379748226928444e-03,2.456077815901447185e-03,9.797162272525486770e+00
-3.059531533621141948e-03,-2.030970075486345037e-03,9.800983302477492387e+00
4.245039642119053172e-03,5.172899920596140018e-03,9.799693544379360688e+00
4.083748410480840182e-04,8.783427746996147131e-03,9.789397287242469048e+00
5.041984944239082111e-03,-6.549886905170251676e-03,9.790935478159642713e+00
-1.585393172399164868e-03,2.377565971324353301e-03,9.791607763342055293e+00
2.737134764060729190e-03,-5.350512088361285279e-03,9.801065592306169805e+00
2.057945821716030549e-03,-1.793396588624086374e-03,9.804522429008558859e+00
3.335052426782347985e-03,-7.795570139551885169e-04,9.794273018668890884e+00
9.914309211492161079e-04,-3.854794884202965548e-03,9.791343029509839369e+00
-7.709466467862149952e-03,-2.263217231451178629e-03,9.796954094664846124e+00
4.585004446971002040e-03,-3.933084293907424542e-05,9.795319275415652172e+00
1.478172377346190572e-03,3.200333603685437660e-03,9.793679895323515794e+00
4.423225674196866117e-03,-2.092542289965510231e-04,9.799964650122777954e+00
-1.590420002360977457e-03,-4.655407621538822441e-03,9.789868634437029371e+00
1.142902741512207346e-02,-9.988018467499142246e-04,9.807127553090170480e+00
4.124374729379389447e-03,3.529219197785499456e-04,9.798717031696590141e+00
-4.156833014871576595e-03,-8.615771566247848456e-04,9.796560334751957200e+00
-1.231856143875085380e-03,8.691165253312883518e-03,9.800335990375337758e+00
-2.492833273924070780e-03,3.422356130212958134e-03,9.788676760606728422e+00
3.893345596319188785e-03,-2.949909909571318562e-05,9.800342997499484454e+00
6.642634654004322611e-03,2.185076418514082970e-03,9.790796133013088820e+00
-3.205999739871670615e-03,5.811925524624180590e-04,9.790174495672829380e+00
-6.973618647034575228e-03,-5.352973783855227707e-03,9.791811936194065424e+00
3.588243658315349357e-03,8.088808032762654851e-03,9.800856725962253435e+00
-2.870535901096723293e-03,-1.422851395302681147e-03,9.786311478444831735e+00
2.274156685621384153e-03,-1.677337903639417732e-03,9.791044511217647184e+00
-3.617927085155735710e-04,8.403377625384748830e-04,9.781677320188242319e+00
2.030181326879440008e-03,1.640885203408435841e-03,9.800955565129516600e+00
-3.629771263883163970e-03,2.572484244850107085e-03,9.798750844704986918e+00
3.820366931450671537e-04,-6.449785818170040161e-04,9.798134918222659806e+00
7.112247788055615916e-03,4.534787029347631289e-04,9.799292172128023282e+00
-1.348305285545574978e-03,-4.129691647263308493e-03,9.791561053767217970e+00
6.770043069170430562e-03,1.290497000851459353e-03,9.794520882942197915e+00
5.533498700806937631e-04,-1.265078010206898145e-04,9.800088915221090602e+00
-6.795656639440408354e-03,-3.099289276841015253e-04,9.797569008968881832e+00
-3.874837307035177564e-04,2.672425788056163702e-03,9.806713097886399666e+00
-1.816918760207947639e-03,-4.815673874409561600e-03,9.803495000566776696e+00
-9.973359152243537872e-05,-6.817522120170158018e-03,9.789463187984456027e+00
-3.888904304106845060e-03,1.275127195085182848e-03,9.802361699186864286e+00
2.285790920993766712e-03,7.564236150318434139e-03,9.802767642013289873e+00
4.184202649144020368e-03,2.633804177857547273e-03,9.795955176668389441e+00
5.818474023602139902e-03,-2.624583954277807159e-03,9.798052849248968244e+00
1.541841013464661635e-03,5.224662645818600563e-03,9.796925725305344557e+00
-3.946889351739507612e-03,2.456708400911696791e-03,9.790725161115529929e+00
-4.768532986262315546e-03,-6.120282326227007540e-04,9.799889153895321670e+00
6.213501159094485596e-03,8.845841891730829923e-03,9.787780567816131594e+00
6.189848981620666227e-03,8.794632625129385900e-03,9.789793525283915443e+00
2.123535755315304405e-03,1.127499400481801924e-03,9.797904354597907428e+00
2.430963668340135691e-04,1.390011251262119642e-03,9.799232868274271979e+00
-2.946571645879514194e-03,6.175482003388220627e-03,9.793247354050569342e+00
9.818531438626637315e-04,6.376814032242537379e-03,9.796209516174684495e+00
5.649232571443257855e-03,-4.424246349943240786e-03,9.795474261000723715e+00
-9.588005583381820421e-03,1.892775953797658662e-03,9.791318451215666130e+00
9.530877730378835636e-03,5.900830720062183628e-03,9.798381278779782377e+00
2.406954827284735286e-03,-2.930738450745747482e-04,9.794643192696300460e+00
-4.580097802489965092e-03,4.427724581447854343e-03,9.785884795049849316e+00
7.421177232880441649e-03,-8.754895570358095340e-04,9.798267215436487376e+00
2.022909255239766640e-03,9.633709668107764273e-03,9.790323207156536256e+00
-4.299055858093799119e-04,1.683864021758449837e-03,9.791601591990980680e+00
1.441455677500247650e-04,5.269530755164358697e-03,9.794455862080720721e+00
9.741511525539679707e-04,1.017459309727337079e-02,9.791807135439748677e+00
4.777003277366298484e-03,-1.753774184972667219e-03,9.793246762836771424e+00
6.386482494079816739e-03,1.376035893550738541e-02,9.789118494927679492e+00
-4.091143315794409929e-03,5.259801226099612703e-03,9.802140851939894262e+00
-5.878678671183070088e-04,2.464816308060666268e-03,9.803841908974892050e+00
3.759837469242694429e-03,-5.221221432160290908e-03,9.798127784396305273e+00
5.345336442300271072e-03,1.913847241189071307e-03,9.787745169021214053e+00
4.565827400830351282e-03,5.913335896985879268e-03,9.792004519554009079e+00
-2.058436806090785994e-03,1.615738818425285252e-03,9.795642604555817812e+00
-1.823443396551190001e-04,8.316091153372881517e-03,9.798029567788253402e+00
-8.841766554792983290e-03,3.770429605544420217e-03,9.800106346057882334e+00
6.684889675674977189e-03,9.269724942605965523e-03,9.794440554534986632e+00
-3.424194094139375744e-03,-1.019044902472608996e-03,9.791146740252782976e+00
8.423782365731830989e-04,1.989564111098218388e-03,9.791603743921065472e+00
3.538513871270492026e-03,4.779073698365108799e-03,9.797700708653366064e+00
-3.423385337179917810e-03,4.506632782199540381e-03,9.792129509621869232e+00
1.074398204415280209e-02,-1.602066819053323508e-03,9.802899502295622014e+00
3.894388939334659464e-03,7.619217511178947005e-04,9.801891594007217989e+00
-5.581683210844915789e-03,-5.762732637440696158e-03,9.800189787072945080e+00
4.697476121406277301e-03,-3.469051206251716566e-03,9.793798540701319055e+00
-2.132393882416149054e-03,-2.306138959842051871e-03,9.798159849768538265e+00
8.420311504892502574e-03,-3.881287724344825631e-03,9.797878281909635945e+00
3.401074220698114322e-03,-5.822574693528126920e-03,9.798487216360275198e+00
1.646673923289287619e-02,-6.951888140429537174e-04,9.798545235658172814e+00
5.311918644860279433e-03,-2.867436920655343745e-03,9.798837358434010270e+00
-9.467315209873664039e-03,2.747731699525947802e-03,9.804029298183325025e+00
-1.828351969969330528e-03,4.342528926858010277e-04,9.795133660076263737e+00
-4.923026279329019601e-03,-2.678183671097608687e-03,9.791388283360705103e+00
8.171048437043854432e-03,-1.039539611916195146e-03,9.792394860556514757e+00
-2.760912282480135118e-03,3.528301536335595907e-03,9.794505722224229771e+00
-1.634314130836892528e-03,-4.510752204845628124e-03,9.796714675945759510e+00
-4.352447687653679398e-03,-5.783650203247084516e-03,9.794375606368804554e+00
9.903439461863671866e-05,4.017567591831636316e-03,9.791179822024680846e+00
1.001636377377725269e-02,2.527277147799777707e-03,9.795059517189271148e+00
2.166280315014671495e-03,3.946153918586117748e-03,9.799678655526987470e+00
6.734433714551180117e-03,-9.630844285766536686e-03,9.800107159009014524e+00
2.787281977858113019e-03,-2.147165660277131939e-03,9.792578144887920999e+00
-1.496626198218194712e-03,1.439984958661912583e-02,9.795796553379874538e+00
-7.614857090816324996e-05,1.157056673395840014e-03,9.790074878647384793e+00
-2.889555562884774630e-03,1.491978651752576311e-03,9.790675425073590787e+00
-5.921317225766030597e-03,-1.170855286490247484e-02,9.797930604853757330e+00
-5.555007998301124753e-03,1.548692772132005528e-04,9.809957240706829396e+00
-5.493111001867600866e-03,2.956652559594102544e-03,9.792147118351500978e+00
6.698240914227717238e-03,1.647261391004630924e-03,9.792118886131323308e+00
9.059377861480552227e-03,-8.295898452257660476e-04,9.798079082532948902e+00
9.172147663894724204e-03,-1.921998341444348338e-03,9.791496302039526256e+00
-3.641603180351437978e-03,4.777319227316686664e-03,9.788983049088082922e+00
-4.702183583044916571e-03,5.190637583315922156e-03,9.797020823165691894e+00
1.119087198870956541e-03,2.310634042307416029e-03,9.794136666539714042e+00
6.832608082598752922e-03,1.619292437181090848e-03,9.797831058319465214e+00
-1.923132769748927499e-03,2.051723216018735540e-03,9.794154963674904124e+00
7.022767700188288064e-04,7.257615841642885840e-03,9.804765579881806303e+00
1.639890801137023225e-03,-1.320265274193638434e-03,9.800621581753613754e+00
1.632576414412350739e-04,8.953261042298796095e-04,9.791837430371568729e+00
7.751548497297621951e-03,-5.299193309438510191e-03,9.795184363746724188e+00
1.101486652111095419e-03,-5.693409341185518176e-04,9.802170035785607638e+00
9.244914472319339365e-04,-7.968744550949294694e-03,9.797170094996879186e+00
-3.047596786459859115e-03,-6.549700372614056243e-03,9.793982396966976367e+00
1.204535114652078784e-02,3.187597029152920442e-03,9.810412248375275368e+00
-1.381983573056800403e-03,1.360974406916500099e-04,9.790994866660124529e+00
5.845536386730032681e-03,-4.759340199447265052e-03,9.797673616328243185e+00
-3.828375538463092004e-03,-2.736001612283731153e-03,9.796242805334442139e+00
7.063332763319928390e-03,1.471264009157651972e-03,9.793070077917775507e+00
-5.017585472255478400e-03,-1.056096098171980732e-02,9.797940963146789528e+00
6.079030682030613433e-03,-6.317693259863803746e-04,9.789881711256136043e+00
-1.370225288053239336e-03,6.403367720234511874e-03,9.796709265812188150e+00
1.104739965920184747e-03,5.416705822826675676e-03,9.793324709189718646e+00
4.629322643610179859e-03,9.421743437912332916e-03,9.791293006741685900e+00
-8.320647608319864776e-04,7.333805722578778594e-03,9.807899747566196424e+00
-3.390264086279159853e-04,-9.230542733903524324e-03,9.793881759757764982e+00
-8.950384878519977716e-03,5.231555319690160341e-03,9.795189025745344225e+00
4.561268980947464149e-03,-1.570091273352158638e-03,9.799739054221346279e+00
6.699389063498319488e-03,-3.349126202173008924e-04,9.793184108503574237e+00
5.845139443879369956e-03,1.667018404700784748e-03,9.792977047904599885e+00
3.468106937826420568e-03,1.778988300554943465e-04,9.786186271963716266e+00
-1.265669114686232728e-02,3.322322218452088399e-03,9.801048403557825139e+00
2.494780682697888066e-03,-6.821479562970788127e-03,9.800056993205242151e+00
5.914131832560009204e-03,-2.534298667049715310e-03,9.786258361500179248e+00
1.191001455777317055e-03,2.291997912281381992e-03,9.789781272650595056e+00
6.301060205041880864e-03,1.335272227645843126e-03,9.790205128075148977e+00
7.323450489366513036e-03,-7.908485911644615521e-03,9.796016113897705324e+00
-1.280148724930829304e-02,6.530973332837383336e-03,9.793657748760407955e+00
5.702089289518560847e-04,1.881058463307976416e-04,9.793670335654695691e+00
1.190314976449968884e-03,-6.143413159332703410e-04,9.783868072924573056e+00
-6.094330309727538121e-03,1.934383162313800661e-03,9.795303134750229290e+00
-1.781218978327873351e-03,9.583971190943358504e-03,9.794746393596241774e+00
1.197531803479500757e-02,1.033854771807816986e-02,9.792944866773430235e+00
-3.240594678085328192e-04,-3.249984346330574928e-03,9.794061072070018525e+00
-1.125054210009912570e-03,-3.566780794759172400e-03,9.789927894184488721e+00
-1.752849729389265466e-03,1.070476965807740533e-03,9.789895653777241691e+00
6.807104879104587322e-03,9.265173285448721763e-03,9.803281271408081921e+00
-2.718434034763509387e-03,2.745316961862253290e-03,9.796758875781614861e+00
1.368111849030234769e-04,-2.758178623423015920e-03,9.793164636751210850e+00
2.283219864291650470e-04,-6.769476298786620411e-03,9.790807669269002034e+00
2.091696829644600075e-03,3.488110360758080088e-05,9.801996369598397152e+00
6.130137346021785789e-03,-2.191717561269762148e-03,9.789535862428531132e+00
1.080918190968453013e-02,4.367998987372286902e-03,9.792191380941217105e+00
4.082756893097772705e-03,8.153402798858620446e-03,9.798113000150324936e+00
2.884267353296501683e-03,4.292668433047797626e-03,9.792916931781801892e+00
5.886183485740260207e-03,2.250505077071955021e-03,9.791679127082243639e+00
-4.713474536751383406e-03,-6.562598399835855830e-04,9.792089585972849619e+00
4.921500413958113107e-03,-6.054197199357876438e-03,9.799402021623109249e+00
-2.290728586720291397e-03,1.600294718820146570e-03,9.798781655377023725e+00
1.301325631115156107e-03,6.217459333627216832e-03,9.795285360180864487e+00
1.119683319778631099e-03,-4.833628092801669530e-03,9.794380561627590964e+00
4.216694744860926408e-03,-2.156027447927598255e-03,9.797833368729923720e+00
7.541308625313391384e-03,4.623538479852118931e-03,9.798573690542388803e+00
3.175009403312644904e-03,7.606315956029134975e-03,9.800001711517960956e+00
1.397129762691321116e-04,-3.447482069115929536e-03,9.788685510067928419e+00
3.076184349961120015e-03,4.169809221770048521e-03,9.796776738319662670e+00
4.857107519824345292e-03,-2.192116679555333476e-03,9.793893667423560601e+00
-7.811871142139581968e-06,5.602212571886806651e-03,9.796531201260124888e+00
-2.756485917247668803e-03,-3.709210329722523267e-03,9.798924423791692817e+00
1.984528664677167632e-03,1.781118576737784637e-03,9.792116450028458985e+00
-4.636612726501076554e-04,4.752789013109492977e-03,9.803890310637889627e+00
-4.803263692679157412e-03,7.109547894204027579e-03,9.797977009290976369e+00
1.244548532684387103e-03,-5.465460423622786265e-03,9.793242709681216240e+00
-6.855983993763699325e-03,-1.042465469348823580e-02,9.800118284245838751e+00
8.535293563009025255e-04,3.294931351381523779e-03,9.798502194911934637e+00
-2.849153289013881939e-03,2.257816923762708851e-03,9.788665486764653423e+00
-7.342927771642494654e-03,-4.563579673440499446e-03,9.799397922618684476e+00
-5.657877035672225982e-05,-2.864496831805155800e-03,9.795313124905074886e+00
1.339361458851463099e-02,4.300174612111962169e-03,9.797935007368790750e+00
-2.852399938235345139e-03,4.467448525051509814e-03,9.804680209888239517e+00
-6.342827317397321633e-03,1.112401253603517368e-03,9.801455510662851367e+00
1.119745800824934259e-03,-4.294671881228470309e-03,9.800574802361094129e+00
-1.246385350174032810e-03,-1.235185213041224347e-02,9.786040151493311967e+00
-8.618203620502661901e-04,3.080089023915392066e-03,9.797462310313957090e+00
1.286000729926149288e-03,6.672729520237440223e-04,9.798114568467505947e+00
3.529735937454647754e-03,-5.752644732252479472e-03,9.798655863197479832e+00
8.351356839363919399e-03,-6.171775185828582561e-03,9.790974164273313463e+00
2.191126683761680793e-03,3.711416055722254869e-03,9.804771005106816872e+00
-1.146280383036115368e-03,2.342134882297891921e-03,9.797742000980230515e+00
-2.238111952872090787e-03,-3.373670212619332351e-03,9.799971469985241157e+00
1.000539852844014102e-03,-6.473474198114719837e-05,9.798902494158760135e+00
-6.903643759317496572e-04,6.366192362774686711e-03,9.796709514330755653e+00
2.473670253941815788e-03,1.071560624386509123e-03,9.795722749782825645e+00
2.220314449943437685e-03,1.135469027675199433e-03,9.780647569983676348e+00
-2.844662321089164343e-03,2.244153555275765939e-03,9.800247965224869517e+00
3.448455104680931468e-03,-6.411897885332945579e-04,9.799725954678130790e+00
-1.974383861607961754e-03,-6.075372183271053172e-04,9.790696020523016685e+00
-2.137821760403202029e-03,-4.015325727370240572e-04,9.785300489419620718e+00
6.958857827327131866e-03,-7.282239851011173236e-03,9.794637228474336155e+00
1.387382674582195163e-03,3.234380800037090203e-03,9.797374419883805530e+00
-5.090185792349394972e-03,-7.687716785886134635e-03,9.791090328966328471e+00
-3.160411396315733826e-03,-7.638285459018761452e-04,9.795889723960636175e+00
7.305438670686060544e-03,2.770443013876522365e-03,9.797114168287368585e+00
-3.056966796103769216e-04,-3.378757950513743696e-03,9.802246706977523871e+00
-6.180344302816864407e-03,-7.321215109359014740e-03,9.797086212065572397e+00
-5.780929392815903692e-03,-2.381459841077774534e-03,9.794588348745554285e+00
-1.493817474311715052e-04,-1.330200942857582939e-03,9.793526818888734553e+00
4.921092754772002018e-03,3.198650549839287746e-04,9.791686856678603945e+00
2.212313303050014376e-03,-1.970060609965751559e-03,9.802544977606810761e+00
-2.422370676473388669e-03,-2.455799257466173210e-03,9.797697668886737432e+00
-7.573350856493165847e-03,4.319063585879062868e-03,9.793212552845632857e+00
7.875598212475942370e-03,-2.753038211283627065e-03,9.790518765883712504e+00
6.531713337712480999e-03,-8.479767247029696212e-03,9.798623817660589097e+00
-5.300456457053227995e-04,2.566032573306403861e-03,9.793167500401757763e+00
5.572520878425761895e-03,2.525147482141663663e-04,9.799798117005478204e+00
-1.148912195271610710e-03,5.273819289685589221e-04,9.794456267730023313e+00
-6.177340096200248203e-04,2.512111445634645102e-03,9.792383023403008480e+00
7.900352886359152116e-03,1.868329170168529178e-04,9.794643559046271264e+00
1.197883294784510624e-02,-2.148606417616340334e-03,9.794117207628829647e+00
1.767130502632754865e-03,-5.772747576330683862e-04,9.809256034792866785e+00
-1.658179142165655410e-03,-4.969223147870619871e-04,9.799625919936548968e+00
3.653969658363438386e-03,3.594615679300436004e-03,9.798172774481550107e+00
4.175833713752935550e-03,-2.018535083704785845e-03,9.789951270829408969e+00
3.918331952312964213e-04,1.238521292897860285e-03,9.795645185260076104e+00
3.599698268563721743e-03,6.101696895437490635e-04,9.793979026155042789e+00
-4.365357409429609405e-03,4.066820570843461546e-03,9.791254781076583313e+00
-4.307944213544595384e-03,-2.059594864473284284e-03,9.790236153404626052e+00
8.051349029418990860e-03,-2.462893410327206094e-03,9.802222931994778676e+00
-1.023635834062374197e-02,-2.489095992378913616e-04,9.790163793875656495e+00
-4.690317296269643638e-03,1.141010469883635935e-03,9.789316599332529734e+00
-1.603646719514349814e-03,2.311411865139083831e-03,9.794789483495121019e+00
-2.735091944795136482e-03,-8.962807228729574929e-03,9.787244143119709250e+00
2.837585925294696006e-03,-4.241143333707551345e-03,9.787607678706095271e+00
9.597217180318803192e-03,-1.982217434574995440e-03,9.795897010058096654e+00
-6.762992462069458872e-03,6.309679923568217025e-03,9.796776707331666501e+00
1.687158357160792495e-03,-3.712543087550846570e-04,9.800518622600348451e+00
-2.071516185980083139e-03,2.571202177092375349e-03,9.793145195652764201e+00
-3.029703207933571096e-04,6.021030075793067267e-03,9.799625907639104128e+00
1.548904939285474999e-02,-3.012968468128085649e-04,9.789703351007903009e+00
5.358417213626660500e-03,-5.493246048526117392e-03,9.797165839412118160e+00
5.597564119500988283e-03,5.334949111450201353e-04,9.797119613405653737e+00
3.859813235103890482e-03,3.648890985503629777e-03,9.795866964340708805e+00
-2.911384567975226680e-03,1.562280830781344852e-03,9.796596508445924556e+00
1.371878688177634656e-03,-1.014997780025276609e-02,9.786660592618396493e+00
-7.309530985997462343e-03,-5.878087058105486290e-03,9.789594650674553478e+00
-3.155783918614953748e-03,-3.121560602757272700e-03,9.801522832882699987e+00
-9.282577927513855839e-03,-2.310454748899716960e-03,9.802811880098555974e+00
-6.831705381546161185e-04,-9.718362163464646254e-04,9.798749238653654103e+00
2.394166484140013759e-03,2.423177282511321945e-03,9.799708939496875715e+00
-3.557785938936040620e-04,-6.643011125446075284e-03,9.791840541480883786e+00
1.388882249227243321e-02,3.665560101824967727e-03,9.791752670709104933e+00
-2.162804917611825008e-03,-1.454816510278210927e-02,9.791946858941360077e+00
6.837262475791873982e-03,5.109231019290697180e-03,9.789314687044672780e+00
5.286160501531151495e-03,-4.682078445292270179e-03,9.798883232783348163e+00
-3.989991978050467895e-03,1.185330617550406015e-02,9.796213087222863436e+00
2.261610168354476463e-05,-1.251018556780127654e-03,9.799918263376502736e+00
-1.697716929061541397e-03,7.035428089640455469e-03,9.789861632360761234e+00
5.244984197536862146e-03,8.185655205922600167e-03,9.790774991946417316e+00
3.282074290959714931e-03,-6.289478931547034211e-03,9.784673250639334796e+00
6.340019013640368906e-03,-1.286068437418044080e-03,9.799773731865345283e+00
3.696690238177634605e-03,-3.671988048304461070e-04,9.796099460610346199e+00
1.368865937919223549e-03,-2.893086114079557007e-03,9.792329644078826334e+00
4.442251597639875448e-03,1.060397089121401307e-02,9.788850872565241445e+00
5.687919650636762831e-03,6.835469317318527624e-03,9.797914338291461078e+00
3.129838400824281773e-04,8.465893070807242390e-03,9.798000823244597868e+00
-2.461482438831947422e-03,-3.027609325847680985e-03,9.795286332778806226e+00
-2.962929424836312827e-03,3.616047516319598892e-03,9.799045453069268774e+00
3.571498562378831211e-03,-3.354172452127828549e-03,9.800406655824705382e+00
4.598980938922086689e-03,-2.899696107049551733e-03,9.788321460550751141e+00
-6.154536448442381701e-03,8.037202155818053140e-03,9.794746773285130104e+00
5.679919753655178483e-03,-2.963960197884396228e-03,9.800863566537142191e+00
-8.154159028552017754e-03,7.714645312884670439e-03,9.795357339676680652e+00
4.677028331229442920e-03,-3.109361969365003354e-03,9.799519804564548409e+00
-8.695996919142216439e-04,7.166147723225959471e-03,9.790856910394669654e+00
-4.240915764833619664e-03,-2.927788778598844864e-03,9.799069765185349112e+00
8.011613186606886521e-04,2.235237622868840868e-03,9.794056385383301588e+00
-5.952731215782337479e-03,-3.781073873034137417e-03,9.795663682698128483e+00
-4.138130681590804910e-03,-8.171175783685587918e-04,9.795520913984246292e+00
8.315935106389435449e-03,-2.050446982238991571e-03,9.783498623021799290e+00
2.882924052529947656e-03,-3.315729035402129911e-03,9.791231512237736467e+00
-4.014732818955681504e-04,-1.883181843158970425e-03,9.792101439603158042e+00
1.667283195305847539e-03,-8.258172773834225253e-03,9.792362676045442527e+00
3.129689323111040263e-04,5.010428941848899149e-03,9.798760092797108356e+00
-3.264946721903900281e-04,-1.408542814495313683e-03,9.793401850016858035e+00
-3.322791070119329032e-03,-2.082785808235248018e-03,9.797620713906695755e+00
-6.294111121265889060e-04,2.045748970872209461e-03,9.793272769893514251e+00
1.379389595786656517e-03,5.501344818713112088e-03,9.790651076987693102e+00
4.978011497302533422e-03,-3.501257151348340676e-04,9.800267401258336619e+00
4.214060501783311458e-03,-3.757339760128968614e-03,9.793003387164320728e+00
4.067758133019514985e-03,3.551077736798576284e-03,9.798355410247779673e+00
1.712338429506399945e-03,-7.839355091185619059e-03,9.793992381941036385e+00
1.217827700044357350e-02,3.023082686319607335e-03,9.799993239415320190e+00
-3.929017260072131291e-03,4.070222514704882957e-03,9.800042488551083508e+00
7.502757333891256313e-03,-1.767045346786531423e-03,9.795728011712643735e+00
-4.557072722930660983e-04,3.600261304844161632e-03,9.803987883330307795e+00
3.868475450682514437e-03,2.793384827730329908e-04,9.792838112350043644e+00
2.649971764374752826e-03,2.839208602890368888e-03,9.796424941095406069e+00
5.571735655155741476e-04,-8.428041318734254316e-04,9.797972203383963574e+00
-5.542970203266659943e-03,4.996987402382097737e-03,9.792562881789043772e+00
3.853042337621963472e-03,-7.609603328480493180e-03,9.793514229334849830e+00
8.629028424559438346e-03,8.957565322664598831e-03,9.794793915226627234e+00
1.066704688638081371e-02,4.120519966177670426e-03,9.797303692814098852e+00
-5.781191948535960475e-03,-2.551934997005839926e-03,9.787944408684895237e+00
1.609183185246082287e-03,5.804623291204561407e-03,9.796302419119475857e+00
-3.176214909718679414e-03,-9.011693708118599655e-03,9.803608169961469443e+00
3.764213934167932006e-03,1.508109771178120159e-03,9.795385511261534006e+00
6.440903813370779576e-04,4.684503598369926976e-04,9.794609097827283506e+00
2.826151241999175744e-03,5.206787512538972248e-03,9.794473962064603967e+00
6.005453271154670772e-03,-5.535586918853215195e-03,9.779490272150873409e+00
-5.302197315572552277e-03,-8.520971765010607393e-03,9.795396551958370779e+00
2.537008137200314362e-03,1.442348567301947153e-03,9.795008720025451865e+00
-2.235505755808550772e-03,1.997753118601070486e-03,9.800698197203852047e+00
2.487833323786851555e-03,-3.800999624284495844e-03,9.801941901587785111e+00
1.414732174351454857e-03,1.480559489088840172e-03,9.804607789699449683e+00
-1.448754642314568084e-04,-6.553073644404913516e-03,9.797210617063591087e+00
-8.950657494710425287e-04,5.180587052432525721e-03,9.797665253907334559e+00
6.867259078683202438e-04,4.811342640529778225e-03,9.787930629807462424e+00
-1.010595675104840503e-02,-7.191293815258188726e-03,9.798837538129019364e+00
5.867014447865876586e-03,-3.885756616182628118e-03,9.799474005788088249e+00
3.605575434718609387e-03,-4.028964859744263959e-03,9.791582303929182274e+00
-3.825067492760852008e-04,1.514595677762717568e-03,9.793510789908363989e+00
-3.931416337248756776e-03,-5.644266819266539371e-03,9.795352208932058602e+00
2.713816051709070157e-03,-3.939728552243574634e-03,9.812183639670006841e+00
-5.648323577894716688e-03,1.065465431257586748e-03,9.787194713742405128e+00
6.399055556249491628e-03,4.629141200243306123e-03,9.790690552555801673e+00
1.141027716485121094e-04,1.898577311876574946e-03,9.793174106811754598e+00
1.021466498874055648e-02,1.079516494638963799e-02,9.801364848804606567e+00
-1.260495302949316693e-02,2.432294281117388258e-03,9.797084693933753030e+00
8.653657480791247456e-03,-1.204392860292896692e-03,9.801367952987119381e+00
-3.160992065951481311e-03,7.606526140592598283e-04,9.799477607386153366e+00
2.465992434266780272e-03,2.602861893234306116e-03,9.791789279223635845e+00
9.395176783828214015e-03,9.355557734948899071e-03,9.787585980703429556e+00
-8.179736650834393275e-03,9.594376457614536488e-03,9.803547637982372720e+00
-7.411077786555581373e-03,-1.361758403413629477e-02,9.802658036763377325e+00
1.184767981811653444e-03,2.899086397138529031e-03,9.784951896005347649e+00
4.270569290625425736e-03,-1.608379637656595987e-03,9.796385958093098978e+00
3.275216898848600650e-03,7.870613023825761070e-03,9.793599014030114347e+00
3.485895806963654024e-04,-2.784285796778395491e-03,9.800270579537528448e+00
2.943988620116681234e-04,-6.937106554619073499e-04,9.794463867042919603e+00
-7.978249414978481890e-03,-4.276246489389809100e-03,9.794989151408950434e+00
-2.309981868089130974e-03,-2.248265720372588129e-03,9.793209817045227084e+00
-2.505885759178360164e-03,1.100413731738755611e-02,9.800028775909272127e+00
3.748097955009499146e-03,2.976049761876852547e-03,9.788663409406606064e+00
1.815821134722328577e-03,-1.964954120882185648e-04,9.796712480297134817e+00
2.912441403588619760e-04,8.916765476553310159e-04,9.797861319720208684e+00
3.388363519866297502e-04,2.517756662346193742e-04,9.792302683772634353e+00
1.898066318593686057e-03,5.851861710171896852e-03,9.796130128677086546e+00
-3.479802722168449762e-03,1.425111335219299540e-03,9.799886297861940321e+00
-2.713657056648581187e-03,6.354768221347161308e-03,9.801503777570099274e+00
4.582660801358127110e-03,3.586806946715257946e-03,9.792381384129454247e+00
-1.070387371642497060e-03,3.458687268702473686e-03,9.794815538074775674e+00
-1.540861771515866091e-03,-6.228434198323890003e-03,9.799354353128707729e+00
1.664417432102839904e-03,-2.441959401976350266e-03,9.801294156534943625e+00
2.228688333829934119e-03,-3.748084061956847689e-03,9.796323682811541644e+00
6.133453758835877463e-03,-2.358165375798911695e-03,9.800896321615773843e+00
7.028925632509554168e-04,-8.586987889634647986e-03,9.799443772486856830e+00
2.722061569010041679e-04,2.887290038067268777e-03,9.790554562999565391e+00
-7.227952084173142576e-03,1.036683846976456901e-02,9.788812885043606471e+00
-1.288142289476216801e-03,-1.140463882812830197e-04,9.788305040705997939e+00
8.544678603323961966e-03,-5.197302430284800843e-03,9.797675010922718641e+00
-3.488793514279488368e-03,-2.941388008228262765e-03,9.797664436499552210e+00
9.150775466642804140e-03,-8.277934092824651424e-03,9.796342948935276240e+00
9.776988529822294889e-04,9.316229533141303330e-04,9.789457783617812936e+00
-6.710149792477198769e-03,1.051211623370522028e-02,9.795990735634401148e+00
-5.402495429538414166e-04,4.819373926411098285e-04,9.792789913977681948e+00
2.326364273037049169e-03,-2.487313336844516800e-03,9.793264477399242551e+00
-1.592889489828578633e-03,-2.403931065108948391e-03,9.800680672020122941e+00
-2.951260454989497288e-03,4.860357837982528031e-03,9.793409231620220368e+00
4.410929453056251434e-03,6.157144954218386410e-03,9.793781689679986968e+00
3.483536846748473605e-03,-1.615979507715538692e-03,9.794277149076830113e+00
-1.490503828769750971e-05,-9.953561817190289054e-04,9.796780303288372238e+00
6.012699610429278127e-03,-5.585756031532614074e-03,9.795620049189329492e+00
-7.288282605244829175e-03,-2.595779363928617158e-03,9.792921531331742813e+00
2.771972354719430195e-03,-2.585256510503738427e-03,9.799492555746564193e+00
-1.741907541533467378e-03,5.865410046308994554e-03,9.787877790125268262e+00
-4.625715306671020037e-03,-3.401251067829262707e-03,9.795104129365252987e+00
3.996882856054401190e-03,9.138811836406864064e-03,9.800373899148205226e+00
-1.126104395742223230e-03,-5.572512219993312581e-03,9.796061557064893677e+00
-1.455599382868414619e-03,1.234272171138240098e-03,9.793035683074023723e+00
3.175547504631985422e-03,-1.906091370139111150e-03,9.794021437343335634e+00
-5.495586468234903328e-03,-2.411620531915880002e-03,9.798738594990926032e+00
-2.843656053771210970e-03,-2.057629859822159273e-03,9.792362033902918483e+00
4.048667775760842434e-03,-6.719865712087668775e-04,9.798861750317680475e+00
-2.627332146285227656e-04,-1.751103206246086130e-03,9.791139957775051528e+00
4.516099047994884090e-03,8.909780382790451203e-03,9.802135358401109499e+00
-7.684972354406913956e-04,3.841360211472413626e-03,9.801847057822453024e+00
3.487782226519082172e-03,5.736822643629079649e-03,9.790499581618359315e+00
4.310739271510021994e-03,2.878638501636362427e-03,9.795530001018660116e+00
2.979146075217227636e-03,-3.053235566216638310e-03,9.792707043809057765e+00
-7.930335702642136260e-04,5.203871247352074257e-03,9.797596134805656831e+00
-5.421666094291731006e-06,-5.607187993068884525e-04,9.793637461041797110e+00
-1.480676884400683110e-03,-7.872039390963000635e-04,9.794112911392112153e+00
-7.870316578766927210e-03,-4.081943101753484314e-03,9.792320454273683694e+00
5.233208926093401228e-03,-7.806360561205052950e-03,9.798213930267822391e+00
8.116183241551123192e-04,-8.822216816507045048e-04,9.791077693816438554e+00
8.832990846011575664e-03,-8.445873769254519034e-03,9.792212305313290344e+00
1.109025812675238330e-02,5.453036573896095224e-03,9.790707239147650398e+00
7.018475332483824908e-03,2.324331601991922683e-03,9.793460765030934212e+00
4.133724148548678645e-05,-1.173845607573545478e-03,9.792763899262638461e+00
-9.536548310484919619e-03,1.509688430010767794e-03,9.791584683037688919e+00
7.359162563965434938e-03,-1.747595024627297605e-04,9.797343851515238455e+00
-3.165271240547611661e-03,1.014807597049423998e-02,9.802390601479469723e+00
-9.055578361010893813e-04,4.473149332202754069e-03,9.805880365295772449e+00
4.603787812375781906e-03,2.462970050509357637e-03,9.797548576240039608e+00
1.364434844864807002e-04,1.315363527966634770e-03,9.796487178161180864e+00
4.647628474451849338e-03,1.462066878020415635e-03,9.785525404952656103e+00
-4.421604324148791995e-03,7.916022354504970507e-03,9.792460368251335368e+00
-7.060566913454469073e-03,2.811977553074641867e-03,9.788324925890229622e+00
1.295894102303294000e-03,6.149341119486794599e-03,9.791507488179584939e+00
3.367354554501282050e-03,8.410541435141980285e-03,9.794332350018065014e+00
-5.867770219198409007e-03,7.942927913126219402e-03,9.788821995270174270e+00
4.231344191017674498e-03,-2.401135336643296127e-03,9.796785235034834116e+00
-1.060650143060086308e-02,-6.100254189797360387e-03,9.803634864733416165e+00
-5.251912755181016535e-04,-7.006132240738374532e-03,9.789743773152164152e+00
7.695615434782864493e-03,2.429588983783618691e-03,9.798698791424591548e+00
1.432617736061621641e-02,-1.757320456892200438e-03,9.797769157623301695e+00
-4.455063634907734452e-03,-1.535992958393955689e-03,9.802437145983985189e+00
-5.710712087310926451e-03,1.280726075324797224e-03,9.798989498058180203e+00
-2.127502595224325639e-04,-1.853730271901137504e-03,9.797928216339750307e+00
-4.706717521087163889e-03,-2.999181655295580888e-03,9.801897973386070717e+00
1.510893293509564007e-02,3.948076044876468009e-03,9.799616041264636479e+00
-5.090654623218503509e-04,1.999206773893217421e-04,9.789481665089322604e+00
-9.856979865146304077e-04,1.003077842669901094e-03,9.799333204166901012e+00
1.267769956225558471e-02,6.615270364907953815e-04,9.792287094960984817e+00
-9.069520661199882358e-03,8.743836211679024625e-03,9.798168276048357939e+00
6.891617292874098293e-03,1.383112596160235123e-02,9.791080080135364128e+00
2.851146480411993647e-04,2.917427502792722168e-03,9.799066526753758666e+00
-3.169673250449532229e-04,-2.168015292804938415e-03,9.793008171524318684e+00
-4.573563669329409713e-04,-4.798278521706709522e-03,9.788085193396746320e+00
2.340407814074740422e-03,5.654921394213409565e-03,9.791778510733250229e+00
1.199862731540159155e-02,3.548345332585433210e-03,9.805541417323931697e+00
3.020178962946476562e-03,8.576618238487543344e-03,9.794022420758679459e+00
-2.311736233439448326e-03,-4.604324099360585648e-03,9.795279683020375217e+00
5.667608474624835288e-03,-1.317825985172862459e-03,9.796338157714917116e+00
-5.171135480258860773e-03,-1.100477557810925801e-02,9.793806085105989823e+00
-2.821536471521780744e-03,3.233456092142436480e-03,9.791076618763735695e+00
-6.821679039887504088e-04,8.354901964624217824e-04,9.795816979170943739e+00
1.150060025045643352e-03,1.189833269206189625e-04,9.800443774273839281e+00
-7.109087366196253921e-03,8.233764726105881337e-03,9.804436017179282814e+00
-3.040301513173815535e-03,2.449553038890155132e-03,9.790019081912873844e+00
-2.084845143745077140e-03,2.779680006406755853e-03,9.795270399523975158e+00
-4.316650125399155470e-03,3.767600801291925029e-03,9.796209521499463335e+00
3.715899170994204845e-03,-3.024611102402752910e-03,9.790717911292031062e+00
-2.513653268485890879e-03,-5.395445574164697139e-03,9.798016071362424029e+00
-1.628479724994064733e-03,7.654076261859942693e-03,9.793018629294135025e+00
1.264806888146337988e-03,3.514047972707008867e-03,9.784912997116554934e+00
1.024630731699874633e-02,-2.481160993498605048e-03,9.794130110129250610e+00
-4.122756634563119055e-03,-5.364675595645671848e-03,9.797560725609862686e+00
-3.950420573226705312e-03,-3.750560922281347218e-03,9.796185183462545965e+00
2.396023367940978196e-03,-3.794265438108671094e-03,9.801315093385754906e+00
2.494912093917838738e-04,3.172651093490181165e-03,9.801531640226444964e+00
-1.952675743420616587e-03,-1.083342392031819493e-03,9.791720199966267302e+00
-7.346053729235163532e-03,5.112987134842077001e-03,9.794460143245624195e+00
-5.743215123707070061e-03,2.526684078555563925e-03,9.785185235081559796e+00
-9.966154199197170549e-03,1.708341722689687113e-03,9.788338448667815328e+00
-3.274284273728165703e-03,7.225060587270034848e-03,9.791920860125452819e+00
8.648457380663292574e-03,9.106394498109393436e-04,9.789604359994751093e+00
-5.932001617985573419e-03,3.056997279510757521e-03,9.805186440570428985e+00
-1.726441687380051750e-03,-1.013365299962902186e-03,9.806935593505203386e+00
2.136414057417137559e-03,7.274855206891622968e-03,9.797146465521787917e+00
4.355201611377391806e-03,-6.066979627789587798e-03,9.799026202310894718e+00
5.631377467886382326e-03,8.254434763119248078e-03,9.796701072543653410e+00
-2.221860885879013356e-03,5.390315785663917295e-03,9.793814528052706692e+00
-6.241232994175803517e-03,-5.994863733529630714e-03,9.795019976479325763e+00
1.045102520824911421e-03,-2.918852753851978662e-03,9.803233752537842349e+00
2.658260994626564667e-03,-5.579835372880160779e-03,9.792102350059971982e+00
2.110141542129960988e-03,-2.442908343513635217e-03,9.791709541019125496e+00
-3.133837763813404880e-03,-2.120677672581807588e-03,9.794178262456325612e+00
3.992789998312503905e-03,1.809683584379061716e-03,9.800775458085009717e+00
-1.227672089231361414e-03,-2.958678253516519151e-03,9.797702356885199748e+00
-6.704076074749256483e-04,4.976406638097878414e-03,9.802860532811907390e+00
-2.727271876154257948e-03,-3.565909959019630121e-03,9.795579305420712757e+00
6.070932146858996556e-03,5.257351807646352959e-03,9.795066670229179095e+00
1.591056319073047044e-03,-4.897234559287768317e-03,9.797930828686501670e+00
-1.086433683995166946e-02,5.659444775394692484e-03,9.790594791697159849e+00
3.347989946462872051e-03,-7.984294873593280467e-03,9.792336048579135976e+00
-4.397101821749731243e-03,5.414838633692079873e-05,9.797100434367020938e+00
-1.179341567864888342e-03,3.020198471003484458e-03,9.794394350850183173e+00
2.630256427348926732e-03,-1.535098169483138392e-03,9.798728476776256358e+00
-2.979330967889258844e-03,6.154809298359669237e-03,9.791335389031146974e+00
1.398831018160619395e-03,-6.763130190431522124e-03,9.797011615000625895e+00
2.263133537678531978e-03,2.525469031481006408e-03,9.795019519279190234e+00
1.358850924563621484e-02,-6.802656387851713227e-03,9.797457214300077766e+00
1.423965952579008855e-03,3.457000678667164571e-03,9.798642478370902964e+00
-4.773848318474381222e-03,-2.003163568205082457e-03,9.796363738038282420e+00
-2.529144676077093278e-03,2.972590977969705433e-03,9.795731800887308438e+00
8.809407746131802178e-04,-2.494756503345811963e-03,9.793079767564597304e+00
6.065299977304931334e-04,4.967854970668753554e-03,9.792874175762483091e+00
4.305752452973943441e-03,-6.908272377217449141e-03,9.799186186051187519e+00
6.673466401633717029e-03,-5.812053582443857218e-03,9.792518142322061081e+00
9.638802015374507356e-03,1.205172575003696797e-03,9.798118795439911821e+00
5.344927679050418511e-03,-2.533143028737587683e-04,9.785178034060272978e+00
1.210160239952898752e-03,-1.776563226767280401e-03,9.787636212839656125e+00
8.437659630021869007e-04,-2.439135533604539722e-03,9.790083802265728607e+00
4.349986970940532965e-03,4.743357526381775970e-03,9.796594190653287626e+00
4.185929718009278461e-03,3.307072795380896438e-03,9.794166023489390582e+00
-9.322113203396831206e-04,-4.812421012418563460e-03,9.792976586751025891e+00
2.613559874906342360e-03,4.688675883017830843e-04,9.795537363046994628e+00
-6.683302002289116502e-04,-2.956143964284016837e-03,9.796916988245206070e+00
1.661774737582755700e-03,-1.747602595119854881e-03,9.796858084503050179e+00
-3.512057174314847131e-03,-4.570057746080797385e-04,9.799854097055913371e+00
-5.932823425741060724e-03,-8.426295271387624491e-03,9.792746573243080732e+00
-9.238381463991677048e-04,3.927192569542751859e-03,9.797904897005619063e+00
5.379937608534993664e-03,-8.001589337233458096e-03,9.803025933109744017e+00
-5.703481045175106756e-04,2.392005776796297858e-03,9.794415882986006849e+00
1.834425659870338480e-03,-8.982031413541482004e-03,9.797555203345105213e+00
6.372102443540948041e-03,-5.505169869418280286e-03,9.802798117683799717e+00
-5.004660632350442159e-03,2.378131596784503234e-03,9.799761143038431044e+00
9.993784571508221304e-03,5.417668542741923936e-03,9.799057825988278125e+00
-5.662298986539007675e-04,-1.098758576025209545e-03,9.790835921698411326e+00
3.214252106163911771e-03,4.548689872602352971e-04,9.792190987286089054e+00
7.501146963470234352e-03,-4.210532178903334975e-04,9.791780679695380130e+00
-3.260017926177903071e-03,-2.982729726846900312e-03,9.796279121697301306e+00
3.420793018963910401e-04,-8.338206188818210983e-04,9.804776426119669708e+00
-1.964840698125171637e-03,-8.700839207538753903e-04,9.799498885406080717e+00
-3.257158884888250146e-04,-4.157505038419239719e-03,9.786979814272717348e+00
-3.289164257214566289e-03,5.742151570952365273e-03,9.798952358394725337e+00
4.753957822144072717e-04,-4.281708322449599528e-03,9.796913512610917252e+00
1.802714511913711690e-03,-2.779676169401491120e-03,9.798698368974626760e+00
1.508406670060446694e-02,-3.367805743995898934e-03,9.797026061295646571e+00
-2.666657832220948200e-03,3.660331654851176064e-03,9.790617000644367351e+00
-2.933394003279385636e-03,3.405296909517093731e-04,9.801410535151264369e+00
1.528989690265909014e-04,-5.663020105728039551e-03,9.792988144283427232e+00
7.562184864518304607e-03,-6.943477776025389764e-03,9.792057301444518913e+00
-8.327740521469962839e-03,3.943213343774262412e-04,9.790269251303021392e+00
8.881900554073025172e-03,2.225764426856804111e-03,9.795004250533626333e+00
-8.456928322942320079e-04,9.883610195493358619e-03,9.793445452072525370e+00
1.540169206690307534e-03,2.953745500048340217e-03,9.793538222837351981e+00
8.679909048041744169e-04,-5.449405784141213814e-03,9.796368761640186662e+00
4.801534256705256541e-03,3.724145154649790256e-04,9.790665019959817528e+00
-5.093955693804906593e-03,-2.317737837519128971e-03,9.794055395255815810e+00
-9.253510442627047375e-03,1.004146069717785222e-02,9.797705514658758830e+00
1.519024831574688128e-03,-7.108332143946032369e-03,9.791747075055878824e+00
-1.121985440961936406e-02,-9.414261429647911156e-03,9.800994979368502058e+00
-4.176948943047811488e-03,-2.790757504832571192e-03,9.788146968440234019e+00
2.701234699871152192e-03,-6.943011129367292287e-04,9.795467091072099564e+00
1.192516734659329787e-02,2.126110663542786754e-03,9.807409783819998950e+00
4.258941586280475151e-03,8.217645110795801337e-04,9.793209646278233649e+00
9.464422228017368337e-04,4.730089282803231175e-03,9.791293858342742240e+00
-1.165356845927462831e-04,-8.619783441024991485e-03,9.792393245327870588e+00
-8.407666652787949835e-03,2.872464362468716420e-03,9.802379769324122805e+00
2.925199209641161490e-03,4.218109915548193733e-04,9.794335671757197659e+00
-2.362375583997009931e-03,1.302544094084156188e-02,9.787567433827215169e+00
-8.720878067905781308e-03,-8.334949628878135898e-04,9.799683308495557910e+00
6.157471718835936386e-03,-7.172209376239894844e-04,9.799549735373712878e+00
1.905917048788357930e-03,2.578512434276953192e-03,9.788301637552899948e+00
7.938354632728398001e-04,1.526857990689949734e-03,9.793956028592074148e+00
-7.396685654161542708e-03,-6.067904728022680168e-03,9.795910493645044070e+00
2.735591287330808776e-04,5.824952843748678992e-03,9.791573862725396538e+00
-6.150458874680179554e-04,1.180757793486041790e-02,9.797900452038923902e+00
3.998410397895538551e-03,8.330737230218526052e-03,9.795181336588926868e+00
6.143760919621611347e-03,5.733987552445958188e-03,9.805476810046375391e+00
-1.283874694257133159e-02,-3.970487249662931579e-04,9.795248306698995933e+00
1.072639929111085695e-02,2.498466412930852782e-04,9.788154057454617529e+00
-1.693500932835365937e-03,-8.798515374920629723e-04,9.794414147979091823e+00
-4.975418594630499902e-03,2.023467870591540412e-03,9.793051908467683475e+00
-3.433679116704544711e-03,3.967979310937284551e-03,9.793636939855085544e+00
-4.056037835416411146e-05,5.736791835256388992e-03,9.801299576592642282e+00
2.647091966070706359e-03,1.274251457513316844e-02,9.795453625188130786e+00
-2.705758666325861189e-03,-7.385383297465799961e-03,9.796158180438339969e+00
6.271890242382351620e-03,-3.268685249303756365e-03,9.797271408820087402e+00
5.725916456573531751e-03,3.537485502902234982e-03,9.798070187446722201e+00
2.911366430390866476e-03,-5.769334284735882536e-03,9.795387701998793162e+00
-5.678372356004462128e-03,-3.498443078644069941e-03,9.795884132176606585e+00
4.634044669446880232e-03,-1.015927904301722542e-02,9.793202174219356237e+00
-7.579396149527882444e-04,2.395569711488916564e-03,9.793051125186192252e+00
3.163478826676253443e-03,1.618549461508047866e-03,9.790220255336645749e+00
3.976189641196206138e-03,1.708870127886295658e-03,9.797140149569061762e+00
5.462876898777139709e-03,2.103455598143450195e-04,9.800965215067455105e+00
2.064156576239577039e-03,9.474311127268761085e-04,9.792986745554832950e+00
1.978441785814731915e-03,-2.357160799586260555e-03,9.804192807092624307e+00
3.244520198561895094e-03,7.503166880377366843e-03,9.795351053062157476e+00
1.770938610843445383e-03,-3.047103116323932048e-03,9.799693343389389355e+00
3.471100045255444324e-03,7.771784557978448933e-04,9.795152600012656308e+00
2.460822543485063039e-03,5.277183987805785480e-03,9.794262656226504049e+00
-3.903904126955237046e-04,3.384259587622740970e-03,9.803638526188793278e+00
2.910471606005447624e-03,-3.542734092837271365e-03,9.788064895636564344e+00
1.546844442158803404e-03,1.083286456203230198e-02,9.789542890875958747e+00
9.272055452726123484e-03,4.042048386443140634e-04,9.794001997425469952e+00
5.470740487760851652e-03,7.077816030385447425e-03,9.796284796146354168e+00
2.787197713351286616e-04,1.021643399344027278e-03,9.802885924803909745e+00
-5.417976340636936755e-03,-3.968184659706770583e-03,9.794789995363444746e+00
4.669400771963323760e-03,-9.777691805448506315e-03,9.793418915792317492e+00
-8.849606055432734236e-03,-2.597245877284224628e-03,9.794851235232998832e+00
4.124670605137623590e-03,9.808118319679370867e-03,9.790498527391127581e+00
-7.896432976161580491e-03,-3.560885175882669718e-03,9.794681755936530010e+00
-1.458597590973128785e-03,-3.322154966386253912e-03,9.792956859784734291e+00
-7.865788343290949780e-03,-5.742305599755794139e-03,9.791936445608669715e+00
2.402248863282476811e-03,1.477521246996281803e-03,9.799422184962750748e+00
8.956568981238914595e-03,6.240809732748649457e-04,9.797230017427262183e+00
4.290823472448159620e-03,1.484685412152651112e-03,9.789140216719921739e+00
1.334084978909130543e-03,2.206018179197642964e-03,9.795401579996912744e+00
3.034327794931145073e-03,-6.555059673750015213e-04,9.792738101662074257e+00
1.587742110739067932e-03,7.728651800616480674e-03,9.798033430045066439e+00
1.495677534319800588e-03,5.347619832758107768e-03,9.798808743225166040e+00
-1.297577915681080718e-03,8.918554533204323120e-03,9.794354625865969055e+00
4.211378410078824193e-03,3.017120075798468935e-03,9.798314715779392614e+00
1.760057495491576139e-03,-7.069687851438798002e-04,9.798180538232566406e+00
6.644914638319092057e-03,1.791085187584961873e-03,9.799486827224303198e+00
-3.238767247197525938e-03,3.399946361140430973e-05,9.795496994620592091e+00
3.091759850515175129e-03,-2.356307143734171026e-03,9.789889501755535406e+00
3.589695072930671003e-03,-1.580327224514671471e-03,9.790485387949630081e+00
6.349168944309891219e-03,8.012784961069161762e-04,9.794614018087713703e+00
3.087627461966484070e-03,1.146187506595119920e-02,9.791257756532525391e+00
4.342140480858700489e-03,2.948649682110603479e-03,9.800002769035303984e+00
-3.989021037957787667e-03,6.369198424789233696e-03,9.797329182284585158e+00
1.143266257504977831e-02,7.941368169289988142e-04,9.800840634056891432e+00
6.680416894543589161e-03,-3.611523608832315890e-03,9.793119923961658202e+00
7.669167528792126143e-04,2.477892909410987906e-04,9.779519735726628582e+00
3.567226821902912647e-03,1.528292251333043025e-03,9.793708525290268696e+00
4.273613578737585524e-03,-2.897947426600651182e-03,9.792132387691914630e+00
-5.210670556484560401e-03,7.332697425835407734e-03,9.797846336986259175e+00
-5.779998965059793097e-03,-7.860469864776805857e-03,9.799084496385619403e+00
-2.432059688841849750e-03,-8.800902311564945922e-04,9.799467192524272008e+00
-1.058811853521651400e-02,-2.032472797825238611e-03,9.797093702158527151e+00
5.199821472463291017e-03,5.559378830079310212e-03,9.798546444309986114e+00
3.782754103997065451e-03,6.779700987570224865e-03,9.797548206085934908e+00
5.516416134130551182e-05,-9.120912022224712638e-04,9.791505920068875213e+00
-1.966055097948294847e-03,3.638718316395264576e-03,9.791992339905982945e+00
-1.514084844952391651e-03,7.695444180638481239e-04,9.798727855142944421e+00
-5.483206616902178664e-03,-1.075953897614433672e-03,9.794925491271477824e+00
1.061768750827453422e-02,-3.472267964780836186e-03,9.802070264380269293e+00
6.821036869582850545e-05,3.885533470000765779e-03,9.792049072583109748e+00
1.249232591841336650e-03,-6.458380228439340254e-04,9.798895812106358960e+00
-1.021052358437565984e-02,-3.669794440253114440e-03,9.793940007502087042e+00
-3.461169246505403163e-04,-7.977116844954418740e-04,9.795988366298102434e+00
-1.855211716533823000e-03,3.430956297262631807e-03,9.790076765545062898e+00
-1.952405577084363525e-03,9.239518892132073460e-03,9.790813906841568937e+00
-1.639675371802397190e-03,6.088517894387107665e-03,9.801402708227737293e+00
2.411480963279651383e-04,-9.548974476713522827e-03,9.798188788875611621e+00
2.555947870427325089e-03,2.088948942387573119e-03,9.800271623862990111e+00
4.107835649803272607e-03,2.711175889361532466e-03,9.789795567178163793e+00
-2.396515481584934795e-03,-2.780245397581792774e-03,9.792458558780761990e+00
-3.373010284854402289e-03,1.348649599406527566e-02,9.801042564928540202e+00
1.313891989209330091e-03,2.174806116380037166e-03,9.792230054382473625e+00
-2.989675010399348715e-03,9.609458164677770961e-03,9.804999790018705141e+00
8.573824843097865682e-04,4.282159279710127681e-04,9.794535861335727844e+00
-3.896696757280364125e-03,-1.202406789707840835e-03,9.786341238354429706e+00
-2.762307629453062893e-03,-3.536600899511426269e-03,9.789298268554578186e+00
2.130843765192333753e-04,-6.108149462155781743e-03,9.792518068777050999e+00
8.764884186798388085e-03,-3.989739786314567237e-03,9.794157377603207593e+00
9.966314531696437301e-03,7.585931308618873046e-04,9.788925723418529401e+00
8.484452298718221999e-03,-9.826429554498186322e-03,9.790397439463600193e+00
-5.870633005578372934e-03,-3.279670016822488002e-03,9.804810911828989006e+00
-1.096452831599943785e-03,1.028738029708195674e-02,9.793096450303162115e+00
4.115713761059061268e-03,-1.923881086700217867e-03,9.794883371049667886e+00
4.685523511598707765e-04,-1.045611863083365824e-02,9.795419834231012146e+00
-2.707520247402349194e-03,-4.729958284028402613e-03,9.793428281365647692e+00
-7.467321220318422215e-03,2.353477248701785381e-03,9.802367869346751306e+00
4.017785417814420494e-03,3.717092092812751374e-03,9.800582521089031829e+00
1.663175251875973013e-03,-1.055283342581657229e-03,9.794449471542057140e+00
-4.689119756522935716e-04,-9.738936006589210201e-04,9.805360652429735424e+00
