gyro_x (deg/s),gyro_y (deg/s),gyro_z (deg/s)
5.397659743653164810e-01,5.030458531301963410e-01,5.446100844150659759e-01
5.171412137012527666e-01,5.197077080144603123e-01,5.473328218247034416e-01
4.403462854383410896e-01,4.800660123036630256e-01,5.440377642082726561e-01
4.826001561360966363e-01,5.025204217653850280e-01,5.723560976703105929e-01
5.303662679706545591e-01,4.992092865787225997e-01,5.017290370915780118e-01
5.165109558647962285e-01,4.806755710496151135e-01,5.449487239421259011e-01
4.451027485378985515e-01,5.065721333019505002e-01,4.410696795158559613e-01
4.473066466549110998e-01,4.207069813841785577e-01,4.522760872941072874e-01
5.419571845530064547e-01,5.006134729124761540e-01,5.119189789865354889e-01
5.630932975284350661e-01,4.912409630045576070e-01,4.482776234528097481e-01
4.603198975643799096e-01,4.839137503020469189e-01,4.980249970174484564e-01
4.487255394795447994e-01,4.796173661660278476e-01,4.451791077485769410e-01
5.174654832357493683e-01,4.556839943136836713e-01,4.745404761209360278e-01
5.324474837243559078e-01,4.939671815096758345e-01,4.376883958123639617e-01
5.249525436882317431e-01,5.047574447681091314e-01,4.889749808917231433e-01
4.938050983512641823e-01,5.012546027140221128e-01,4.586895401040264608e-01
4.624173431869237905e-01,5.994303845431619981e-01,5.521277898560215114e-01
4.626895611861918667e-01,5.553175314367465587e-01,5.362617285452953020e-01
5.329403479978106484e-01,5.189811798054463354e-01,5.274595295467852107e-01
5.339318781980629813e-01,5.434019099950734288e-01,4.969933029155307325e-01
4.807775183098340621e-01,5.646593692243200291e-01,4.936848814672056274e-01
5.331539110868398490e-01,5.485978188496617447e-01,5.325937860509178945e-01
4.823901410572196680e-01,5.020080894418399442e-01,4.866103691907527340e-01
4.729048203456686084e-01,5.540712908828664407e-01,4.557386038530822359e-01
5.361628306553889445e-01,4.492582311654265692e-01,5.079852509165516672e-01
5.346277835391580746e-01,4.924935461667288572e-01,5.394734370639722165e-01
4.810062422484900901e-01,4.800367221541405605e-01,4.634019784389404872e-01
4.964700124176124607e-01,4.653764259940275094e-01,5.380210496518437191e-01
5.009234796471232487e-01,5.246006099685894819e-01,5.520747623673822879e-01
4.886469605127321536e-01,5.116742215095578805e-01,4.912701964042292535e-01
4.997970218964132294e-01,5.359502633455663911e-01,4.382176087431800537e-01
5.014526271852113304e-01,5.538313495146618415e-01,4.340919865068857963e-01
5.074771788432477226e-01,5.248986764182739240e-01,5.307753920484328258e-01
4.837865931565521471e-01,5.028565905718945794e-01,5.272767361076146075e-01
5.440081782718182435e-01,4.673832248940075762e-01,5.738055644292844315e-01
4.770941489116441447e-01,5.527254641476901931e-01,4.484816765489851864e-01
4.563671562160179773e-01,5.102781901907288420e-01,4.963599829290618604e-01
5.681048911442911908e-01,5.056719315176918528e-01,4.829777651080224277e-01
5.021888046348647050e-01,4.835199353234970188e-01,4.457202312442131720e-01
4.960405449621292373e-01,5.226603146265493827e-01,4.593010744926919187e-01
4.642867046499015160e-01,5.216683256558068971e-01,4.575864114994704357e-01
4.920824107210343690e-01,4.787574544945774613e-01,5.034743429810976112e-01
4.236863104256123336e-01,4.733909740519215981e-01,4.683718373042538019e-01
5.404488963433767834e-01,5.179806286038531882e-01,4.793471930821105453e-01
5.764543264415308288e-01,4.716569052481011659e-01,5.308620941385717718e-01
5.770696282023889401e-01,4.901112253516853867e-01,4.799353389753185373e-01
5.180878353560746108e-01,4.867657976674632514e-01,4.985115116780540201e-01
5.152111371616661106e-01,4.955257360087823582e-01,4.805009154300658447e-01
5.789878706914352025e-01,4.672998167682878567e-01,4.636950391475403999e-01
4.523447447978821701e-01,5.267659136085983684e-01,4.902990667323550156e-01
5.600443236853365203e-01,4.953324255795785724e-01,4.906998338682161398e-01
4.618242072031366607e-01,6.111683806558312337e-01,4.667395159680557404e-01
5.063896547971999951e-01,4.984655771523496814e-01,5.340065897293685415e-01
5.296554126819874586e-01,4.367876243086117882e-01,4.934701427996138756e-01
5.252974263129632781e-01,4.880320781278661424e-01,5.379768108261056003e-01
6.110677201967233962e-01,5.281389736540182955e-01,4.259063425177742057e-01
5.068624036390919629e-01,4.520887004489821392e-01,5.103686604137154248e-01
5.546553025049963948e-01,5.661284814815770172e-01,4.818224496680774682e-01
4.939138500027109857e-01,5.028181804388111020e-01,4.529263295687415147e-01
4.737684759858609151e-01,4.686826707694707328e-01,4.719177207057730916e-01
5.089762864008158250e-01,5.246473571982023243e-01,5.583410394423515832e-01
4.202341174512951860e-01,5.182129904293549805e-01,4.354986662825046095e-01
5.101663499342770081e-01,4.935213479608596687e-01,5.100674069583226444e-01
4.717563628871095927e-01,5.065832216619637896e-01,5.014388657612713907e-01
4.977703477272282240e-01,4.602238495982901578e-01,5.385011334277078898e-01
5.480146295385008859e-01,4.779941856576757075e-01,5.354326709874455137e-01
5.265797898835357094e-01,5.204158420261876250e-01,5.070144283996373957e-01
4.828643094965149318e-01,5.411229319082834222e-01,4.770650762676877932e-01
4.461995254893112439e-01,5.990063543261512358e-01,4.498868311911090045e-01
4.974299619240139525e-01,4.679619481929040981e-01,4.183326952769260143e-01
5.638523982821295188e-01,5.084214933889590338e-01,5.449490057325747649e-01
5.252948552315114261e-01,5.344862780415533532e-01,5.077213356844256786e-01
4.539730557439871084e-01,5.142559246262778938e-01,5.137645636162685436e-01
5.394733283006666325e-01,5.489100273420836062e-01,5.345323039650893282e-01
5.636636457759524044e-01,5.139954083470618107e-01,4.639124204388531680e-01
4.586510441792095993e-01,5.459479745938160544e-01,4.922031532790346331e-01
4.960100521542240015e-01,5.439284204156434877e-01,4.806925619844368280e-01
5.009059790150165448e-01,4.610664131281504430e-01,5.209581891514953877e-01
5.098242114905396916e-01,4.131279531312510578e-01,4.731994613935378013e-01
4.838824279161321740e-01,5.425051449946948212e-01,6.210331832882048930e-01
5.028699795273000595e-01,4.053399227086485479e-01,5.816330784980200397e-01
5.399275264598037971e-01,5.029010854289808208e-01,4.860472159227728350e-01
4.736038921920850409e-01,4.441298744645859609e-01,5.383982336689911996e-01
4.679818757551889585e-01,5.127596379613921229e-01,5.124564556521659098e-01
5.094387993198604692e-01,5.575190071337576825e-01,5.420282549244292980e-01
5.081568318440971010e-01,4.244271524850747324e-01,4.603602622205965056e-01
5.133875089296560112e-01,5.365771660736963211e-01,5.448248391952904557e-01
5.217599125597172094e-01,5.404061363255495687e-01,4.869672451832994242e-01
5.074730666926875466e-01,4.686432582834610394e-01,5.425564697406644044e-01
5.157989706559976684e-01,4.719872513220584875e-01,4.859878082573860780e-01
5.301664231673232086e-01,5.167878221799286909e-01,5.000807285578410255e-01
4.484240035160680371e-01,4.955286077799634925e-01,5.030070619655451214e-01
3.930049437723850958e-01,5.223939406750224279e-01,5.279263731335094301e-01
4.875287556062797290e-01,4.949783415743876369e-01,4.772927965777258863e-01
4.607010987334415608e-01,5.244307858834831304e-01,3.996469855869286270e-01
4.921893615111451181e-01,5.247893265324522494e-01,4.009643981680990343e-01
3.900377810038797022e-01,5.123673596145963405e-01,5.487155726208915452e-01
5.664253856687878619e-01,4.629314118641316145e-01,5.341449984694770503e-01
4.666451814922802366e-01,5.499367200698938030e-01,4.895825761687772615e-01
4.910864088960005813e-01,4.749359379396967951e-01,4.900248858240582317e-01
4.139092954256364809e-01,4.962451295855376254e-01,4.299984846010908579e-01
4.465526474225329223e-01,4.545006301776062241e-01,4.909206952550011493e-01
5.062209199308782548e-01,4.751364119129415364e-01,5.491345681647429311e-01
4.687417980794428840e-01,5.299349364748291435e-01,5.416488324211404803e-01
5.573824871396614311e-01,4.548732169102593925e-01,4.860698118871633056e-01
5.408499010543078578e-01,5.470102136233864210e-01,5.316947298316790915e-01
5.045959719569165225e-01,4.539276955087279131e-01,4.662293864096133111e-01
4.424212101189963220e-01,4.653674706704858388e-01,5.379839611520378373e-01
4.117662810941676854e-01,4.110401745347453395e-01,4.353035393159368494e-01
4.889728576525539938e-01,4.051837401124177562e-01,5.144087767680933787e-01
5.308700644604982255e-01,5.726373237425926854e-01,5.694949475402892869e-01
5.330283065221965710e-01,5.014411336799288188e-01,4.191618345293871006e-01
4.661841206530759618e-01,4.940093333721233271e-01,5.294332987552323733e-01
5.192573145359473674e-01,4.973317232631780938e-01,4.729684652265265243e-01
5.678874707456145199e-01,4.606738810831965680e-01,5.335625347693593312e-01
4.729185087173858326e-01,4.360022616359942038e-01,5.620646376548606993e-01
4.383350127765546778e-01,4.944307800502468209e-01,4.876656188032456041e-01
4.710998477966572562e-01,5.273164210097327498e-01,5.596849425223690000e-01
4.273441350642583347e-01,5.378906166446505432e-01,4.218105751282978377e-01
5.114220066125092501e-01,5.646092679038224871e-01,5.027263849577912058e-01
4.844462201331811158e-01,4.786039445832384609e-01,4.070797231491356527e-01
5.055384646075019583e-01,5.000226704901992170e-01,5.157517840326354408e-01
4.877003253600187271e-01,4.382568417639980951e-01,5.549353662794290765e-01
4.855868358320372669e-01,5.336027648691795688e-01,5.090441576502235943e-01
4.310744358922403152e-01,4.749747031397965613e-01,4.446508642967451075e-01
4.640266436312280862e-01,5.191877140049380168e-01,4.980793417960884262e-01
5.547786897352803281e-01,4.912118379399831314e-01,4.931340696499711962e-01
5.060647745919306661e-01,4.324401325846106703e-01,5.120335786424050628e-01
4.272294729896058407e-01,5.210097017789814267e-01,5.359148401738251799e-01
5.094204079064595936e-01,5.129171494714066526e-01,4.528790896847482705e-01
4.740937682692571986e-01,4.820708442339374233e-01,4.920361815600214905e-01
5.372382260367875029e-01,4.503642083578036082e-01,4.723312139344946758e-01
4.895774931025997923e-01,5.252560853229915061e-01,4.725128212218804302e-01
4.590105124004185688e-01,5.747320258454018393e-01,5.241203939121827915e-01
5.494449627247823820e-01,5.441648383572983416e-01,4.893505972755579636e-01
4.854310607575917369e-01,4.877862967354553714e-01,4.634301205974509230e-01
4.885109823813739149e-01,5.029209862946365517e-01,5.402001684871768905e-01
4.394353608558964064e-01,5.223737747926709973e-01,5.397666857023568632e-01
5.647148076610266632e-01,5.222961692354800567e-01,4.861500078421365778e-01
4.561559445819819425e-01,5.832384289082481743e-01,5.258116373105456987e-01
5.008489402068070362e-01,5.095620254763147949e-01,5.167206697850449393e-01
4.899438299073521907e-01,4.832727376234454697e-01,3.971721731115009368e-01
5.668797741456461647e-01,5.140758229999011775e-01,5.669695132859805531e-01
5.607891395968210846e-01,4.426774059893878732e-01,5.645216750791945959e-01
5.487860514138993562e-01,5.053866145480426786e-01,5.797705245769281257e-01
5.629150221504621854e-01,5.315683631923274755e-01,5.310199604195260381e-01
4.969943876389906756e-01,5.239860371002625916e-01,4.583494672860969343e-01
4.549048213788626227e-01,5.441153737913846378e-01,4.909262406704486548e-01
5.243509343000651857e-01,5.359994246953974084e-01,4.537050577885891056e-01
5.166242653757211478e-01,4.341577093488098726e-01,5.343863453471919822e-01
4.761924623525995437e-01,4.795171546342482105e-01,4.954995650512066807e-01
5.173601404108948421e-01,4.920757851610455536e-01,4.935663326802196549e-01
4.846680548014305479e-01,5.446988591625079312e-01,4.503467726007403527e-01
3.951232727765885966e-01,5.309838074947971220e-01,5.722697358180458549e-01
4.963768273921971286e-01,5.565767402256618368e-01,4.455806535652285238e-01
4.670002678314252309e-01,5.512896926238385342e-01,5.613546217685545514e-01
4.963509883808607803e-01,4.849821365712889132e-01,4.893082260430133834e-01
5.033247914903600240e-01,5.488035911036270864e-01,5.708204780794579047e-01
5.023749986106679222e-01,4.747357984587077251e-01,5.352735128873852277e-01
5.237990752217015489e-01,5.140712946074679213e-01,5.367234865315620995e-01
5.360146839828674459e-01,4.647623594620901577e-01,5.550659400235539165e-01
5.559658786180952106e-01,4.989848877265358751e-01,4.282989028913186114e-01
5.295626246251980973e-01,5.306977395400793718e-01,4.746141190644272978e-01
5.419558754924532762e-01,5.622177785333635214e-01,5.427073314438032314e-01
5.328551443743622107e-01,4.941332099088705521e-01,4.925276417175161181e-01
5.150778564098268397e-01,4.665888715789529573e-01,4.805057138862109944e-01
5.576963477967242788e-01,5.261348310250805183e-01,5.258482691509179796e-01
5.152908786979397693e-01,5.313925199574767166e-01,5.253541808014061676e-01
4.798140791663734750e-01,4.418523202168591069e-01,4.951965451151326136e-01
4.530481437820003676e-01,4.869341761738096852e-01,5.173632089321966721e-01
5.017123238573446553e-01,4.658884794431550347e-01,5.113311095609675005e-01
5.153028207174333852e-01,5.072266932122468930e-01,4.832162768602605296e-01
4.661924912085430028e-01,4.966048600152872528e-01,5.032069393004311442e-01
5.848501661793070738e-01,4.672843587094904771e-01,4.613551372494479885e-01
4.826209705324301935e-01,4.652869576430707088e-01,5.288837453314150228e-01
5.443260771266623665e-01,4.384751600710610764e-01,5.905941087044297433e-01
5.071130404485033605e-01,5.228472872338383315e-01,5.297878460919329680e-01
5.184875404698283674e-01,5.088197106360934363e-01,4.982597793577206446e-01
5.099338720215178533e-01,5.819348620757021084e-01,4.789863473795132887e-01
5.137066729635501039e-01,5.346486814909140461e-01,5.212853257609700863e-01
4.640467391045186574e-01,5.604648337357116539e-01,5.652185327882648380e-01
5.013542819939792450e-01,4.823759068997402477e-01,4.187199192099678724e-01
4.761961582174145668e-01,5.521179698109570655e-01,5.181108518221648751e-01
5.203613613266268034e-01,5.191134835933486347e-01,4.152901380613526205e-01
5.003749573733906608e-01,5.628477468281228857e-01,5.155318689329059234e-01
4.936397582950772245e-01,4.655390099193328912e-01,4.877224094686045119e-01
5.377930400393036159e-01,4.711681768265222892e-01,5.720031225507720141e-01
4.589326231077821561e-01,5.027138395019107309e-01,4.791906455252957775e-01
4.562525386660673532e-01,5.341686130536047461e-01,5.087986326416674698e-01
4.934451181638471184e-01,4.747599588449692987e-01,4.417854704361048879e-01
5.530031346457897623e-01,4.767737609682369815e-01,5.324392369309201012e-01
4.679979945577879552e-01,4.713362627872667576e-01,4.405496396590378172e-01
4.802478647172980786e-01,4.535321793150845493e-01,4.902079581921946483e-01
4.805005957760167257e-01,4.945887817746036919e-01,4.670294072135455776e-01
5.949774674131711460e-01,4.457913864634924228e-01,4.361387313519843323e-01
4.153425313378847905e-01,5.342016342575897081e-01,5.003793059839648505e-01
5.056207754939688881e-01,5.238321674070868239e-01,4.786342762946903528e-01
5.733959209961059234e-01,4.701967243371595884e-01,5.435906153417756626e-01
4.476828074944703140e-01,5.115027660332881476e-01,5.118375494261210301e-01
4.772658432549070073e-01,4.866247468366421969e-01,4.526831356202781764e-01
5.005719120022346091e-01,3.998220761619373231e-01,4.578064340560661916e-01
4.633456794839156956e-01,4.982607310556100289e-01,5.067445057162380806e-01
4.901527168288595804e-01,4.784921922729498123e-01,4.762100439458832324e-01
4.564389202800118728e-01,5.245569631651725295e-01,4.600546575563566054e-01
4.677727944155838924e-01,4.455009012728101681e-01,5.552325096401605764e-01
4.854653487801761091e-01,5.391357921578500134e-01,5.439963389805037020e-01
4.644204589928778715e-01,5.015461160055614265e-01,3.707236415182892930e-01
4.438687462839009390e-01,5.009273481103072578e-01,5.576000495197923623e-01
5.419751194725420662e-01,4.800318553080791251e-01,3.955629062886260594e-01
4.705969800811622972e-01,5.164054105841026088e-01,5.042542559574748617e-01
4.497929134101330551e-01,4.980054870125755206e-01,4.502721524814867204e-01
4.987019504217447552e-01,4.806189024341402383e-01,4.572771742878623535e-01
4.305134148317536491e-01,5.357339762912638470e-01,5.284504702423459266e-01
4.324628266849631641e-01,4.723730990880100622e-01,5.265120032723130672e-01
4.968807999251529939e-01,3.684789223614435283e-01,5.497937590350453485e-01
5.178234513405447492e-01,4.473424029128622581e-01,4.680266784793585266e-01
4.836650127873670102e-01,4.724033195075549307e-01,4.561755940199478387e-01
5.357861589508772227e-01,4.802031956043800176e-01,5.459744482997541670e-01
4.725998210514336106e-01,5.563414306480393146e-01,4.728306442452319680e-01
4.936835550313080079e-01,4.582042860935310880e-01,5.219581990905721725e-01
4.815734353673185031e-01,4.610242193737690286e-01,5.212926478262649432e-01
5.212055963908868161e-01,5.120354561735173116e-01,4.778508238613303760e-01
4.677352015503036253e-01,5.422680342039674084e-01,4.720406404478303952e-01
5.056975682948112727e-01,5.803520022238287668e-01,5.107760536973108279e-01
4.744634721460159743e-01,4.941901540795468617e-01,5.510174749163152530e-01
4.671040702190518146e-01,4.707374065892862003e-01,5.636265280519310306e-01
4.563414365420070951e-01,4.483378406387797943e-01,4.824363449896537648e-01
4.356174172917901544e-01,5.523632577740588134e-01,4.670494441169627531e-01
5.137024371686716995e-01,5.004328931911889988e-01,4.903213592796529796e-01
5.344005746706081972e-01,5.072783693072068223e-01,5.341517625563930727e-01
5.462509932268019286e-01,5.369782759533668903e-01,5.156170521426740594e-01
5.006065484317563374e-01,5.337065233468551995e-01,5.063265455230985257e-01
4.744429975728614024e-01,4.239736272220981927e-01,5.477898042523959843e-01
4.745346551542513613e-01,4.573287631731642322e-01,4.973130670951438348e-01
4.498036224094442148e-01,4.320453351092627958e-01,5.002980258761448029e-01
4.405503997021498752e-01,4.792699451799537491e-01,4.497683198883820621e-01
4.772817740073028170e-01,4.947747203769517488e-01,4.848485655308606979e-01
5.019882435108227181e-01,4.951959503580239397e-01,4.468229158855950289e-01
4.834364010703373071e-01,5.282277513081840015e-01,4.395235767679447347e-01
4.901289827064505555e-01,4.654291322221899008e-01,5.284707480501664723e-01
4.698203782725445810e-01,4.518338438742013352e-01,4.415159002086928575e-01
4.931123913640965695e-01,4.675104630684088769e-01,4.247578869892422171e-01
4.987284040365521087e-01,5.979024843568395697e-01,4.698569874743672714e-01
5.244569317844605116e-01,4.564321767463457857e-01,5.042103927350174430e-01
5.052878589318086089e-01,5.426218442103024620e-01,5.298131466647095777e-01
5.074794503400915646e-01,5.351104966649087302e-01,4.546930679915248130e-01
4.228671884224628474e-01,5.579863533561563171e-01,5.115519720877109711e-01
5.146514738875354045e-01,5.471635847562241750e-01,4.638469276285732690e-01
5.959922057958734198e-01,5.057616175474302089e-01,4.788959831726222194e-01
5.256057190714054084e-01,5.698834472602873902e-01,4.926909320813375737e-01
4.938567631637510447e-01,5.346148581724430304e-01,4.624388007547534651e-01
4.934910370599467355e-01,5.173932586321867699e-01,5.497625607862712815e-01
5.066861732495099302e-01,4.855554854114236818e-01,5.156966411633776559e-01
5.533053623445913782e-01,4.465314832327674233e-01,5.090700694101806256e-01
4.231080505598913133e-01,4.601074781414814518e-01,4.649455410719769977e-01
4.943114936130728054e-01,3.807461015385869563e-01,4.485387841743092574e-01
4.316306410140537397e-01,5.185189478425217269e-01,4.192040166492817521e-01
5.224109457279516588e-01,4.541678854634267348e-01,4.403621744767043378e-01
5.475270946047254839e-01,4.997514931828488383e-01,4.616891431487218367e-01
4.548661452017878637e-01,4.708997861946216945e-01,5.318908837746000318e-01
4.971722910248807525e-01,4.715693950720450944e-01,5.538046989656115748e-01
5.031459803901210392e-01,4.855454786849324744e-01,4.670203739362596140e-01
4.835767724149246383e-01,4.649630827502766461e-01,4.371570307908386743e-01
5.896398474842207138e-01,4.738594744101010114e-01,4.785880829657059854e-01
5.365537616551363520e-01,5.727778074859186663e-01,5.039949523203828274e-01
5.433717038156345991e-01,5.025833228863958446e-01,5.131784196110528162e-01
5.505252645638420983e-01,4.899244724609184143e-01,4.792762833383750198e-01
4.932485227343042511e-01,5.505463233536874723e-01,4.988151354004465854e-01
5.106283428503738397e-01,5.394913008167746549e-01,5.210949944452091254e-01
4.806507829310285862e-01,4.861534879055729452e-01,5.056986370652198914e-01
4.981438070921810901e-01,5.106193722332271756e-01,4.746466290900117069e-01
4.281670053866161174e-01,5.432199038429698090e-01,5.103427296554354786e-01
5.403729153343337366e-01,4.110324448350431981e-01,4.542103556665642583e-01
4.967814116986959405e-01,5.898503487076555141e-01,5.312621552748152398e-01
4.422191138778779340e-01,5.576438452344478769e-01,5.137279439135022940e-01
4.818499588101810560e-01,5.312356509501966473e-01,4.846358844490312734e-01
5.062502004622008167e-01,4.853828489676182967e-01,4.854130491656933333e-01
4.843306775320790902e-01,4.781700162971547208e-01,5.102862377025566554e-01
5.618895861624064736e-01,4.799288946772451991e-01,4.049307323900445676e-01
4.696640899218421095e-01,5.214724940643138407e-01,5.456880154092309532e-01
5.212720394172785099e-01,5.287879618403716897e-01,5.215203616542132270e-01
4.244665523000435425e-01,4.775059158451224195e-01,4.782270978107050485e-01
4.981846926471060200e-01,5.508367422485366260e-01,4.629909136251177948e-01
5.606711673099792348e-01,5.838636681354424374e-01,5.306019691640907476e-01
4.931072437660070085e-01,4.985999700539304746e-01,4.929314573693473478e-01
5.596612925457196130e-01,5.335809004538765166e-01,5.336394491944363994e-01
5.112118377110398404e-01,4.937451968998581853e-01,5.393943555813123236e-01
5.303623715204139888e-01,4.861826009755748079e-01,5.062716972879358623e-01
4.917028973460386698e-01,5.219787028107902849e-01,4.799851233445829868e-01
5.622858468605406168e-01,4.879070601271868202e-01,4.946851626590241247e-01
5.093023278980521873e-01,5.069548128719844060e-01,5.171732970386969663e-01
4.197011577681931671e-01,4.885105195387866583e-01,5.895282386336649916e-01
5.639949456687666229e-01,5.055254830313481440e-01,4.841249686026532495e-01
4.847090610392659760e-01,4.869788202316537307e-01,5.325256579634726206e-01
4.856526911977550598e-01,4.848239583742408043e-01,4.677772093199817349e-01
4.675670925688817925e-01,4.424445504545849173e-01,4.868255939364288798e-01
4.958266188677599717e-01,5.317278564154067633e-01,5.101906642016176274e-01
4.280358486945563534e-01,4.206850635781629322e-01,4.776301654625240700e-01
5.065956371304851658e-01,4.737128927499063558e-01,4.954696057636662210e-01
5.575368504834542493e-01,5.042966728507012331e-01,5.033017887064011875e-01
4.610227598895779710e-01,4.363787847927592667e-01,4.956351840067059755e-01
5.311293258603893008e-01,5.441191765870290187e-01,5.250607976970480539e-01
4.943771512908249344e-01,5.962171529341837584e-01,4.788606709228395153e-01
4.750709706969466484e-01,4.841507392845895152e-01,5.169730337511360130e-01
5.444751719923903721e-01,4.618536716060930858e-01,5.120497622439189600e-01
4.858502933444036054e-01,4.920616147498088067e-01,5.326284272302677092e-01
4.556150251196668388e-01,5.245901938812506105e-01,4.682514162863266605e-01
5.036613266803994238e-01,4.608610999503359729e-01,5.541350429913096676e-01
5.398955921793072710e-01,4.484416488241955712e-01,5.103166747361874700e-01
4.277431795160697714e-01,4.672861938546808425e-01,5.245552067526446649e-01
5.167555935675161027e-01,5.309923313435480630e-01,6.067240895644873122e-01
3.760562120901684291e-01,4.262538090837098004e-01,5.724142189110367207e-01
4.728515650248807378e-01,4.541330301722402707e-01,5.651968607163999625e-01
5.986661641819251978e-01,4.063502845306027345e-01,5.651681819311296096e-01
5.530270948799350661e-01,5.185465343361228552e-01,5.326315216352683901e-01
4.966510768918169783e-01,4.910950889443526646e-01,4.608062961245034117e-01
5.100882040127751038e-01,4.796422675586610729e-01,4.680896792725037225e-01
4.813257950207824321e-01,5.927247111994935480e-01,4.651674687307686962e-01
4.867840204549601091e-01,5.009693074713129635e-01,5.349335717476464414e-01
5.021304846566343461e-01,4.443039846180932839e-01,4.931209426708319521e-01
4.429087884379016016e-01,5.095560826463866322e-01,4.508938143886254690e-01
5.279876290501807068e-01,4.852171324127338425e-01,4.326834594769990439e-01
5.715212440210379885e-01,5.643084028485721992e-01,5.313348632119232473e-01
4.781530746554392142e-01,4.633385316262119136e-01,4.723461873354346530e-01
4.802036928746689637e-01,5.988057070593362230e-01,5.313503639822749758e-01
4.448383237665777812e-01,4.909261750348283826e-01,5.220457030480855076e-01
5.102135479140812446e-01,5.042905365310326182e-01,4.732051100143452316e-01
5.357673390732234919e-01,4.228761185780119947e-01,4.643666477127924574e-01
4.784666321259655741e-01,5.023497402341919882e-01,5.420886818087511383e-01
4.971808095111482362e-01,5.633382652791419920e-01,5.286638438160298215e-01
5.440799375434675067e-01,4.850887040990509713e-01,5.029828197118961786e-01
5.108505659736929383e-01,5.028070024306864338e-01,4.573163437213483284e-01
4.562628620989064299e-01,5.404859331496689734e-01,4.418017514177171035e-01
5.042907033652531679e-01,5.126387950199704502e-01,4.650673308320911192e-01
5.439447519488888050e-01,5.057135139102723054e-01,5.304027349784170564e-01
4.648271922997633809e-01,4.869893411705591424e-01,4.563101056836801894e-01
4.501717490069915839e-01,4.600706723051876668e-01,4.903145169344187981e-01
5.465136382921104152e-01,4.571300812048982309e-01,4.439676840641201272e-01
4.935964679971480140e-01,4.765044963036231818e-01,4.994754150472285881e-01
5.312643097007325732e-01,4.930777748768089830e-01,4.302900989965739442e-01
5.309512733076152680e-01,5.188492295880450245e-01,4.719746070451776299e-01
5.474197717775327598e-01,5.286823458441736179e-01,5.146270075850603032e-01
5.686556356303179571e-01,5.382587984502299472e-01,5.283102172562350596e-01
5.391224780119365789e-01,5.288476304664042615e-01,5.309910220001828884e-01
4.705073519051852227e-01,5.096902497943626154e-01,5.171610710764464880e-01
4.792926558128342562e-01,4.936090261982883365e-01,4.778730295372036196e-01
4.937601931732627514e-01,5.330908806554903734e-01,4.790938757622265065e-01
4.669010019417086932e-01,5.143997356534325549e-01,4.597583353738335932e-01
4.683481156935028200e-01,5.270862715728231729e-01,4.508446680063297185e-01
5.123617380423761691e-01,4.876774524658938903e-01,5.037176257139519553e-01
5.035274157099821624e-01,4.798518024718129160e-01,5.155385536777706834e-01
5.209164441754998709e-01,5.216557696646068054e-01,4.892042168527098722e-01
4.549421352696264020e-01,4.611408006211734079e-01,5.057684610584336493e-01
5.013652267681006913e-01,5.399170632829928262e-01,4.717296419543474117e-01
4.914120494452193788e-01,4.719516399582071031e-01,5.005439099563290251e-01
4.543499418801977274e-01,5.175409030427984280e-01,5.226185337258649755e-01
5.075726827209423586e-01,4.415131591488435925e-01,4.741736822236050641e-01
5.107282669478130366e-01,5.125195253011362029e-01,4.430138488655254170e-01
5.069120293759945550e-01,4.338560313272927793e-01,4.817119768697102900e-01
4.514841606557507547e-01,4.638903708252433145e-01,4.575874360686864040e-01
5.387727822994829996e-01,5.580589396485186038e-01,5.300375976076121542e-01
4.472094244516349182e-01,5.022357540608866078e-01,5.284640417461635709e-01
5.219930661985984210e-01,5.173543270057110455e-01,5.135594719987446322e-01
5.433663444969270007e-01,5.034723990969069973e-01,4.716934813642376101e-01
4.482987777078797365e-01,4.972353979632335164e-01,5.102669360209358684e-01
5.109690602743379717e-01,4.887095214085149242e-01,5.412189715084085861e-01
5.379077946264214649e-01,4.407935833500614131e-01,5.198030071636610128e-01
5.493402615455533766e-01,5.482818134507362329e-01,4.973598960813918057e-01
4.600424548106420986e-01,5.500767822600762802e-01,5.494369325547330263e-01
5.084817661532803346e-01,5.870873382303918309e-01,4.279536473689540266e-01
5.346186873310539989e-01,5.476846658749995322e-01,5.039574800918037445e-01
5.024780566468523002e-01,5.501559624670867565e-01,4.817811511165571159e-01
5.567102237180102664e-01,5.504271956909525532e-01,4.993040475916289411e-01
5.249206188226558378e-01,4.691687279808207656e-01,5.021830936087035013e-01
4.995746413195874536e-01,4.821832393334390954e-01,5.206650981689445734e-01
4.806339652399222451e-01,4.765675132116073409e-01,5.636314135862879882e-01
5.418655058052336271e-01,5.344180619246728936e-01,4.824896319956090696e-01
4.746815625578137965e-01,4.664900810612379600e-01,5.471070328962334139e-01
5.063268106919300848e-01,4.939561415956369439e-01,4.660861179976043545e-01
4.975161198298412857e-01,4.965694152800375072e-01,4.557775960200534660e-01
4.485030159936583827e-01,5.252652540103939227e-01,5.208866769140376718e-01
4.958041262922751602e-01,5.091865005382335552e-01,6.110547216227547596e-01
4.787676485680739669e-01,5.276152920555845505e-01,4.397211169559216426e-01
4.797955333028973146e-01,3.743585017889421440e-01,4.844419220018950090e-01
5.280981259764655489e-01,5.537553675505227924e-01,4.664175624945640641e-01
4.732568125802202874e-01,5.516088084686817661e-01,5.280116172324196278e-01
4.358900152447857668e-01,4.838370600505912944e-01,5.762175217790277415e-01
5.432887437436086930e-01,5.105229064606771061e-01,4.383016645220432217e-01
5.430369764027507262e-01,5.501377079567616457e-01,5.177597069201891333e-01
5.185080992540505029e-01,4.793669092686009270e-01,5.048460315142451194e-01
4.511479675679437307e-01,4.866108387208499808e-01,4.716741110384619073e-01
5.543614520835857817e-01,5.161786491758939555e-01,4.441656767111374915e-01
5.217643717934069558e-01,5.108886316241504355e-01,5.121720133612812642e-01
5.459405812959691184e-01,5.072646282418259434e-01,4.567715763218813119e-01
4.836045962003154841e-01,4.916795793613790155e-01,4.719898502955965913e-01
4.775707201074359531e-01,4.736725228765770179e-01,4.365206584471925666e-01
5.279494243596813963e-01,5.609359534906098732e-01,4.095500502498868323e-01
4.423881149638589361e-01,4.931235571683008079e-01,5.202824864086282863e-01
5.527108212024851586e-01,4.795184454107249139e-01,4.857300139683153328e-01
4.716096004924841267e-01,4.626644525241222494e-01,4.981630467396783168e-01
4.967059224194683154e-01,4.108472616055627302e-01,4.853895781440317747e-01
5.268403207735153915e-01,5.200030315905262990e-01,4.830902400915656481e-01
4.616197158623183139e-01,5.659468112258546624e-01,5.424299911089008885e-01
4.701846154798256516e-01,5.662889893517142337e-01,4.794516930794999743e-01
5.048859316810161424e-01,5.392458863840666750e-01,4.590605250198467324e-01
5.116669956387620566e-01,5.823377704547135769e-01,3.961931169605656944e-01
4.861396242038772963e-01,5.230246559850126875e-01,5.001576531588594055e-01
4.564078986225158507e-01,4.315657911341517772e-01,4.601665785918749862e-01
5.854810804789952750e-01,5.039488563305639657e-01,4.654119762084255596e-01
5.139910445059600042e-01,5.632100997038371748e-01,4.767862630208117847e-01
4.547464323129053465e-01,5.107914627330155666e-01,5.541358659676701715e-01
4.628070868686721684e-01,5.379823024212355698e-01,5.050700587161445210e-01
5.000665325239422865e-01,4.593993970944175720e-01,4.396335966673023954e-01
5.035960610624683476e-01,4.872446201689722423e-01,5.011336995288072638e-01
4.621676947613778674e-01,4.935622501635746340e-01,5.146996628101592197e-01
4.065551416418348718e-01,5.321997205895409033e-01,5.700907636362970710e-01
4.886333134869301209e-01,4.501520437320084000e-01,5.108571036391511555e-01
4.698780358234403987e-01,4.980727945788744337e-01,4.289257334390290111e-01
5.579808583855760951e-01,4.479869422371788867e-01,5.455912036329098047e-01
4.222314490798749764e-01,4.766893657907137483e-01,4.942254548525482072e-01
5.381342014662459095e-01,4.867262056517037139e-01,5.303365287490877655e-01
5.109853954004267562e-01,4.730426945088705981e-01,4.909314357904356330e-01
4.681778152731286835e-01,4.327760219571514244e-01,4.562362350299501434e-01
4.695039403947455225e-01,4.936173804974612334e-01,4.699059479099627068e-01
4.538079209158000782e-01,4.613076520483272436e-01,5.462787825327348745e-01
5.034101014702575538e-01,5.403361945595110960e-01,5.538239598202674419e-01
4.943955436283480331e-01,4.986158112843752654e-01,4.420573697784028200e-01
4.249049074720125385e-01,5.249261790024002394e-01,3.960477670029437514e-01
5.046682350366921144e-01,5.754801170582451997e-01,4.169362096854525301e-01
4.905240788874971614e-01,4.600833298283699135e-01,4.750929091540821436e-01
5.458679617571792209e-01,4.804722485801811716e-01,4.272687977101221612e-01
4.894671689587958840e-01,5.003579948512077991e-01,4.210751609120427785e-01
4.796284817356157859e-01,4.961541815725316051e-01,5.348475518234251380e-01
5.175631857580783590e-01,5.390990604507915895e-01,4.975205253278713324e-01
5.427478215095141723e-01,5.199942109573676419e-01,5.146869554366949595e-01
4.431178890590414254e-01,4.940956442492248080e-01,4.778651197150988739e-01
4.808801889163963339e-01,4.974899510851766848e-01,4.871140273407715271e-01
4.169341745665546273e-01,5.000298389773611962e-01,5.343338567327367006e-01
5.589300393039721149e-01,4.771318990690094353e-01,4.615837326089592407e-01
4.711084783731930847e-01,4.988243674450415499e-01,5.431850762880574557e-01
5.050490367811821812e-01,5.133448425841270479e-01,4.534297558631559255e-01
4.360900524418304114e-01,4.331562569524649020e-01,5.116578447143622643e-01
4.436489757281235624e-01,4.315098709360989937e-01,5.337451113843795225e-01
4.254339450609502249e-01,4.106514187999318333e-01,5.402857517680287325e-01
4.291255088531985007e-01,5.019076870774829002e-01,5.452850639359075879e-01
4.531195427376064067e-01,4.200593386969141974e-01,4.629220292258017233e-01
5.696334748349356492e-01,4.884778639873634809e-01,4.356609876328902953e-01
5.221708984456175928e-01,4.972884317892204975e-01,5.144127040328662082e-01
5.288413077506928239e-01,4.728029115536332427e-01,4.967944470655448752e-01
5.291703155427952554e-01,4.506435239662935355e-01,5.187420108415655706e-01
5.419762725702690354e-01,5.063735854338838882e-01,5.712062788162216576e-01
4.468833331244607687e-01,5.341090336359752833e-01,5.316139913629995828e-01
5.242677685695157352e-01,5.414685419254661181e-01,5.199216736530086758e-01
5.572042081915530298e-01,4.681830483188657022e-01,4.739547765266634016e-01
4.448673103817526453e-01,5.315449479313151260e-01,5.300753838859325606e-01
5.375388848124076357e-01,5.241698239844512219e-01,4.760715636301413589e-01
5.087783133642778122e-01,4.641040923614963565e-01,4.899308157238296824e-01
5.350405453897721930e-01,5.308185480279811186e-01,5.476565464045265452e-01
4.744479445919791427e-01,5.076673172126179301e-01,5.391846974599961984e-01
5.147826734071990762e-01,5.621169509334871250e-01,4.281625711147565294e-01
4.051453498027536293e-01,5.507087775609291747e-01,4.850042285684544319e-01
5.138192201685678473e-01,4.379213451423231707e-01,5.383059809277940255e-01
5.033014238548791930e-01,5.304632277505202387e-01,4.341513508475161043e-01
4.770656458127829347e-01,5.396165146853035832e-01,5.643127341456274371e-01
5.381109141189406309e-01,4.883155207978721601e-01,5.486643418382648463e-01
4.894784420410893677e-01,5.736733251938579414e-01,5.820956644504656774e-01
5.035043896475845937e-01,4.991359679424850482e-01,4.890146759893685413e-01
5.214760203565914631e-01,4.628758541273983451e-01,5.032890830474596733e-01
4.425652231861574859e-01,4.677752214414924170e-01,5.551163618750469819e-01
4.427816560188955197e-01,4.589271939873886819e-01,5.279319906794353034e-01
5.248578048890699677e-01,4.970300734292197320e-01,5.008641940145325266e-01
5.585154162066719996e-01,5.131853835047929246e-01,4.795064666748948268e-01
5.021334314723842063e-01,4.628501669965098819e-01,5.494727804977425079e-01
5.019000112174131223e-01,5.453697396274890252e-01,4.753008697991357168e-01
4.264809971342938821e-01,4.758948185178938917e-01,4.611492098585124322e-01
4.688096438676098154e-01,4.543289428332369928e-01,4.859699345065565668e-01
4.475597963088765452e-01,4.928330066722212965e-01,5.310546893253026424e-01
4.311325934511705538e-01,5.107337025129323749e-01,5.205282473635473028e-01
4.343061674237472247e-01,4.783417738970074939e-01,5.139766341897887836e-01
5.160961766007134965e-01,4.894071571800856502e-01,5.153081547423233877e-01
5.414491157086115392e-01,5.622500056293784354e-01,5.291329871734696821e-01
4.240701470547940111e-01,4.798018100764717131e-01,4.992738478288357706e-01
5.466143197694713907e-01,4.930022706374695973e-01,4.868050843311368947e-01
5.167193040030718665e-01,5.448038095807327119e-01,5.576256295035924015e-01
5.656781385802720497e-01,6.193658907328102314e-01,5.150584088486237500e-01
5.237417083278519403e-01,5.131911231110445337e-01,4.928850144047842163e-01
5.143298787137264849e-01,5.106447618814476952e-01,4.978667615064168994e-01
4.878097070535875046e-01,5.364654107356734425e-01,5.046438857369561770e-01
4.978552120238968204e-01,5.107011603009979916e-01,4.782459039975804349e-01
4.594027835103905444e-01,4.287952347782029716e-01,4.778101669506926163e-01
4.919394868473886406e-01,5.129696402686789725e-01,5.307069741686509801e-01
5.317794781845235352e-01,5.769239065065296934e-01,4.884134188814174271e-01
5.036201312505965699e-01,5.111042136538056502e-01,4.975306694870257895e-01
4.500151273587673639e-01,5.998912080965634885e-01,5.090683970372559264e-01
5.471959623714783838e-01,6.072467938837248225e-01,4.893043745826154423e-01
6.039297132401899582e-01,4.397026944250077007e-01,5.267437681360461754e-01
4.335515807751496031e-01,5.375963315661717035e-01,4.650021140262766695e-01
5.332184750259560957e-01,4.929649228361627777e-01,5.186238953214095115e-01
5.213371276422971157e-01,4.776037888162344425e-01,4.600162567963058113e-01
5.504471260583514436e-01,5.227250283351169147e-01,5.003523707693153799e-01
5.201225490721813616e-01,4.542580278163141361e-01,3.890069391397697474e-01
5.393470856348931974e-01,5.266341148565458763e-01,4.809275557753829311e-01
4.500231450336965588e-01,5.477082630482419390e-01,5.627189257849248838e-01
5.204534661977153753e-01,5.228566220275224774e-01,5.420865550107466513e-01
5.440711293289457462e-01,4.736359663942084630e-01,5.227294793374370752e-01
5.330497286989727135e-01,5.433995022093282001e-01,4.730437444521865542e-01
4.528393757411748877e-01,5.391434225585529649e-01,4.469731300300707755e-01
4.786518756919772577e-01,4.229941311328038189e-01,5.393888611857273752e-01
5.157217527493244136e-01,4.695686247262861324e-01,5.624459273813628979e-01
4.903407582922476582e-01,5.901301757914121371e-01,4.687103369187685664e-01
4.625621946684960184e-01,4.836440099741850518e-01,4.566914537050518197e-01
5.291984197082317820e-01,4.295920673395847711e-01,5.148938781527488961e-01
5.195175020527474929e-01,5.311870960375695283e-01,4.796396168503271329e-01
4.692852797697923406e-01,4.766008278242122032e-01,5.307109457693910404e-01
6.137671515847362702e-01,5.340831584525099762e-01,5.161414892574084368e-01
4.324869830028091333e-01,4.764354136955792907e-01,5.051606370296146675e-01
4.991445060892620855e-01,5.031750673992207989e-01,4.807514922742103791e-01
5.574178127599389576e-01,5.272323172435674499e-01,5.256483605838464523e-01
5.347197292978940197e-01,3.855000308892421179e-01,5.616761671722270144e-01
5.186754253631929990e-01,4.796611373741305195e-01,4.954461034202059522e-01
4.351733926391883611e-01,5.177604437838330131e-01,5.186446361710590480e-01
4.703547813789351051e-01,5.040024485810586929e-01,5.063826538435903801e-01
5.157414836652108869e-01,4.696054217744553005e-01,5.716649125731539938e-01
4.642947709621911834e-01,4.261172416463193113e-01,5.633580154352983982e-01
4.991167990287174172e-01,5.531115048648832522e-01,5.329928723154409020e-01
4.800262722191271925e-01,4.703184105754770195e-01,5.038570421152052115e-01
5.052115669279886312e-01,4.597344530480879654e-01,4.592619337787480216e-01
4.906397569654377677e-01,4.998624176406493147e-01,5.006999560960263551e-01
4.631915850340514451e-01,4.961338078892052472e-01,4.996572916086919891e-01
4.924215614791807583e-01,4.907303709720863272e-01,4.330828228328948981e-01
4.831597657309865679e-01,4.960270600010832642e-01,4.808455414954003748e-01
5.024247657933696987e-01,4.738300600778718730e-01,5.211258407158229078e-01
4.713096334465537440e-01,4.694055976387831453e-01,5.602680977685262631e-01
5.682558854423761519e-01,5.646557501348005159e-01,4.169405228999082946e-01
4.888221797826507453e-01,5.520658517465782955e-01,4.647212591265095782e-01
5.833402834574633600e-01,5.199156464616052631e-01,5.669631748068292287e-01
4.552665692446904999e-01,4.543864290069316025e-01,4.922984967291001435e-01
5.086788822571256530e-01,5.137128129343900840e-01,5.066917051514265857e-01
4.695525154383714539e-01,4.233319926200455607e-01,5.315960972443710686e-01
4.731871637857916202e-01,4.539052879501026538e-01,5.256528399222376580e-01
5.189546006161623870e-01,4.705242695248149642e-01,4.872133477643146304e-01
4.895582730849768471e-01,5.026403847136624581e-01,4.974237980157586447e-01
4.325194892370093913e-01,4.926919594445224315e-01,5.037985965975428915e-01
5.572316540580957156e-01,4.977277141748923106e-01,4.642307401944370526e-01
5.000085037306061242e-01,5.452835706279965944e-01,5.140663867441891410e-01
4.913760439570015182e-01,5.342350756329251604e-01,4.908671953350234873e-01
5.120887911981593099e-01,5.484925162820393219e-01,4.886193270867029148e-01
5.457945368216032822e-01,5.128635837908470663e-01,5.262016128391401315e-01
4.943541167356010346e-01,5.139406762097883385e-01,5.111347487421242786e-01
5.280167407715289363e-01,5.705091401894160086e-01,5.466386637175206786e-01
5.062765494809420286e-01,5.239406115094298322e-01,4.873868279452186481e-01
4.982081907129335963e-01,5.147425618249130697e-01,4.831311609130475304e-01
5.061568315481072000e-01,5.176136368708712521e-01,4.696867116876892734e-01
4.879763293414038361e-01,4.522019978599590151e-01,5.441574359746637057e-01
5.033803104872512924e-01,4.657571468328642883e-01,5.037754273582284448e-01
5.046293294620386449e-01,5.510384754517082539e-01,5.123333194852893735e-01
5.518472128138276478e-01,4.759651099986617062e-01,4.767484418323620909e-01
5.954397863261643442e-01,5.111600153809502389e-01,5.653398952097896668e-01
4.389192360118442937e-01,4.471636286677891370e-01,4.550427770463346677e-01
4.509904889835560926e-01,4.356151310158792866e-01,5.185720560499760268e-01
5.067045553327135243e-01,5.201142142399651780e-01,5.103173231274596988e-01
4.265842695284901565e-01,5.005655466488738714e-01,5.570532469950278953e-01
4.916225128331153660e-01,4.853272205742690248e-01,5.326361392421720131e-01
5.494008282859585979e-01,5.457613038269828465e-01,4.875579424016879826e-01
4.850393171313334140e-01,4.193728464928311861e-01,5.088215031711347258e-01
4.859322327833761057e-01,5.359921138396778195e-01,4.673725788656037383e-01
5.143421780363510720e-01,5.150565543188934114e-01,4.755187220839263151e-01
5.394981890621260989e-01,4.322913019577785398e-01,4.935537999984340729e-01
4.979497762358379154e-01,4.048635140300424484e-01,5.557751087304796389e-01
4.626310311637338302e-01,5.238996496258427893e-01,5.150904301050630574e-01
4.662727392340015320e-01,5.208509778069335683e-01,4.776512773097483233e-01
4.577737185088012195e-01,4.261110830167934016e-01,5.128927903996010063e-01
4.847185202623729428e-01,4.701406678504039260e-01,4.921436208991781247e-01
5.419590158698740501e-01,4.939346881413631540e-01,4.768968034112195387e-01
4.771207876974198903e-01,4.886195838275805836e-01,5.062616363610640269e-01
4.950088340942310761e-01,5.768997226989478477e-01,4.697356586395995404e-01
5.349210100512037380e-01,5.163482428867059992e-01,5.351214673104321973e-01
4.573344257058754025e-01,5.498123774834242639e-01,4.499222159563274204e-01
5.000162328198929362e-01,5.288115373421548027e-01,4.906682316004347677e-01
4.941115682210182047e-01,5.504593009499227918e-01,4.783202658415145470e-01
4.850649898216041200e-01,4.658109260362293114e-01,4.338219821204084559e-01
5.100961730971812491e-01,4.897614990455498862e-01,5.060935840692091237e-01
4.480395389501299896e-01,5.063774129221532139e-01,4.407896040237763158e-01
4.737258535345805766e-01,4.482701896364268968e-01,4.295538733434794421e-01
5.022667056594960489e-01,4.262866758628194863e-01,5.492185883727215279e-01
4.908936238609608038e-01,4.150414130402497181e-01,5.492198492961976042e-01
4.864387135240936244e-01,5.277445217913162567e-01,5.454953989518589452e-01
5.266108181563741164e-01,4.787076973816791758e-01,5.672892568638204791e-01
4.795201792007054986e-01,4.704235439079220149e-01,5.509368783561735539e-01
5.476216066346195621e-01,4.973429104660163080e-01,5.183604355614077619e-01
5.186439478799610425e-01,5.150730392268072499e-01,4.797708932102816015e-01
5.478283722785194376e-01,4.783904589223193504e-01,5.823257088697029182e-01
4.809324672031419778e-01,5.770603228817356989e-01,5.666046052267843525e-01
5.533978666892521714e-01,5.059336303406981594e-01,4.275802962724432055e-01
4.664872896084531484e-01,4.470578934005997596e-01,4.686654921456605560e-01
4.629805883069882944e-01,5.217413815204262617e-01,5.530538792536401349e-01
4.535414558784380823e-01,4.555028242332819222e-01,3.983054744348774601e-01
5.677264958246202031e-01,4.969887476001567106e-01,5.178559183505229147e-01
4.980728712793234814e-01,5.433483891385947340e-01,5.181383930044176633e-01
5.173207731763704853e-01,4.695485480981193005e-01,4.799124225295019475e-01
5.170905615078825734e-01,5.248478708197780174e-01,5.492686459851692238e-01
5.350226603410315196e-01,4.658549896867497098e-01,5.082829724826933848e-01
4.940451561088746169e-01,4.774286798831096634e-01,5.296485614763749572e-01
4.958930236625496146e-01,6.772766536194616549e-01,5.850823812529235557e-01
5.424924849361858481e-01,5.003086136450338728e-01,5.262313999029748501e-01
4.698588074989833996e-01,5.257931384659161322e-01,5.283586949360025153e-01
4.960726561612007202e-01,4.999963888829746517e-01,4.275106601462534961e-01
4.499279633519747135e-01,4.497164676803042105e-01,5.325986712600384587e-01
4.756628316990028083e-01,4.589207677530147134e-01,4.789860540431159497e-01
5.156001009685381442e-01,5.938907756922430226e-01,4.769990906125559649e-01
4.594711587820933252e-01,4.730087980348448573e-01,5.532695444684269104e-01
5.053170906018978892e-01,4.896625694710414756e-01,5.226900462815201598e-01
5.113122291034757350e-01,5.265907108249666679e-01,5.015577970642560723e-01
4.575269342018040697e-01,5.132271938658399257e-01,4.856147151990789501e-01
4.730421360371945272e-01,5.098201641925658167e-01,4.861647792126230772e-01
5.226044233055550103e-01,4.643712419366601840e-01,4.547199565675329458e-01
5.708464769902825697e-01,4.773882592152197124e-01,4.986768164157521777e-01
5.434248577316854734e-01,5.260820308007000401e-01,5.123869580134139401e-01
5.341442623808617673e-01,4.843576094713565872e-01,5.279648101292586659e-01
4.791723453958737222e-01,4.585818886042433706e-01,5.082304326101386716e-01
5.104182540630601839e-01,4.570306168012139847e-01,5.598930049446482204e-01
5.344432465739172855e-01,5.269048949052582698e-01,5.276859956080860448e-01
4.934754725257024521e-01,5.764609284099357911e-01,4.575156254468428219e-01
3.810300795899085879e-01,4.995105260174507733e-01,4.825990437136689071e-01
5.220491303543428607e-01,6.052005047465915943e-01,4.842874798687324400e-01
4.352886005960266980e-01,4.650537319690456473e-01,4.327626711447357111e-01
5.226103703192399585e-01,4.658531108052245129e-01,4.663803680143238095e-01
4.517248620150856597e-01,5.603904164171134017e-01,5.051803100113677614e-01
4.809691343831735133e-01,5.226288689740918869e-01,4.538290257302295405e-01
5.061024864427345893e-01,5.773388746389650494e-01,5.200256386529753527e-01
5.596655752460051314e-01,5.472929135752159224e-01,5.040265632241366367e-01
4.669348408796445415e-01,4.150094334969871568e-01,5.117137329948014957e-01
5.323539045309898521e-01,5.286260270828661012e-01,5.069541069584574400e-01
5.371833625362770759e-01,5.397563562680943727e-01,5.193862079737036064e-01
4.984769268494735339e-01,3.992644621160394980e-01,4.959664856568526403e-01
5.004828420109023179e-01,4.732102732913646692e-01,4.680899872249678073e-01
4.642544491244913196e-01,5.333130202211887605e-01,4.037897764840301384e-01
5.462739654522374977e-01,4.786002460496692756e-01,4.565625391960015933e-01
4.733668054609778131e-01,5.233337428599974528e-01,4.688213700029220110e-01
3.853611741189576501e-01,5.024148689303283843e-01,4.493108279046502673e-01
4.786758816092738789e-01,4.992056532822438664e-01,5.709443290439225605e-01
4.939897706188273174e-01,5.187545878459481896e-01,4.857510090732222729e-01
4.303156421308496071e-01,4.826132796936055680e-01,5.050578396469161957e-01
5.391119884253884331e-01,4.713964512050218270e-01,3.991934651625591024e-01
5.182657277025358722e-01,5.014101123254731673e-01,4.918412588877380531e-01
4.864285871635521397e-01,4.052277069998572179e-01,4.785427621718904012e-01
4.789297139670687375e-01,4.588820553434949101e-01,4.928735267362437944e-01
4.768097399527590485e-01,5.018557962826186714e-01,5.432342547081754347e-01
4.200970347356560719e-01,4.340286502992288242e-01,4.470996366637802200e-01
4.949139334150826630e-01,4.864265723260378094e-01,4.819652898135087793e-01
5.421013703866669475e-01,4.563871791095542307e-01,4.805152221077547137e-01
5.082811413479374485e-01,4.887081985332528133e-01,5.441654909665208928e-01
4.779682450757322676e-01,5.248436108345739814e-01,5.175949875186512950e-01
5.390938682503614299e-01,4.088397689157109438e-01,5.293337233374716400e-01
4.902767742821256824e-01,4.233063266520046275e-01,4.730122867589162117e-01
4.403134538664975617e-01,5.102496882573437365e-01,4.741125954197156767e-01
5.155782061752202106e-01,5.653203257080013922e-01,4.824843980151461431e-01
5.139312746485186212e-01,5.129749058592332212e-01,5.485173925742239387e-01
5.030888534954949254e-01,4.641445308705816064e-01,4.903720791635173271e-01
5.274809887615226067e-01,5.175445176170616612e-01,5.790371977340905696e-01
4.697552388739401619e-01,5.298436306973990373e-01,5.747668863632416913e-01
5.077316232857118639e-01,5.511511268466956492e-01,5.094925808654932053e-01
5.078263079848552852e-01,4.921996240950041179e-01,4.952953000573045439e-01
4.918256287111510971e-01,5.413449494328115286e-01,4.853115849091236833e-01
5.100843328836188739e-01,5.889652745085171004e-01,4.754368290010103082e-01
4.915447553029964056e-01,5.230958863304100426e-01,5.440455807360341511e-01
4.888348023909445117e-01,5.004614286911228671e-01,4.972329628635141496e-01
5.422747504500304849e-01,5.112922175476911635e-01,4.567449737036838320e-01
4.087878432703117570e-01,5.028204458408311872e-01,4.644798444035586060e-01
5.061536438654481440e-01,5.108436787254931888e-01,5.632052509043226074e-01
4.365611974284021590e-01,5.235688086650219786e-01,5.320114472974317721e-01
4.723911055471749498e-01,5.726774751700445254e-01,4.704154302418475653e-01
4.764802440941912631e-01,4.960490715009859275e-01,5.100025859155461472e-01
4.821863278217582982e-01,4.805467300459020374e-01,4.933413334939989459e-01
4.942608764341292482e-01,5.250141795942112610e-01,5.120112593323774552e-01
4.875784530935842742e-01,5.129679132790169183e-01,4.504492242135268998e-01
5.092150641762810404e-01,5.310759330070435880e-01,4.603318801597047205e-01
4.412640846176542064e-01,5.885464354849938573e-01,4.690132414943213313e-01
4.946620369307100362e-01,5.628994464583555457e-01,5.234778857755787440e-01
4.684327555696723433e-01,4.600602230898434009e-01,5.453913869406924464e-01
4.843856479090070666e-01,4.909562044796252356e-01,5.203869103196177015e-01
4.629296827573647910e-01,4.521297965827442700e-01,4.831466521420734184e-01
4.654248839743050925e-01,4.860741275734451472e-01,4.207468698529938655e-01
5.199538535083293445e-01,4.288893892541785768e-01,4.528075491957647136e-01
5.256053323060414506e-01,4.678833910176477540e-01,5.036239689342520975e-01
5.182876339058930526e-01,5.527382300924444936e-01,4.979790017084594345e-01
4.943774096852582289e-01,4.694421396092247623e-01,5.650834293174848977e-01
5.300743218094061682e-01,5.051537642545890217e-01,5.505291909957301666e-01
5.053399202580268756e-01,5.500079031649639516e-01,5.717553516522186907e-01
5.442437003107465365e-01,5.536005416916627286e-01,5.162166174087958748e-01
5.283624914735709499e-01,5.199949726125013827e-01,4.861785660839545442e-01
5.431027485767244700e-01,4.836121131247076432e-01,5.228148660844333939e-01
4.730324768260031343e-01,4.792559185573467273e-01,5.245382322427797339e-01
5.112526200881609695e-01,4.579361815902048827e-01,5.061143936266936372e-01
4.688948573501978134e-01,4.946523409992644726e-01,4.980003268476338452e-01
5.100151110104181873e-01,5.231659155277875728e-01,4.968369987589348891e-01
4.801492667248498103e-01,4.286649292078012485e-01,5.526375014056559287e-01
4.962109600572738866e-01,4.849951388112201389e-01,4.733727827123865306e-01
5.098740274714514964e-01,5.492876244715894085e-01,4.558280646286623772e-01
4.745011112302097156e-01,4.993641721434568526e-01,4.884933838406997353e-01
5.470557954019653613e-01,5.594110998156697212e-01,4.146878124504270735e-01
4.502989395590527022e-01,5.128355092581370345e-01,4.570819648914443700e-01
5.125120701461620687e-01,4.771027620570216787e-01,5.346209228892309095e-01
4.702951391450303498e-01,4.208483188294404043e-01,4.880954690476032587e-01
5.143532400367324398e-01,4.883061235794755039e-01,5.562029685546786562e-01
4.724256368308912823e-01,5.045419866017392119e-01,4.907010277077159532e-01
4.744071415418719684e-01,4.927650793626001668e-01,5.274979419018404059e-01
5.153076209323905754e-01,4.700628611908134191e-01,4.820004058349187659e-01
5.276040247072106837e-01,5.158226880237566370e-01,4.452157354939466072e-01
4.927264799725938893e-01,6.146951670004564550e-01,5.023870527025706689e-01
6.023873003643950286e-01,6.062048730022147058e-01,4.919894812375364967e-01
5.167805310864715951e-01,4.356125506809759851e-01,5.091450560717368790e-01
5.167238947850101294e-01,5.024422007141488011e-01,4.379962158150974005e-01
5.072440475945214633e-01,4.682508249651732846e-01,4.595758639293050507e-01
4.832287153816788861e-01,5.352572324180910890e-01,4.856154382376511314e-01
4.793224863502706379e-01,5.079934846327486264e-01,4.841244261901537782e-01
4.727059574865285496e-01,4.800174714799011477e-01,5.458544393666496797e-01
5.216634079520626743e-01,4.806962096562022446e-01,4.694668776347324379e-01
5.113550531860626691e-01,5.392018719127372739e-01,5.644442234248456813e-01
5.971993495206832092e-01,4.539889876815009773e-01,4.837290954657608166e-01
4.997364934316905760e-01,5.048601015466624986e-01,4.298259513868636361e-01
5.039434399599530545e-01,4.779806164879842334e-01,4.682523300047555792e-01
5.093629398603520819e-01,5.179979328542360095e-01,5.062886684518184133e-01
4.762905907251817617e-01,5.103192477693531126e-01,5.338291147694003147e-01
5.171969725283660502e-01,4.528308410585100141e-01,4.811841248028185247e-01
5.246115231339334439e-01,5.344146232981230593e-01,4.948720356765398121e-01
4.867727239309980747e-01,3.898670745524550618e-01,5.136450933706231403e-01
5.199918360206412515e-01,4.643387103010661043e-01,4.201487364283614245e-01
4.979428616157638987e-01,5.132254064271253302e-01,4.440625097394191312e-01
5.371409964184375996e-01,5.360584974409371428e-01,4.440385526553491391e-01
4.775698457525355267e-01,5.304582401295938610e-01,5.178773902759939984e-01
5.307223323905492229e-01,4.359835572413187088e-01,5.268418194637366492e-01
5.524501691665767433e-01,5.443978275520551247e-01,4.977094673506072819e-01
4.283786613319369718e-01,5.030373201943589834e-01,5.419713217469176447e-01
5.346086833227108315e-01,4.734588251012368243e-01,4.369779076853745892e-01
5.833761474342072928e-01,5.221984158093780914e-01,4.081090967857886609e-01
4.801920451238174681e-01,5.257843205954891852e-01,5.033235168079340793e-01
4.900866896974789277e-01,5.087821922969599786e-01,4.748307182393235459e-01
4.768911432126607952e-01,5.009015045634628294e-01,4.659865105908091443e-01
4.699625602002648894e-01,4.362349863849247500e-01,4.773410822545363641e-01
5.703896272287868330e-01,4.340927580621654069e-01,5.441033380408778486e-01
5.198694313912280984e-01,4.949323226714729684e-01,5.114007684447318125e-01
4.141866251350390660e-01,4.849323107618491169e-01,4.805864897843433736e-01
4.267689578424739838e-01,4.877653524104612059e-01,5.856691379996130653e-01
4.903054432285459674e-01,5.233385936968074637e-01,4.917951940166976343e-01
5.697364267600207866e-01,5.438857798404145294e-01,5.187811175505392391e-01
4.673079324766830078e-01,5.625151332254295644e-01,4.131160078669371405e-01
5.004762518787123637e-01,4.536953865613910786e-01,4.729506064110663988e-01
4.731577115364075103e-01,5.106500854367534981e-01,4.633290333031280239e-01
4.547290868194368563e-01,4.957636227460561762e-01,5.443094931842528128e-01
4.528495722134983636e-01,4.793509231228052503e-01,5.412913794856382133e-01
4.713658416988941169e-01,4.913373300179718628e-01,4.835344446341765523e-01
4.879574648555025096e-01,4.525325272637049645e-01,4.544015852828644508e-01
4.782791631176595559e-01,5.523100385390116163e-01,4.416332492467771598e-01
5.117248251253094793e-01,4.700653381142779752e-01,5.285152577863777568e-01
4.635211199113005165e-01,5.361963270437524187e-01,4.653031049989128087e-01
4.703879379576894615e-01,5.450979187971451978e-01,5.665251014819775444e-01
5.217596360876034511e-01,4.740539738052045315e-01,4.893293076063919278e-01
4.822250915806969851e-01,4.831921755651922279e-01,5.483005669967696560e-01
5.315231968307214672e-01,4.746562608182132159e-01,5.140930266223279199e-01
4.888343392729603276e-01,4.826665662071374929e-01,6.049055255676125675e-01
4.939207618046781989e-01,4.809226325712128158e-01,4.920672964310935926e-01
5.424538822059991050e-01,4.980608204423876972e-01,4.906421661173908655e-01
5.223661238848791299e-01,4.549278800657767796e-01,4.189518062822891742e-01
4.219196656755176411e-01,4.845201179084917542e-01,4.119697062649782526e-01
4.987759338407512510e-01,5.025304880679828390e-01,5.404833326871767429e-01
5.574827085848537145e-01,4.859857610285693297e-01,5.323789696467400301e-01
4.679482961069190705e-01,5.054081282605610292e-01,5.438291971463827812e-01
5.088509018874878276e-01,5.084974180390436915e-01,4.721569505808412281e-01
4.786962957530289109e-01,5.995701216039750481e-01,4.924302917100939481e-01
5.089444480440170615e-01,5.226802596125426081e-01,4.827169420242926612e-01
4.952548311677724135e-01,4.846067107890985604e-01,4.996475075074195416e-01
4.855128617388218548e-01,4.486108087649079423e-01,5.514752553819475267e-01
5.177297238709143157e-01,5.119663730097929744e-01,4.973830769722367151e-01
5.330437898952679054e-01,5.142515611960825073e-01,4.709621307375046473e-01
5.845700421157081772e-01,5.306057643396258072e-01,5.188870103935795397e-01
4.413765735347777719e-01,4.478041858352138083e-01,5.124793865123768999e-01
5.211214806963347934e-01,4.950486153014408419e-01,4.792127971453363222e-01
5.187395948971254001e-01,4.849152760576090349e-01,5.162036680481685291e-01
4.861751412016753759e-01,5.192639244055349268e-01,4.764721212431605735e-01
4.501009861635498210e-01,5.015617999024567508e-01,4.938343106896943557e-01
4.901094485889282426e-01,5.018217564576635814e-01,4.920716269154763456e-01
4.572730544537045305e-01,5.503053240685036318e-01,4.704688824989088358e-01
5.006731082633069096e-01,5.174213579405981811e-01,4.898066311558164632e-01
4.711138283936189830e-01,4.766678880965998233e-01,4.948892770800819574e-01
5.083542775950719017e-01,5.272890134262299133e-01,5.085076514204569520e-01
4.621517579304673662e-01,5.267109913141798661e-01,4.664093657762246603e-01
4.958934282526646364e-01,5.098695495935482436e-01,5.460084612406833626e-01
5.133490983395129215e-01,5.185214004236481378e-01,5.545932388764124310e-01
5.540930840884381592e-01,5.285376651649152935e-01,4.895948429430841964e-01
5.523130185754696608e-01,4.998486327550127339e-01,4.873761447609294417e-01
4.614290501508552245e-01,3.965121927867079621e-01,5.591697754868986125e-01
5.725243915948414752e-01,5.117189774953068149e-01,5.118829189608288255e-01
5.043931612395465836e-01,3.976311383771503616e-01,4.781520265029827743e-01
5.521920754565691203e-01,4.820938828233168882e-01,4.874985320191151383e-01
4.610516322738735795e-01,5.210940811666291417e-01,5.325074257350502771e-01
4.895958646563320915e-01,5.508346815092211024e-01,5.928161653979897583e-01
5.180805365550819053e-01,4.882007104895697003e-01,5.533978839099459313e-01
5.562947394642966392e-01,4.135364704301978667e-01,4.797322565746039991e-01
5.701303802898918249e-01,4.443532173893726123e-01,4.578105480828870699e-01
4.387152666555707570e-01,5.168075973106334153e-01,5.418976615894287585e-01
4.789109080551905429e-01,4.867953810813169246e-01,5.111513154354505595e-01
5.295368959927936325e-01,4.324213855180521482e-01,6.087835135261704389e-01
4.855352509751518775e-01,4.676280617031397524e-01,5.156463625683407326e-01
3.959730249404691538e-01,5.054465471403474242e-01,5.551334127124124551e-01
5.129502214208075950e-01,4.756425521321431260e-01,5.485569324389021340e-01
4.303135668500184807e-01,5.323484342452150520e-01,5.508199183776932850e-01
4.789710397638145545e-01,4.528130663570706926e-01,5.618070981951559517e-01
5.292238097419548204e-01,4.397612460013792801e-01,5.264048600537268863e-01
4.374427275860919839e-01,5.214628471416409283e-01,5.579684168043543835e-01
5.177529755774759046e-01,5.463620046292119170e-01,4.669510658576640494e-01
5.464277019116544620e-01,5.217343877798695795e-01,4.774018100620554539e-01
4.743461227446347239e-01,5.037168616665101961e-01,6.027803455520901466e-01
5.117491829086721067e-01,4.032744572105765868e-01,4.624988391198088800e-01
5.618373981420856644e-01,5.344445270387984115e-01,5.335299952861551898e-01
4.562899497495801482e-01,4.427176167157899633e-01,5.337105946093047004e-01
4.920113890718442184e-01,4.958604585461103831e-01,5.353656075199852982e-01
4.573129714868129359e-01,5.152598063634575842e-01,4.208139245282119800e-01
4.931970616097635651e-01,4.344357346138148501e-01,4.719110859389968882e-01
5.036567280563388760e-01,5.324654660305450093e-01,4.427137717571157371e-01
5.567608677598111511e-01,5.650589991456971273e-01,4.723411738336865118e-01
4.659065856456530708e-01,5.448662338449349329e-01,5.448777736804335525e-01
5.055276587520232123e-01,5.055571606913473737e-01,4.450063596201914717e-01
5.446171048472413512e-01,5.207495967624358180e-01,5.204405672063402433e-01
4.609747182710454694e-01,5.275864992407967025e-01,5.215469211619070400e-01
5.206190969566301119e-01,4.393667269609032866e-01,5.399513875116098705e-01
4.893531132857850685e-01,5.062512312165045048e-01,4.847516518651728834e-01
5.232582843893043290e-01,4.875860882464392310e-01,5.166328737068006660e-01
5.293731050264555149e-01,5.767788174244019572e-01,5.328242753637980611e-01
4.940528306159272520e-01,4.953095113021462326e-01,4.991564669000986276e-01
5.038646347543015436e-01,4.848622441213627510e-01,4.973085044973457047e-01
4.807913853609899202e-01,5.438598731307640044e-01,4.742708169283927910e-01
5.518518701344293786e-01,4.751744458303979179e-01,5.509111381811437891e-01
5.342554282171980695e-01,4.361502740136515288e-01,5.594479662861420177e-01
5.015472546292203404e-01,5.308913867070923498e-01,4.312100976852160650e-01
5.105578237877838044e-01,5.149224359831099385e-01,4.268047237723997522e-01
4.752720288787506409e-01,4.830228130366908124e-01,4.807633794930236681e-01
4.768065304871806354e-01,5.840572277828337544e-01,5.432057050297357526e-01
4.793542716700207595e-01,5.355260880687964242e-01,4.668213755155098954e-01
4.734051334264579025e-01,5.082104262887935375e-01,4.757586549203392523e-01
4.945086327047447661e-01,5.668537061829583834e-01,5.281434568310632294e-01
4.996230435409761972e-01,4.931110329955664118e-01,4.753703400934838341e-01
4.893736975018669888e-01,5.457447161481797648e-01,4.729772696487322126e-01
4.577777149843521576e-01,5.635790619218865594e-01,4.591369525779566696e-01
4.619862524091063460e-01,5.784159248374134421e-01,5.470827134333058339e-01
5.073753679213627299e-01,4.727499858375521224e-01,4.324495982904060232e-01
5.135171086988054023e-01,4.535820854684532999e-01,4.888241671280603717e-01
4.894110059425140768e-01,5.217014023177695137e-01,4.275742612532850151e-01
5.542851930211964984e-01,4.962589397889619058e-01,5.338254010778721304e-01
5.277043955166597078e-01,4.702638207544334037e-01,4.373500699354460619e-01
5.075044880725740892e-01,4.475839804130973265e-01,5.989965276785500503e-01
4.680786043642166661e-01,5.567535010042670152e-01,4.776857776835646829e-01
5.024487980562956091e-01,4.240476270786378565e-01,5.228728240190331222e-01
5.695011258750994898e-01,5.245040088035671788e-01,4.931889396572642914e-01
5.179050688593622720e-01,5.131055978903112935e-01,4.971689008033842172e-01
4.541219442116741223e-01,5.531602413832334975e-01,4.473293525686935501e-01
5.021495923701996267e-01,4.644443826564150224e-01,5.686654318599655422e-01
5.037589047023626199e-01,5.043544888546318550e-01,4.472288130034676179e-01
4.636849423082385901e-01,4.508513520879208203e-01,5.146848992320796068e-01
5.072346191046227526e-01,4.790155354427850787e-01,5.004007502863442314e-01
4.351633469750971761e-01,4.765412256336082342e-01,4.870293612573208253e-01
4.934279320664320956e-01,3.873952476318370808e-01,4.519769356207051780e-01
5.005688894289310742e-01,5.301395495124762158e-01,4.332937357664937705e-01
4.959874700110535883e-01,5.310223225308789985e-01,4.291328048105692017e-01
5.545958455131888565e-01,4.351576995400996961e-01,4.572299934484562733e-01
5.277987675474672402e-01,5.168274088141359135e-01,5.348274205339819121e-01
5.443337359851582180e-01,4.883864012267415400e-01,4.879146338573758235e-01
4.706374864454774820e-01,5.366704526683898635e-01,5.449671517515585206e-01
5.160141234845830871e-01,4.965967017599225430e-01,5.645504118952471284e-01
4.435103013762073942e-01,4.930507507893086561e-01,5.272379140503015149e-01
4.949822545970376519e-01,4.104281718149416225e-01,4.872413740329820109e-01
4.735198465268702916e-01,4.410667662187524596e-01,4.773416400746739452e-01
5.650246344858048664e-01,4.806119241474244297e-01,5.186527392007002080e-01
4.906841905649158564e-01,5.226332256003184407e-01,4.620912743832725766e-01
4.409087763694509721e-01,4.678516461310398555e-01,4.767394299314857697e-01
4.703659502783978930e-01,5.271548752563142148e-01,5.232269650296188512e-01
4.690775262134077028e-01,4.720705300068060994e-01,5.160889004187677598e-01
4.475973754099009105e-01,4.510024056707089835e-01,5.944469802607819098e-01
5.153724378817458041e-01,5.221030888782661750e-01,4.285099595373494941e-01
4.892923931324613673e-01,4.945215658767133093e-01,4.796881711868529741e-01
5.605812210687299846e-01,4.367733993219209965e-01,4.970764258208358877e-01
5.251437846677843302e-01,4.699907861198089343e-01,4.620232546878313418e-01
4.620010725847021882e-01,4.902269341976736583e-01,5.335435865654220011e-01
4.766502846751728972e-01,4.307261354924392105e-01,4.528022743639635306e-01
5.602278216197630334e-01,5.526345648845673031e-01,5.763910035058966708e-01
4.860088959401110964e-01,5.375752725298100776e-01,5.083017857985214771e-01
5.242880204757468521e-01,5.223585576635181305e-01,5.158874081001767475e-01
5.012869108460927814e-01,4.133789558990936253e-01,5.297816645150837944e-01
4.636471184827389291e-01,5.298014523246200591e-01,4.628254481896477701e-01
4.944772822068739804e-01,4.805583441663188737e-01,4.895302409080108941e-01
4.401973908853927253e-01,4.016349446575602222e-01,5.636767623954007655e-01
5.211805276332730497e-01,5.168227164092967785e-01,4.530047895200977615e-01
5.703982231872354314e-01,4.826419746643978437e-01,4.561987405934679329e-01
4.991271910879997442e-01,5.193343367081748596e-01,4.958726016391730163e-01
5.174867982476039074e-01,5.046445794879309554e-01,5.385497951455585630e-01
5.276030294147923128e-01,4.959764779841580595e-01,4.680462314676896995e-01
5.878368904669877271e-01,4.620447828083852349e-01,5.832894872944840436e-01
5.133561893789014841e-01,5.361003401978278182e-01,5.032251110481157363e-01
5.907756079474060229e-01,4.615044732001766237e-01,4.611901389610577606e-01
4.377629694403875615e-01,5.634297063946386297e-01,4.424125283573346334e-01
4.931540076796148697e-01,5.118900211658791166e-01,4.814624285595652253e-01
4.468647697053917400e-01,5.562365841927392474e-01,5.188629517169492944e-01
5.033188960373603527e-01,4.857265470701237486e-01,4.572610819075530464e-01
4.721942062639258308e-01,5.785946222017319673e-01,5.271527274995827517e-01
5.068537341414817154e-01,5.489837185148875864e-01,4.736091163928098924e-01
5.139314909718443181e-01,4.873408752864482607e-01,4.751191752302073579e-01
5.031534729181730281e-01,5.027379058975509629e-01,4.769466181169560448e-01
5.028722753542601565e-01,4.252511799712065388e-01,4.810555576110989162e-01
5.123112131337878017e-01,4.629240192520800989e-01,6.001378333525576592e-01
5.159461075928941654e-01,5.529065537932557062e-01,5.132870696134786970e-01
4.302928689877454360e-01,4.849317440678461155e-01,5.146650797471333805e-01
5.838547426967389820e-01,6.038656713585379698e-01,5.240010675031495646e-01
5.251301745820941003e-01,4.888082341014862164e-01,4.755530669441423997e-01
5.246569673252533539e-01,5.061915967507938374e-01,5.131662330945471195e-01
5.148266852875624799e-01,5.321908143863430807e-01,5.445358312597673445e-01
5.125822905962702514e-01,4.592305145163699254e-01,5.429639675381809916e-01
4.703075285493369395e-01,5.433015431756825775e-01,4.888355326903475739e-01
4.731606485503502824e-01,5.092441823211749652e-01,5.788496108518026428e-01
4.899682371700120886e-01,4.984384790022562961e-01,5.236325555851267799e-01
4.951957595257080458e-01,4.700050588330464962e-01,5.801609710552404486e-01
4.583742989447396887e-01,4.825507944559686013e-01,4.479964144169146789e-01
5.600111600881886309e-01,4.762028378028360653e-01,4.701998691644959094e-01
5.242995039842154315e-01,4.503621083360634381e-01,5.588050209538776292e-01
4.690845921307599808e-01,5.099908087451434646e-01,6.602765794789113851e-01
4.544565874013334339e-01,4.190878770011163823e-01,5.011590093528128786e-01
5.154880645389388061e-01,4.990836666667486932e-01,4.907443812381706016e-01
4.921657059344759499e-01,5.131517363063861081e-01,5.275387516480247729e-01
5.084191089380678541e-01,5.283570874670842077e-01,4.164113641366539165e-01
4.937210717330224874e-01,5.009931098720714626e-01,5.493521162740762076e-01
4.804500432494849260e-01,4.793895320608392852e-01,5.297479922325608603e-01
5.142107165493878806e-01,4.773427752684206160e-01,4.567086490062752246e-01
4.675413260987147934e-01,5.172212528128035114e-01,4.785387525255664909e-01
5.616116873435647028e-01,4.882693822465674627e-01,4.110076010242351141e-01
4.828240226694531234e-01,4.824556376271321168e-01,5.083028063765607785e-01
5.075276819144982632e-01,5.230998135885558398e-01,4.283181336648163584e-01
4.672957190320555232e-01,3.708718607285111379e-01,5.203100388392366549e-01
5.075080596319011539e-01,4.386229984007722349e-01,5.249157117445892862e-01
4.463061139379151943e-01,5.168581977686489415e-01,4.490598199083019049e-01
4.370645973612498070e-01,4.605172690967994642e-01,4.877831410184162997e-01
5.070801222466435609e-01,4.894776546999483613e-01,5.453713157793285138e-01
4.909155644500205473e-01,5.372015508303371600e-01,5.151076472027971143e-01
5.104872705475040906e-01,4.523813147668449552e-01,4.146049717204279839e-01
4.811988764828018517e-01,5.066126130518452397e-01,4.629709886782090167e-01
5.017838983352225224e-01,5.518221334875492712e-01,4.836822284486010370e-01
4.831300167783625921e-01,3.955132896587476576e-01,5.670565522381563195e-01
4.602315200444640486e-01,4.608978991542596604e-01,6.186283917546080424e-01
5.417348133691658463e-01,4.938466017670213870e-01,5.396031259452618301e-01
4.934156193361315390e-01,4.872479988796643013e-01,4.760590335190766909e-01
4.869043927811953498e-01,5.455987537208091265e-01,4.727741306264131027e-01
4.665698970028991921e-01,5.490574673176508158e-01,4.931537112710242532e-01
4.396059982424181944e-01,5.656238676116988051e-01,5.676757327643786599e-01
4.868594084169215463e-01,5.278727316780149614e-01,4.417422937307016739e-01
5.450016751953098426e-01,4.871701245399587821e-01,5.093128935692577963e-01
5.006498635228234795e-01,4.666355834925445256e-01,6.151066332220166410e-01
4.409625886269745720e-01,4.148702970941641754e-01,4.681397522610544204e-01
5.180879495349728359e-01,4.520554065324823845e-01,4.477284873294469225e-01
5.340991985215710613e-01,5.210237470663358073e-01,3.238099057767905298e-01
5.613539561404039535e-01,4.855756676516921888e-01,5.574942010250424351e-01
3.998069893076753312e-01,4.791738308999986540e-01,4.823949021197374010e-01
4.590225229615595426e-01,5.686814830255936259e-01,4.213416663729917522e-01
5.259333336870843922e-01,4.926037982482070476e-01,5.288272429341611680e-01
5.350522206053403007e-01,5.397313675804323863e-01,4.370195798044917423e-01
4.926190521853576199e-01,5.110246229056976119e-01,5.468558102892585593e-01
4.898472485127144394e-01,4.923514041698157095e-01,4.920035403779953742e-01
4.927402889460876234e-01,4.262225622203583697e-01,4.781853574271731633e-01
5.291184946757062635e-01,4.930233233355129085e-01,3.859027717095739329e-01
4.559945437592679007e-01,5.107360819659397810e-01,4.648048722146481682e-01
4.338760025352276228e-01,4.943322881883290831e-01,4.549563740533372203e-01
4.720007659458146931e-01,5.221757897336102294e-01,4.998752415291221052e-01
5.171411784635154829e-01,4.872827869418064339e-01,4.345699457187328085e-01
4.837945383336244021e-01,4.901073053366477583e-01,5.251712173299020181e-01
5.077733511887873030e-01,4.928347508507124886e-01,4.147856743206700947e-01
5.233180822254762665e-01,5.624230681945336929e-01,4.624535608312177470e-01
5.608385633035771756e-01,5.380256024739733522e-01,4.914538835052628118e-01
4.896095658749461399e-01,5.037692567131260013e-01,5.424048862300737683e-01
4.977231164595685153e-01,5.347755412734083169e-01,4.175035310164408320e-01
6.000369474023038441e-01,5.090977712410369449e-01,5.035164983863923416e-01
5.004611677469573694e-01,4.847493960667056956e-01,5.056494563605307135e-01
5.035262402761628842e-01,4.401715013150084288e-01,4.941078946696184082e-01
5.361161518634091072e-01,5.268568127368350451e-01,4.764809957498369331e-01
5.128827613636042226e-01,3.873120912103542590e-01,4.833009272273120494e-01
4.821036605734790315e-01,5.131660443628760504e-01,5.467955060712468285e-01
4.870741945332273115e-01,4.698022404558219178e-01,4.974853082692652362e-01
4.806817571006085643e-01,4.703100981771412559e-01,4.787478816357613742e-01
4.842064135684227000e-01,5.053597992421212659e-01,4.869726157521409027e-01
5.206407920891128471e-01,4.986467264058184745e-01,5.715286729427624390e-01
5.114533420960855059e-01,5.261371493766739960e-01,5.444343476304714935e-01
5.332483946328094859e-01,5.030236604952017521e-01,4.788507356807740201e-01
5.352495749255188340e-01,4.331259621797435844e-01,4.701845940406991775e-01
4.831307034633892106e-01,4.641752376985864292e-01,5.704482836475220919e-01
4.973450962319264090e-01,5.345069834371660722e-01,5.288505862772476807e-01
4.884070511848785934e-01,4.621696016158480247e-01,5.078963947067137719e-01
5.258254925736917107e-01,3.754838932817861630e-01,5.159379930267299352e-01
4.924822812322397492e-01,5.532623467284207841e-01,4.510058926972796978e-01
4.884083713454896447e-01,4.803079053749560456e-01,5.436106298006718740e-01
4.647197842851889527e-01,6.488906204157476321e-01,5.327410914609497228e-01
4.180526308625405751e-01,4.971731906500163611e-01,4.777635483548758888e-01
4.418263782305469900e-01,5.286304924610255584e-01,5.077151817214451412e-01
5.116268297533291820e-01,5.330112989858780681e-01,5.108456747710318213e-01
5.205122976755693909e-01,4.922294089801697581e-01,5.196141971267030923e-01
4.698823978198346518e-01,4.725764077286911391e-01,5.451759770025781382e-01
5.243116036844345240e-01,4.963320016434709658e-01,5.730833633894495405e-01
4.509655771172339511e-01,4.747019360565259416e-01,4.798506999045584198e-01
4.959597397807829489e-01,4.813075097194125518e-01,4.972833379951832611e-01
5.522237138975610860e-01,4.457014673091107548e-01,5.495050786686577204e-01
4.817781939435896721e-01,5.106416283345279750e-01,5.627105188562545601e-01
4.785632682197737964e-01,5.265894151957744018e-01,5.348705513298893655e-01
5.232115301510433802e-01,4.533885635384985457e-01,5.613172173957277078e-01
5.293619373775938497e-01,5.188205816725612873e-01,4.584267777268389299e-01
5.731145809750500808e-01,5.241202204636714601e-01,5.006413605933974775e-01
5.269465063420951667e-01,5.128037402023394309e-01,5.509271615329470739e-01
5.085706305818893380e-01,5.427631759095772335e-01,5.841214603314865972e-01
5.373732598364751034e-01,5.230631840765619378e-01,5.661345918577632697e-01
5.154600785078082836e-01,4.384227758321925794e-01,4.503687108717263632e-01
4.939347886230379125e-01,4.729901133447854678e-01,5.436755956119779798e-01
5.337599050940290413e-01,5.277113292144662848e-01,5.931031062539775522e-01
5.371895325762447992e-01,5.318006060261905033e-01,4.504220686102273774e-01
4.695534783244406651e-01,4.823454335752154210e-01,5.183776338885600632e-01
5.023570318110635036e-01,5.712836029722413445e-01,4.915402845458182179e-01
5.024948792451315871e-01,4.717868006976516093e-01,4.757650451203584430e-01
4.978607929609730198e-01,4.417784167918373806e-01,5.558189665576732663e-01
4.827532264547719221e-01,4.547609037329493620e-01,4.292835954913182817e-01
5.513086702756209156e-01,4.270754010704234660e-01,4.980087860013919787e-01
4.697148356746350673e-01,4.768367955207923337e-01,5.339528631709434814e-01
5.481102296470656832e-01,5.002278879980480708e-01,5.104389508749617166e-01
5.867450318228312200e-01,5.708609207457373547e-01,5.481477993347111388e-01
5.094928734560917327e-01,5.358917953810993229e-01,5.171772504568251660e-01
3.617707684439671612e-01,4.657408846685477388e-01,5.272690729755885597e-01
4.735865999077606969e-01,5.324519355235405316e-01,5.391781122136883875e-01
5.088767374899990648e-01,4.980066844896794964e-01,5.087219845740987845e-01
4.778769098294528006e-01,4.713959251856368882e-01,5.249507895772778099e-01
4.365167160783409162e-01,3.968579580879101343e-01,5.418805728908918651e-01
5.585490298467128412e-01,3.864563467686547016e-01,4.953274347690785895e-01
4.587368945826196809e-01,4.850034553573630558e-01,4.311316746644375253e-01
5.238052643656430085e-01,4.152319065207323856e-01,4.875072603041772923e-01
4.530970019849333563e-01,5.062090450687959375e-01,5.781844761711131264e-01
5.149514784638891118e-01,5.569637161590119678e-01,5.481712818906493423e-01
5.226431565938909340e-01,5.114129591756321203e-01,5.197721210287251647e-01
4.769245409630443744e-01,5.131734551656212950e-01,5.516688675437111389e-01
4.343453385720240090e-01,4.825293223662636133e-01,4.297808136012786773e-01
5.079183745858056875e-01,5.263793256086800598e-01,4.876279260568031071e-01
5.375674024874960155e-01,5.022526357823000609e-01,4.285554439401375593e-01
5.699326195161452668e-01,4.668979371495281527e-01,5.136070814619808633e-01
4.613848838094499749e-01,4.873181777209024679e-01,4.930609430988806552e-01
5.477770949212290574e-01,5.173646102444998673e-01,5.441711915820670598e-01
5.295400609510245715e-01,4.480171073714812602e-01,4.913433888246065417e-01
5.276060769019322860e-01,5.989872725431536482e-01,5.031848254321464875e-01
5.163911834914937105e-01,5.188977319644493269e-01,5.037042490789105376e-01
4.693093350607127068e-01,4.754969657203017008e-01,4.600497894173334879e-01
5.170907175211324480e-01,4.466836649877550802e-01,4.520806061964596778e-01
4.456337075245047075e-01,4.544587217220242281e-01,5.672686804571770436e-01
5.004402725380424632e-01,4.871198224063638671e-01,5.133564640027247217e-01
4.989387278564127448e-01,5.303460977731412340e-01,5.099248352701651887e-01
5.570715465114832732e-01,5.069329436097289587e-01,5.100445546612170089e-01
5.075851033897706976e-01,4.150891426646947657e-01,4.593410963510489164e-01
5.195041366255251924e-01,4.942004506416904919e-01,5.291893141755111829e-01
4.790221155646233187e-01,4.963041322343072492e-01,5.496594334728137632e-01
5.080781135003867854e-01,5.159230833080752365e-01,4.914549869617455546e-01
5.508419700173816658e-01,5.656782860302839167e-01,5.283867317664633356e-01
5.311183270242703092e-01,4.697653436906866209e-01,4.875576662765840896e-01
5.326531681530000117e-01,5.114049340691343426e-01,4.892093464127504898e-01
5.137977250333346513e-01,5.059288614440915488e-01,4.466975365210850146e-01
4.264726447599589965e-01,5.018204381448709839e-01,4.774747573237534959e-01
4.898759993837176752e-01,5.984677073599351527e-01,4.819888183197381104e-01
4.670009236094633254e-01,5.214428009072908932e-01,4.900527692330161056e-01
5.104872204750127151e-01,4.248838885802685983e-01,4.595951886053971092e-01
5.001103348939990312e-01,4.760939137379802122e-01,4.212844749325014848e-01
4.398337710928727495e-01,4.766721786966859331e-01,4.925687212838830709e-01
4.937515172819114673e-01,4.836739397383902350e-01,5.201731168767411706e-01
4.842079468494452366e-01,5.470330370227703964e-01,5.113687953995266211e-01
4.993039967451575190e-01,4.466543326216853016e-01,5.407062296301738957e-01
5.371559084798636086e-01,4.759430824049677988e-01,5.172865862216828869e-01
4.772599175676245364e-01,5.825387784394697732e-01,4.897436631337659940e-01
4.492032730355656756e-01,5.277660689326367782e-01,4.726502059614981488e-01
5.624986492597217058e-01,4.458875944883179954e-01,4.566090643638327506e-01
4.437588594557366206e-01,5.107318884389066005e-01,4.255084096412954930e-01
5.915094415043691267e-01,5.047961557640028296e-01,5.898509199589403451e-01
4.938920612325101711e-01,4.845374233286022791e-01,4.364295668705410747e-01
4.359605256299381448e-01,5.905524928242874561e-01,4.826651558690733257e-01
4.713256504698888905e-01,5.160057117431996465e-01,4.610228474449742930e-01
4.379614792144549962e-01,4.525394350607161997e-01,4.712364946663871179e-01
4.595524118824824700e-01,5.652799596975158769e-01,5.165898240296543653e-01
4.303686614729139159e-01,4.829786685067822272e-01,4.819873083482095200e-01
5.366863864211761648e-01,5.235850392626171246e-01,5.237173186518233603e-01
5.814320643544320655e-01,4.461412470933590613e-01,4.798454209611941468e-01
5.455404545497044566e-01,5.562080629645383967e-01,4.801722638576342850e-01
4.519040256661015498e-01,5.013222985883653005e-01,5.317193787764367130e-01
5.122185165037465016e-01,4.928405902292676277e-01,5.122977608381436010e-01
5.371061637529677135e-01,4.825050011681364381e-01,4.348090218359801917e-01
5.779270528634953275e-01,4.960904565035579861e-01,5.664234681590084586e-01
4.947019282436826981e-01,5.321942409409308183e-01,5.144698290648566097e-01
5.068294602277967353e-01,5.108301781062487557e-01,4.744144661768881499e-01
4.488281186056956029e-01,5.226047270716858151e-01,5.687103390691241600e-01
5.298179913570447708e-01,4.684877453004467895e-01,5.030357008181502998e-01
5.775519727800513259e-01,5.169305265771313440e-01,4.560038319343051594e-01
5.430586517306625893e-01,5.018327541576459438e-01,4.946328956313940095e-01
5.432386129079245229e-01,5.236531146691840721e-01,4.803622770484810012e-01
4.820073414645983378e-01,5.205226482497842255e-01,4.409148080841764350e-01
4.705686262237810946e-01,4.717810844847125096e-01,5.140342703631005650e-01
5.328089891589065097e-01,4.914432275285782192e-01,5.521838912877639061e-01
4.715226943456151121e-01,5.772250253431293610e-01,5.117408163260249720e-01
4.814021571467962390e-01,5.455622415508802892e-01,5.628318592666364806e-01
5.248599791549742877e-01,4.986958571563231968e-01,5.396575063539591488e-01
4.576626378907736048e-01,4.706276554968897852e-01,5.211950828325599971e-01
5.734819528251644538e-01,5.120853111201246755e-01,4.966128224335152330e-01
5.333420218327287188e-01,4.989693252986037719e-01,4.768025516524213581e-01
5.655056740474738719e-01,5.147638926978367335e-01,5.728168453151942785e-01
5.199204523811832290e-01,5.279854763900270198e-01,5.315359126510283971e-01
5.513117659668435033e-01,5.212754580352221279e-01,4.634357315947243428e-01
5.523194712914222260e-01,5.605875834465663399e-01,5.034482668705948516e-01
5.228567505742217625e-01,4.583427637715781211e-01,4.959449967422682737e-01
4.802613751753024851e-01,4.724181429692246303e-01,4.675774033597547841e-01
5.291446724278937586e-01,5.226007588214887090e-01,4.601578084426110604e-01
5.096489974050121274e-01,5.000033618885704190e-01,4.529536628205130255e-01
5.053945373667665386e-01,4.633658153896967336e-01,5.457775054524198755e-01
5.382605470205993337e-01,4.997655213805193286e-01,5.167643512903533631e-01
4.493557090051756853e-01,5.324324237869233478e-01,4.706134294520485373e-01
5.003469856303116581e-01,4.374777906881157641e-01,4.801285641194234510e-01
5.422006114392577958e-01,5.149419109800679184e-01,4.836573070292249921e-01
4.793889479866642600e-01,4.588161728660507532e-01,5.214804558528666201e-01
4.183384484507624568e-01,5.181219752758229324e-01,4.678802778411771945e-01
3.984980050154066089e-01,5.566369638086803295e-01,4.886615801428307315e-01
5.400628905253046508e-01,4.295801008812686894e-01,5.620750043757448688e-01
4.965227109537350692e-01,5.134144032568002114e-01,4.357677695816609131e-01
5.086903103745434862e-01,5.023858998196635284e-01,5.187285725430682559e-01
5.677937863330548840e-01,4.412136364418866030e-01,4.341365822181359468e-01
5.063039387906250743e-01,5.090138080521923181e-01,5.067211969251249615e-01
4.536679793221793378e-01,4.966083728718188040e-01,4.514314378021845320e-01
4.839463639253046567e-01,4.395167599426223481e-01,5.733247748385540410e-01
4.887500902661632285e-01,5.569181847861683909e-01,5.687500091793304957e-01
5.052674576884615965e-01,5.479442465836671383e-01,5.283154380724792709e-01
5.340642209166673871e-01,4.832698068976545303e-01,5.074303183995669819e-01
4.952648577221147042e-01,4.731701654693551973e-01,5.097481271532348091e-01
4.768695975953465283e-01,4.608809043531781335e-01,4.744329069506221241e-01
4.771874917143529293e-01,5.605176185823002033e-01,5.599499565963603764e-01
4.653318921777697681e-01,5.390917636785241829e-01,5.495122669302481277e-01
4.768930706626288152e-01,6.183996919298082595e-01,5.633645656227729281e-01
4.752491181616187443e-01,4.968001141132409315e-01,4.992843034620385034e-01
4.443322281864866552e-01,5.203164718009462009e-01,4.139780400721232434e-01
4.678989121498031700e-01,5.418805405724885782e-01,4.965261262044659563e-01
5.080160843490491018e-01,4.893361909892986472e-01,4.949168466393175647e-01
5.392583207310065463e-01,4.963308002153861698e-01,4.981270549791093627e-01
5.015173555577014941e-01,5.172153972950643830e-01,4.630806636070852744e-01
4.908157136562963374e-01,5.088564606967743709e-01,5.550924466364445253e-01
4.812645861885812559e-01,6.431919571536430791e-01,5.862113312998064041e-01
4.807209764264436802e-01,4.643521398267090872e-01,5.328563661905262316e-01
4.677213665125612430e-01,4.247095479431845511e-01,4.653637862352313914e-01
5.300306109819203915e-01,5.486319249256891295e-01,5.233253093523076993e-01
4.713606786721858399e-01,4.539785054281512133e-01,5.344320829454747290e-01
4.893935215305527664e-01,5.031903706971514456e-01,5.615545656916439698e-01
5.315364466228493789e-01,4.783360842030614513e-01,4.698917225682377463e-01
5.863583959535595413e-01,5.110033190878321419e-01,5.030390925956222947e-01
4.988188892391990925e-01,4.547098399039111172e-01,5.493057124317302087e-01
5.611652504700352928e-01,4.365786764580425472e-01,5.498704454228242611e-01
5.349059078917126620e-01,5.008096059917727105e-01,5.933682668566666596e-01
3.879023454710953112e-01,4.994056098586331927e-01,4.898718363999633452e-01
4.624960756280515062e-01,4.436816248450077271e-01,5.335109705540843628e-01
5.403762348792120473e-01,4.856086387849580244e-01,3.999370274294818950e-01
5.110341799599773527e-01,5.263913950305919576e-01,5.010850792752690186e-01
5.720190820590619341e-01,4.626888567333470315e-01,4.381160589323496724e-01
5.239398301534874403e-01,5.461132829367707497e-01,5.505563836029064850e-01
4.912410710132095182e-01,5.188272126696603648e-01,5.203640689831791066e-01
5.396628487708556854e-01,4.641221356024398115e-01,4.791956189195375471e-01
5.092458586939899723e-01,4.970009785157328830e-01,4.989303191910855473e-01
5.145709936070622659e-01,4.201835054495798305e-01,4.940765431581749523e-01
4.976283913076452459e-01,4.675803269353198122e-01,5.241345930077296877e-01
5.961806140377668983e-01,4.705445243004857669e-01,4.877623970372564899e-01
4.905115031518362256e-01,4.610599235194441370e-01,5.151416798742158853e-01
5.054868257762042960e-01,4.421441297396455083e-01,5.379528788238248094e-01
5.247351920961931260e-01,5.333511671640140950e-01,5.183066987038237317e-01
4.417185607820868221e-01,4.638522932236279206e-01,4.734028609181352154e-01
4.261480593980778719e-01,5.124423717485692142e-01,4.778495397257827570e-01
5.336016847115233608e-01,5.370766641053232870e-01,4.833597897701868429e-01
4.668373844398095440e-01,4.104609795449129517e-01,4.789094311229230572e-01
5.509759475849435040e-01,5.052981503827036480e-01,4.815079724563968155e-01
5.185916522414386609e-01,5.168824481841106655e-01,4.705338166116313503e-01
5.474562065486495710e-01,5.593554547871473215e-01,4.955374830396829244e-01
4.442002779170977078e-01,4.915811059486049350e-01,4.576280057527656320e-01
5.266234040660809912e-01,4.564546975076235746e-01,5.128790809768755121e-01
4.432074475425619720e-01,5.318362094175356214e-01,5.049243063589671232e-01
4.739868390857117642e-01,5.462695034141648032e-01,4.945382470374766193e-01
5.441939121848068384e-01,5.502961691655814391e-01,4.823290149694130502e-01
4.655454625205937003e-01,4.714166058946491211e-01,5.498783215429581261e-01
4.818602918291816639e-01,4.793307104668222407e-01,4.752151490420546409e-01
4.875089330802263032e-01,5.334036092005041141e-01,5.015277532342868883e-01
5.318693381947806609e-01,4.154073855659293213e-01,4.655528316676846301e-01
5.215709295186017336e-01,4.917887674662229647e-01,4.917549020015099526e-01
5.062082616817620284e-01,4.958487191818711781e-01,4.518714248469276606e-01
4.624883479787249563e-01,5.214758905612711937e-01,4.993425635371318005e-01
4.889239157014546033e-01,5.126482008501750398e-01,5.525344740071007621e-01
5.116049191578541100e-01,5.256958327702103695e-01,4.699416545312785076e-01
5.062772538495519115e-01,5.180743950116656338e-01,4.896471315150630610e-01
5.070593193651284913e-01,4.562816445382937847e-01,4.797359726369271327e-01
5.206363255540148449e-01,4.471627352956175638e-01,4.606804965699472509e-01
5.327610754546379113e-01,5.599012612009336420e-01,5.108346800170066038e-01
5.352628401915082712e-01,5.355132196983306558e-01,4.669112327434357113e-01
4.720793090473139331e-01,5.302754618587253166e-01,4.629343491967288782e-01
5.210709368562056465e-01,5.591663734933097762e-01,5.412768244895576064e-01
4.916221899825830577e-01,3.673778828238383753e-01,4.950604502533100804e-01
4.801566373360177109e-01,4.938676854668245242e-01,5.575239487713747888e-01
5.146446480204165397e-01,4.934052934505045451e-01,4.166573068627045795e-01
4.506643493620787200e-01,5.050008757129026415e-01,5.888665060118968286e-01
5.067625591695350540e-01,4.466749017786101894e-01,5.044554011977778751e-01
5.373445737858530968e-01,4.504177020728420411e-01,4.800279288236115049e-01
5.002079415131803763e-01,4.960287960103379468e-01,5.087075776878355882e-01
5.327248635285777301e-01,4.937035607426380479e-01,5.171411679896890101e-01
4.266948298894420732e-01,4.882705279305529777e-01,5.182910292967922716e-01
5.339194805372992070e-01,5.725602079063875083e-01,4.754507682867910034e-01
4.942889372878765952e-01,4.850943162620752203e-01,4.619930091211800205e-01
4.977904430069484132e-01,4.915289813031144539e-01,5.266814213570280012e-01
5.010508975499115003e-01,4.804405474540002219e-01,4.721314294373551435e-01
4.355158906099286242e-01,4.489310701308141249e-01,4.334498310241638452e-01
5.583077984743801681e-01,4.051269412592661823e-01,4.753193856778288318e-01
4.640580653870193251e-01,4.937742056548168335e-01,4.789424812196382830e-01
5.309238672775462575e-01,5.022420059352823429e-01,5.898862598630468801e-01
5.530805782440222362e-01,6.075801322355247613e-01,5.069877369305052506e-01
5.271017777685048644e-01,5.012858588369337731e-01,5.360443852023397682e-01
4.957763494490311507e-01,4.902283302909470897e-01,5.145932860833670741e-01
4.789955511547154821e-01,5.342228507854944741e-01,4.932965760805415600e-01
5.457226988519396915e-01,5.097531598431809252e-01,5.377664903033847477e-01
4.998221800136433135e-01,5.242107600693692859e-01,4.982492337612813293e-01
5.597229887229677736e-01,5.402399865034670512e-01,5.624663581724851369e-01
4.959869265750650458e-01,4.245022878855695958e-01,5.391735898363497759e-01
4.974836919751741693e-01,4.530000463948377631e-01,5.256110768143242851e-01
4.607144594569881346e-01,4.841772882033446579e-01,5.296089194353541529e-01
5.384526435326060234e-01,4.260039910151747766e-01,4.879462384871546266e-01
5.036674602909944065e-01,5.242369900149095319e-01,4.944848156466560285e-01
4.909880171259119463e-01,5.699207016234267842e-01,4.803510562766599712e-01
5.105324141234572899e-01,5.317224995246053743e-01,4.804237025601465483e-01
4.969758463541664173e-01,5.789678009338702358e-01,5.317152792820024620e-01
5.042081602110336513e-01,4.914612518366627270e-01,4.025359723573801451e-01
4.815656465782881535e-01,5.303615300764015217e-01,5.507510661419353637e-01
4.979711591535582738e-01,5.929881782343964236e-01,4.562385505474758629e-01
4.540605090418947665e-01,5.244069726008641075e-01,4.596216663608672093e-01
5.284791943673473602e-01,5.040850053642506046e-01,4.576553494238300157e-01
5.316156168206729316e-01,5.308783686221808518e-01,4.821351600548886007e-01
4.406691588992688313e-01,4.612579202382635635e-01,4.882796235542243846e-01
5.522470040925194779e-01,5.479225526963152904e-01,4.635059781809876545e-01
4.457562601040380157e-01,6.252325770659914461e-01,4.957287195476207664e-01
5.022922765105066745e-01,4.934458010766568647e-01,5.196462893761908397e-01
5.488859914965835696e-01,4.179651245038532581e-01,4.793315059131208478e-01
4.806474620014424270e-01,5.280396124274272518e-01,5.237087378524171166e-01
5.121874310113012640e-01,4.626975766676835189e-01,4.579738642270298477e-01
4.840229412585735913e-01,5.215004270757694904e-01,5.645142495182505771e-01
5.079703224265554873e-01,4.941433793166569721e-01,5.201238927927144262e-01
5.400072940603640737e-01,5.165087278883142563e-01,5.481161301410123476e-01
5.213969846810360131e-01,5.408635750861351399e-01,5.316196731152803556e-01
5.022976710888905627e-01,4.967009985669403882e-01,5.100703221246916108e-01
4.504590498110909169e-01,5.227850168552014010e-01,4.636722525958763552e-01
4.924217377123699668e-01,5.241886486018740854e-01,5.298030272735320123e-01
4.972742366048478746e-01,4.853740047758561826e-01,5.067492699539869472e-01
4.930631962975555171e-01,4.872974189295705139e-01,4.633328014423655494e-01
5.760043721449317200e-01,4.531633812107752624e-01,6.368957411562411464e-01
5.322358538669317296e-01,5.150212668195983667e-01,5.278184876545577442e-01
5.966184606744510122e-01,4.502844499884161578e-01,5.468951810619867571e-01
5.378809440107308326e-01,4.252653584113585961e-01,4.951903042583578607e-01
5.618287008533328075e-01,4.712904158648612563e-01,5.481500520088661288e-01
5.627373628958677321e-01,5.369210356265016193e-01,4.557278885046697203e-01
5.026807589224734363e-01,5.152607736470528055e-01,4.631559669871914142e-01
5.231796739388664408e-01,5.163299471106166383e-01,3.941641846977787522e-01
4.044883782186347587e-01,4.645894057696249302e-01,4.846649982951823921e-01
4.368055043885974431e-01,4.984602417144663455e-01,5.653298604405186945e-01
4.745629527829364203e-01,5.913378964667103110e-01,5.294338630947282853e-01
4.985930146583732459e-01,5.055177734913709475e-01,4.851943406329345398e-01
4.914621729560301744e-01,5.429610492337560990e-01,4.656565548999647142e-01
4.379129514049490690e-01,5.353847409443059924e-01,5.098855285449900299e-01
5.041176925437679257e-01,4.438258530540619695e-01,5.545360084256016897e-01
5.142102299237620855e-01,4.624954101323692224e-01,5.781264358781095236e-01
5.449858200393843388e-01,5.044034296047287258e-01,5.299654089059051554e-01
4.800463955761879453e-01,4.707281811003509175e-01,5.479257107353200373e-01
4.558043250478975295e-01,4.995369206374211113e-01,5.369312781651324196e-01
5.555258896109721567e-01,4.740589288914837107e-01,5.103047360392627407e-01
4.427456451447633334e-01,5.586091112647028067e-01,4.518332894901558872e-01
5.228853233494535901e-01,5.397858435631738283e-01,5.303605365553515361e-01
4.835467691798375212e-01,4.565190286610059101e-01,5.272494455889203957e-01
5.993551476599738859e-01,5.240985321316851131e-01,4.901454745821804959e-01
5.607079378815633675e-01,5.558611769087012933e-01,5.040695681735831712e-01
5.590985937710909459e-01,4.768214870226774593e-01,5.173089186096404557e-01
5.334470598650784545e-01,5.001747252900153873e-01,5.249904241379522718e-01
5.506020292984404874e-01,4.764232486953681733e-01,4.794267704088439053e-01
4.526685229772779984e-01,4.954868305207670298e-01,4.352946539227135481e-01
5.169551113814306875e-01,4.682390208781511132e-01,4.191300409789865400e-01
4.831969259561987862e-01,5.386516581206456378e-01,5.005741254497940718e-01
5.128691814947740069e-01,4.695226830322056233e-01,5.120976303769214644e-01
4.282930983571684447e-01,5.520974900236718108e-01,6.085901691535238189e-01
5.434238964779378733e-01,4.972006542803389384e-01,4.817665982808180813e-01
5.221537021739719453e-01,4.886337003484096386e-01,5.050093338344328053e-01
5.134734838158516723e-01,5.025351771546151536e-01,5.614435047279300317e-01
4.517891261285855165e-01,4.908074697331862857e-01,5.928720267530469545e-01
4.175416564195084113e-01,4.777030121040151123e-01,4.766466024610463981e-01
4.947781925322649044e-01,5.383684284328831282e-01,4.859001297930982677e-01
5.300825534603658129e-01,4.743465713118447113e-01,5.165822818905181357e-01
4.795009314085995622e-01,4.477713484209761563e-01,4.260111330880493319e-01
4.278884046413873321e-01,5.369989448539244092e-01,4.811089605424754279e-01
4.778078003652451722e-01,5.380835803841707010e-01,4.996364548691888952e-01
4.540563428947080871e-01,4.828103132932846098e-01,4.617476610231274758e-01
4.327257287867460889e-01,4.726449436180490959e-01,4.984687412382686200e-01
4.369510198299287329e-01,5.172542696451710720e-01,5.579099690884395946e-01
5.603968915259295303e-01,4.489667694045756385e-01,5.487832300498481919e-01
4.782998554166786320e-01,4.811756113281707159e-01,4.956504240039368847e-01
4.708021983266706956e-01,4.623683188630534624e-01,4.399267652156593211e-01
5.242741726861362972e-01,4.883119327672392207e-01,5.486322917840501523e-01
4.705877864749068995e-01,5.091111141316091437e-01,4.845295818559100520e-01
5.240973997950095775e-01,5.102770243111853787e-01,5.486038207374772657e-01
4.245247189730608772e-01,5.694805834398906086e-01,4.826879882218568785e-01
4.819549344632471088e-01,5.228152853985245097e-01,4.619337559031863050e-01
5.491752254252970644e-01,4.428190129957677579e-01,5.868885791325914036e-01
4.303909669689356954e-01,5.893965710045635520e-01,5.897446405680604187e-01
4.918272438647670053e-01,5.405138165219322000e-01,5.607163472668782456e-01
5.097029249098420367e-01,5.161148487833754350e-01,4.343390963446179809e-01
5.422786912067387721e-01,5.130949713145027680e-01,5.107097952330241775e-01
5.054730849069379861e-01,5.088027566215577169e-01,5.293930185612530925e-01
5.103976256785875965e-01,5.473396811019167751e-01,4.819212653264879354e-01
5.130941087578744231e-01,4.406219520870409134e-01,5.558659767827393017e-01
4.422258867402741878e-01,5.040506835579200429e-01,4.779533828328003664e-01
5.432724485826825322e-01,5.149833870068217800e-01,5.177280364994273354e-01
4.652183693743690007e-01,5.097485513053660044e-01,5.394820757569481762e-01
4.648178449145105584e-01,4.957840856665520768e-01,4.953785166060980516e-01
4.708375862761952080e-01,4.919711944152647121e-01,4.386444542912549815e-01
4.993432083820525946e-01,5.583957168435312868e-01,4.915515545567490929e-01
5.886329326025201425e-01,5.098584433486776923e-01,5.155367228598090046e-01
5.300535898637955823e-01,4.985216875922599544e-01,5.382739988401684661e-01
5.603576736402959835e-01,5.484022719652223987e-01,5.390870385070535287e-01
4.659815812401409962e-01,5.486890549659952931e-01,4.541134028680063883e-01
4.855984872656757823e-01,5.120173535519660923e-01,5.559676503264417979e-01
5.761619685594717710e-01,4.863793505603015155e-01,5.378570464935874540e-01
4.511997839300569968e-01,4.361407474194359812e-01,5.073897770348821945e-01
5.121311416511260539e-01,5.884976175698261036e-01,4.795113951415390097e-01
4.947235238884702957e-01,5.002082855289831098e-01,4.405463452053614004e-01
4.602179528633433825e-01,5.231891959294757699e-01,4.741117818007954399e-01
4.505390606421734168e-01,5.161429771175649606e-01,4.566496749067520677e-01
3.742319811369931859e-01,5.231393254787546354e-01,4.654950858561243687e-01
4.741473661330843359e-01,5.829065124391243913e-01,4.644782485589210586e-01
5.018184547160481346e-01,4.890173330044237932e-01,5.315328884916875607e-01
4.386200039594414513e-01,4.884164584198303904e-01,4.715344040737601272e-01
4.748372679121590223e-01,5.691154189515543749e-01,4.536631624449817823e-01
5.138603910735383140e-01,4.278330932683925836e-01,5.136513954721190212e-01
4.849911198935503154e-01,4.711112448622967741e-01,4.665233345062417269e-01
4.635667546687917695e-01,5.649804431607073907e-01,4.928607877806405191e-01
5.555568317404504519e-01,4.792322770834744894e-01,5.144376932099874455e-01
5.660229190048047254e-01,4.512763586978765229e-01,4.582585386541828676e-01
4.800590077847475823e-01,4.973394982339910952e-01,5.634090298834144583e-01
5.468162312875980424e-01,5.172905598724137910e-01,4.562907167780635986e-01
4.596013999832887498e-01,5.738787681674061281e-01,5.041514975794667563e-01
5.092951598093274912e-01,4.847507982441988661e-01,5.018525571772960436e-01
5.084971985688033769e-01,4.476504231595355709e-01,4.832414924887895591e-01
4.775546375691042678e-01,5.039096403641696309e-01,5.074391139297533826e-01
4.734552253324025850e-01,5.251288384599033243e-01,5.224300997886281994e-01
4.701448166846844967e-01,4.723408995075017991e-01,4.435460586787769999e-01
3.596549389414059883e-01,4.639575145154782310e-01,5.511273549089696910e-01
4.755214461731225861e-01,5.805608973004681150e-01,4.766801455732159187e-01
4.851405624403078987e-01,5.163762789779473561e-01,5.641951915656543415e-01
4.301326710748011872e-01,4.376356520063231503e-01,5.548954568306027069e-01
4.965854290115074288e-01,4.671442808342763930e-01,5.234348829610231402e-01
5.205334872744969976e-01,4.806721637378408296e-01,4.934000279080359985e-01
5.027100702134409405e-01,5.798956769641812059e-01,5.044911862960258508e-01
4.522587460594114650e-01,4.782065013098615314e-01,5.324824318200921391e-01
4.498587917407748105e-01,5.164053221863910137e-01,4.860518897114737835e-01
5.246253884821671098e-01,4.917704650778750852e-01,4.752421639215226312e-01
4.780558367440476686e-01,6.030266807312457678e-01,5.317170813845475408e-01
5.122941866728857319e-01,4.998512599154922853e-01,5.323383370787456714e-01
5.588177472487759756e-01,5.284848005823424844e-01,4.731411501309484291e-01
4.585386848953431627e-01,5.588993452666272121e-01,4.154401240043438248e-01
5.207318165963606971e-01,5.585586707206132706e-01,4.747158043620740009e-01
4.859707453142784739e-01,5.142629077110164593e-01,5.430002246475126304e-01
5.546264704785216493e-01,5.253342055173526592e-01,4.800549905509973736e-01
5.795523683688585947e-01,4.963780287417612902e-01,5.072467599582042297e-01
4.866083432556019828e-01,4.384393033946197282e-01,5.400661561520009313e-01
5.093869489871610812e-01,4.798643562088074632e-01,6.388563154790354304e-01
5.405461670602698110e-01,5.515374120024167937e-01,4.997646887874964694e-01
4.667709560166595217e-01,4.874988943840950495e-01,4.415998009704666938e-01
4.992653030206763987e-01,4.718634864955986163e-01,5.007888096892361141e-01
4.759708859982267892e-01,4.745356264779952982e-01,5.015513026272149233e-01
5.213056673972890076e-01,5.463177633328801797e-01,5.127697438776217531e-01
4.270065801209622647e-01,5.066136570961441432e-01,4.766295021843026114e-01
4.583555628894797618e-01,4.195418624567864296e-01,4.370692332181008166e-01
5.061847646296376846e-01,5.266660660471236266e-01,4.939362202700833260e-01
4.570243748069878764e-01,5.418436864443791912e-01,4.822151190175651969e-01
4.366331952892625878e-01,4.888539358163220827e-01,5.121187123838080169e-01
5.016739813178825447e-01,5.962384159739237965e-01,3.689141428207556861e-01
5.190572911828922331e-01,4.293248728367333178e-01,4.823776842507062068e-01
4.616789061607540212e-01,5.961959502506275488e-01,5.595715115071215884e-01
5.344758182559181670e-01,4.759151429816727008e-01,5.055873232751503243e-01
4.978982118993960926e-01,4.100913723295016022e-01,5.083415213144516498e-01
5.412965761571679746e-01,4.780266614182912543e-01,4.604912164278187614e-01
5.084934998721102328e-01,5.064373990776079859e-01,5.711648937346800459e-01
5.912088080593517203e-01,4.546258823132802718e-01,4.246821710404704575e-01
4.857608990442647823e-01,5.729774545151815612e-01,5.565527555003825233e-01
4.718722173545362164e-01,5.109081028007405045e-01,5.166839417433615189e-01
4.960656142667667634e-01,4.979350699929216972e-01,4.538909480090342896e-01
4.238074633656991885e-01,4.869072474836841358e-01,4.523838474488492967e-01
4.540797724157843995e-01,5.643485374018296641e-01,4.903822749949682258e-01
5.215458012123130871e-01,5.025004627175992944e-01,4.104667181498750650e-01
5.161653798124634651e-01,5.209319676173180813e-01,4.877431628835277588e-01
4.812465519744875131e-01,4.410254464399177565e-01,5.206598596235807452e-01
4.841817979159364072e-01,4.689159153536426872e-01,4.813453850790425093e-01
5.079612804694223493e-01,4.870553549058275200e-01,3.662816318463095744e-01
5.163336297477923997e-01,4.546015691244821300e-01,4.081171453021448237e-01
4.891950704108030679e-01,4.817688078948698105e-01,5.333040621962821248e-01
5.242956789425997632e-01,4.720896776969971675e-01,5.497138934527053822e-01
4.591830676976564884e-01,5.342685564328090164e-01,4.180420154518684206e-01
4.547449953268771772e-01,4.933255941167503100e-01,4.559976135948881626e-01
4.732906070949544075e-01,5.073560343941074802e-01,5.143082215959374759e-01
4.798214202706977405e-01,5.421951584031950988e-01,5.227656784015936031e-01
4.606248384069099311e-01,5.016244550870733176e-01,4.969280805663442435e-01
5.212423786866932085e-01,5.346782071401202652e-01,5.953974251583614707e-01
4.838969731745723646e-01,4.949267187476354413e-01,5.501369649693808039e-01
4.817829321056913972e-01,5.332963032312688645e-01,5.246142001105863484e-01
3.873528324122292310e-01,5.586874880208758665e-01,5.619973680814253081e-01
4.858233488286828328e-01,4.231479396033530627e-01,5.601081318518869034e-01
5.095838850114031704e-01,4.422397487538781702e-01,5.329238301551941781e-01
5.447204463523735996e-01,4.726518463636544820e-01,4.923162223186112185e-01
4.456814014572804128e-01,4.830759427896589853e-01,5.602285529667685449e-01
5.246683876622673104e-01,5.497756657785952683e-01,5.899588447400944125e-01
4.696740606498576720e-01,4.158479410535747545e-01,4.872162884361718738e-01
4.671043934653300034e-01,4.643933069910391453e-01,5.129900448069217855e-01
5.202439064654700296e-01,4.929095920992976887e-01,5.167409703770683427e-01
5.325048281613700141e-01,5.129715865697546118e-01,4.795976999809420382e-01
5.007078214102725910e-01,5.681594796279515469e-01,4.727139945834396006e-01
5.380368390102086007e-01,4.843689282720576861e-01,5.601269333706185849e-01
6.002216253624140796e-01,4.856486372296724419e-01,5.392413461654502749e-01
4.367603863433430211e-01,5.257731756749495222e-01,4.997410542837138481e-01
5.437515184796457568e-01,5.340980325472650669e-01,5.419986093763026203e-01
4.926774685818139377e-01,4.999937079543541052e-01,4.634796966376583671e-01
5.399360161075711373e-01,5.263397912533511747e-01,4.385679727969843955e-01
4.552645725862703996e-01,5.803069947251965344e-01,4.565999649905205238e-01
4.978594364829139196e-01,4.193460664519761960e-01,5.407789731169422298e-01
5.063321270811528274e-01,5.401428961327302547e-01,5.406566386700069060e-01
5.156060288958310700e-01,4.778597392555716805e-01,4.354173076260174358e-01
5.125273662361375937e-01,4.839291643069330573e-01,5.332141157085834582e-01
5.229606939822180056e-01,5.489607614889157050e-01,5.157316490177047408e-01
5.732811403684738849e-01,4.923218213968470480e-01,5.104647980725414147e-01
5.345053609054626342e-01,4.632251186581209934e-01,4.557196426034471060e-01
4.870817418122436182e-01,4.056930647538017909e-01,5.462510192057875580e-01
5.074697196140265376e-01,4.879168148349793954e-01,4.588078929857513089e-01
4.643817159457047095e-01,5.680954575135750417e-01,4.644387979636415698e-01
5.243531752029105819e-01,5.126145116892120157e-01,5.044127487938360188e-01
5.170047213746263859e-01,4.442832852125796483e-01,5.411158461587306512e-01
4.585508550219924429e-01,5.303880276540463568e-01,5.062404362483156062e-01
5.136730509690943247e-01,4.314527631817339226e-01,4.681498059052908167e-01
5.028665567407732961e-01,4.876942316920539477e-01,5.426603379937129379e-01
5.482412962467377859e-01,4.873984932357657840e-01,4.528109034138913525e-01
4.832499312446830175e-01,5.224530384022075813e-01,4.467593149883057335e-01
4.976205094628209369e-01,4.752337043254128979e-01,5.534627961335739643e-01
5.081416182928932823e-01,4.818839473768167792e-01,5.086373862977700000e-01
5.595714551400521319e-01,4.587815707233737772e-01,5.447671221004171116e-01
5.464154203463660320e-01,5.043048455108325445e-01,5.216368558372413977e-01
4.504918927199626499e-01,4.804633068658207273e-01,5.405657793450953097e-01
5.316491482068216312e-01,5.363571221706459058e-01,5.361412163647492068e-01
5.469321638139366115e-01,4.824904117474828613e-01,5.304336419607026398e-01
5.264501907234893086e-01,4.893057117967455349e-01,4.680813259976037699e-01
4.187640207732543085e-01,5.112535949470445873e-01,5.588459940123917669e-01
4.719719714950078582e-01,5.184722476215093412e-01,5.049269902494895046e-01
5.217654029249551018e-01,5.245880828953690678e-01,5.204251009003210138e-01
4.514861230566754036e-01,4.876367976600272103e-01,4.761633899879788578e-01
5.582554124542711271e-01,6.044737836898544936e-01,5.677623340442256028e-01
5.389571162507005297e-01,4.300856900018490414e-01,5.631334850638559653e-01
5.013290579195508467e-01,5.142963899918588933e-01,5.073574512541974002e-01
5.121483241271606035e-01,5.144279207989638225e-01,5.585435752395634390e-01
5.505482404814087127e-01,5.170529309828666431e-01,5.201828540589442662e-01
4.576995474872367908e-01,4.726611151557141288e-01,5.122249242280644266e-01
4.875781400745927141e-01,4.700124392257690187e-01,4.209923503729137151e-01
4.498194952171308270e-01,5.040373844158159145e-01,5.297907913582839967e-01
5.862820128037643519e-01,5.042887847118696643e-01,5.141371139115785693e-01
5.407934722136630290e-01,5.759595245832004329e-01,4.770675206254835765e-01
5.210844440142103906e-01,4.702594982472891871e-01,5.246325218328906637e-01
5.314926382147159289e-01,5.159889066581168082e-01,5.122321204499988845e-01
5.247866465846093842e-01,5.324559794178370664e-01,5.113016726457647598e-01
5.109141450654125505e-01,4.266378288525188855e-01,5.046110058215208527e-01
4.683263131842113070e-01,4.908515701903507500e-01,4.492315152084545571e-01
5.490883841194023063e-01,5.736602253946694319e-01,5.493378183117990643e-01
5.302888619024087591e-01,4.238028256201244459e-01,4.885936076981359788e-01
4.491388704488095684e-01,4.300630739845263117e-01,4.121730641963866626e-01
5.237675084565279748e-01,4.987483165410289687e-01,4.551648042391532312e-01
5.540135918793269720e-01,5.433183805623761353e-01,5.128512552512820566e-01
4.886818478731549953e-01,5.531610040965436736e-01,5.113340822169637478e-01
5.287462296775156112e-01,5.355332044335611164e-01,5.398252975865642789e-01
4.944751366311179730e-01,4.607971552767242684e-01,4.757440802930887336e-01
5.330491064809119717e-01,4.943187500878329921e-01,4.747438408109446728e-01
4.466952464602104711e-01,4.910667494744584416e-01,5.301242095471931925e-01
5.104712354308919009e-01,4.201037319496700451e-01,5.409764039337852104e-01
4.961718365301611700e-01,5.321911060571122842e-01,4.233772087011106189e-01
4.383859284920684773e-01,4.650527476002389582e-01,5.459385130085662174e-01
5.815509773057003784e-01,5.063731230831999275e-01,5.060114423158847963e-01
5.334305319385685973e-01,5.043000342183995288e-01,5.024764941775561322e-01
4.914702263216991773e-01,5.241381619025711203e-01,4.483099991535709483e-01
5.237202498614128565e-01,4.944054871735994450e-01,5.508698580531268263e-01
5.339046798447242281e-01,4.514925913094280374e-01,4.785624124481477337e-01
4.644766039645050193e-01,4.888955136483374431e-01,5.325393533982394345e-01
4.898264555482250704e-01,5.937773391194065553e-01,5.759201685609799393e-01
4.746547746845835580e-01,4.734420998977784678e-01,4.789181000809207833e-01
4.349951585886220329e-01,4.040623211879072474e-01,4.921166166095359840e-01
5.558041301338821905e-01,4.858667838587746868e-01,5.270966341512032249e-01
5.496177589370048189e-01,4.965688526401108582e-01,5.867558676379946991e-01
4.859983985577891463e-01,4.795631923943350916e-01,4.714167068672018845e-01
4.707182634514578967e-01,5.480419053985355893e-01,5.317506907799407490e-01
4.775984351907723302e-01,4.995433935744765797e-01,4.716863628545376885e-01
5.431158123018999806e-01,5.096059720506106450e-01,4.935774990488479563e-01
5.080261908661443115e-01,3.965269007870698137e-01,5.310282761782755268e-01
5.388092088859586237e-01,5.493653969941396653e-01,5.176661721311743847e-01
5.055407908340252554e-01,4.669918524082014022e-01,5.149157942401247912e-01
5.908536503604131518e-01,4.933209553471448738e-01,5.103571075415128666e-01
4.896244500179977588e-01,4.629255832127704973e-01,4.401846981896613276e-01
5.109040760064833542e-01,5.507209543140147989e-01,4.839377826156439633e-01
4.648376304830655892e-01,5.024650234250483960e-01,4.534866490718519327e-01
4.971928803632305605e-01,5.218531651266488103e-01,5.152569888817342125e-01
5.469806752128633098e-01,5.005646049404773867e-01,5.176739896453921297e-01
4.853661150279203196e-01,5.318364647052067351e-01,4.379371164086990897e-01
4.276146496033132460e-01,4.606633638372728545e-01,4.926487209819394586e-01
4.574652830718849983e-01,4.694180569296237948e-01,4.993504203818783238e-01
4.954738858548293767e-01,4.998759104767906414e-01,4.661972118362021078e-01
4.966309271045645235e-01,5.333971789178242329e-01,5.214346403598547619e-01
5.000716288168445267e-01,5.264411359397499490e-01,5.267596753262036025e-01
4.412716734073552360e-01,4.366363286843714109e-01,4.634648786321184932e-01
5.112176806003863039e-01,4.569988284985231908e-01,5.316982466369595262e-01
5.183989399084288907e-01,4.324240436485627948e-01,5.047089890067212314e-01
5.592671631694089429e-01,5.615232786385453423e-01,4.453303948733620676e-01
4.967843769075293014e-01,4.685764723827438027e-01,5.355514537762109395e-01
4.596614754832687999e-01,4.997010886204401592e-01,5.300756946196369945e-01
5.195137218200989171e-01,5.018816631171639786e-01,5.143315305889480937e-01
5.467059136202833125e-01,4.531416929872024713e-01,5.664539633102008143e-01
5.200100403607428312e-01,4.891836935049668766e-01,5.035230443404008494e-01
5.449734682027465027e-01,4.514038761946008171e-01,5.418341875948629038e-01
4.586081956993165454e-01,4.234081616706453222e-01,4.677188466190298488e-01
5.114925505612950563e-01,4.178834528996888120e-01,5.564683225024878999e-01
5.339311029430163780e-01,5.235332428666653604e-01,5.061536831062452002e-01
4.785079097653299751e-01,5.517688366873665373e-01,4.702168994651618195e-01
5.021250551649142357e-01,5.453789781692964800e-01,4.919056979254570194e-01
4.626311770932775014e-01,4.599072125885804718e-01,5.363477535881748803e-01
4.425220088128046791e-01,5.560617889717650586e-01,5.510741364259288400e-01
4.639278492444873780e-01,4.923910613707609407e-01,5.183598870564501970e-01
4.514898754501792122e-01,5.339708459297959342e-01,4.777117932575802861e-01
5.140172158476360442e-01,4.934235359306541890e-01,4.520327049151595111e-01
4.139307496362838457e-01,5.322605856709528016e-01,4.696536467950003790e-01
4.628387842739775659e-01,5.127399422795271278e-01,4.319938331855096014e-01
4.931830712202265876e-01,5.451090986764915991e-01,5.285637012356082520e-01
4.728652500131630965e-01,4.842778326267008771e-01,4.954412063156191648e-01
5.007047635658876672e-01,5.446843320357441787e-01,5.370126064638977015e-01
4.554085903467998131e-01,5.201390100680937101e-01,4.565323305425462719e-01
5.100347139830918586e-01,4.909866691833953412e-01,4.934225164081325055e-01
4.716984200672985628e-01,4.783926084629904207e-01,5.553612246658941043e-01
4.917618559481621854e-01,4.870692813992493209e-01,5.453585565670261426e-01
4.947843349551724335e-01,5.425332962638402812e-01,4.947390628932106238e-01
4.555599648619237385e-01,4.334616012326409362e-01,5.335778151161664207e-01
5.762482914516671162e-01,4.803304722123469817e-01,4.139533649064861542e-01
4.571293656320861154e-01,4.935283729790301832e-01,5.101230120974961091e-01
5.088327854419975038e-01,5.527419569167837388e-01,4.851873891095590530e-01
5.268672170497907814e-01,5.500682682520295907e-01,5.094244861815311332e-01
4.771798360116867865e-01,5.527545295762988919e-01,4.734401290995690070e-01
5.464673018947778793e-01,4.411036772714649890e-01,4.574947175619209494e-01
5.513985030163106593e-01,4.621639499978221766e-01,4.862110324458167598e-01
5.747703251496779631e-01,5.094263191797314683e-01,5.018570863262986625e-01
5.492978176609417673e-01,4.608205514347516463e-01,5.929474179048483951e-01
5.527506849228787100e-01,4.912533345354123115e-01,4.816767922697487991e-01
4.059809234320564952e-01,5.360359968672853137e-01,5.176937303921272937e-01
4.719554351606380926e-01,5.296914538389945193e-01,4.925498069034650039e-01
6.258846500380061961e-01,5.165189732902283337e-01,4.879630059293055266e-01
4.927843784047101217e-01,4.346931096780626835e-01,4.551384042534795116e-01
5.746899255903306081e-01,5.260171471891668116e-01,5.788317617296881989e-01
4.777264400704295810e-01,5.086218505377773091e-01,5.396583652889872518e-01
4.341599030734467068e-01,5.162436204132448969e-01,5.163928290541538457e-01
5.387967438101733952e-01,5.260903067841569136e-01,5.838113586624547047e-01
4.315978463678548649e-01,5.015211111560902157e-01,4.994312108631952518e-01
4.410741887625957980e-01,5.237586862389081999e-01,5.420638518694157471e-01
5.195543902814426795e-01,5.483791241976038178e-01,4.853178548017311744e-01
4.770293510728386144e-01,4.954581977414509453e-01,5.296234794764366205e-01
5.158471143908859302e-01,5.111887016685746632e-01,5.950696704700614292e-01
4.803423729982981283e-01,5.264952108830653899e-01,5.532791518568688227e-01
4.478371395396562038e-01,5.026137832860273491e-01,4.626740449028278190e-01
5.622752353909131751e-01,5.001934078401735206e-01,4.752156340993867190e-01
5.162240776781751306e-01,4.924774469219486694e-01,4.258630400200211219e-01
4.560134747228073437e-01,4.614378364750854611e-01,4.397825751683188678e-01
5.132818123293803048e-01,5.124299017464147843e-01,4.475181920970285332e-01
4.854145281939571954e-01,5.331766428557305204e-01,4.593514807263918143e-01
4.875354777906568127e-01,5.029267284608888167e-01,4.964603203244271068e-01
5.181004513180543780e-01,5.353064085020856622e-01,5.075714106893605138e-01
5.324097440071178244e-01,5.605779071435184058e-01,4.437017500739791620e-01
5.165809137745935864e-01,5.209672448282953727e-01,4.623748558034295186e-01
4.872913008628398379e-01,5.524333743084283155e-01,5.339849653123101003e-01
4.823945977460167844e-01,5.759969247496892208e-01,5.232531474251241876e-01
4.953116541491223157e-01,5.506869217734146060e-01,4.878504945392973524e-01
5.021271740231308955e-01,5.505446327726823963e-01,4.644532851924516592e-01
5.461006986322002321e-01,5.216268743490221071e-01,4.864691140947636772e-01
4.708972942317058985e-01,4.290625115624648322e-01,4.649813488265975847e-01
5.743634549109720711e-01,4.081278806043974750e-01,5.443443607219354829e-01
4.692363025439387214e-01,5.772682491529768090e-01,5.717547069855143382e-01
4.444290516765319610e-01,4.984242809407135599e-01,4.745340987630687346e-01
5.587903595415540936e-01,4.826546248382454496e-01,5.439168596741774664e-01
5.013184149192111416e-01,4.561359739846791439e-01,4.246995392844233330e-01
5.275844966933849189e-01,5.772393414049594718e-01,5.029962333889224091e-01
5.565657620331468936e-01,4.948919218559079125e-01,4.925302497900513887e-01
5.045116742622014483e-01,5.771133760924066491e-01,4.476894925890543275e-01
4.907599507449676435e-01,4.731239812875822626e-01,4.816872988165402103e-01
4.535461402220636873e-01,4.901536016975948651e-01,4.803354402322957406e-01
4.501726692588394751e-01,4.499572201826420592e-01,4.479651513841474975e-01
5.345000800033764543e-01,5.568962268319529452e-01,4.817629788642570632e-01
4.815370457127393644e-01,4.939940205796191086e-01,4.341022931030829590e-01
5.101985822005371540e-01,5.190463158373349595e-01,5.153090873252312853e-01
4.833337463378464260e-01,5.852843993012885049e-01,4.245127409712425304e-01
