accel_x (m/s^2),accel_y (m/s^2),accel_z (m/s^2)
-6.014324916826791281e-03,1.955030626804476340e-03,9.797649081643973190e+00
-1.708697289261559274e-03,2.863248462055726458e-04,9.790105298773621456e+00
5.042374232177509498e-03,-4.770775347819018047e-03,9.796231791278652068e+00
-1.341544014242539943e-03,7.731940001609050213e-03,9.792317350920184182e+00
1.138130404116559705e-02,-4.348150688793388056e-03,9.797154599015973631e+00
2.882460618844780425e-04,-1.273480282909899078e-03,9.789764429057347783e+00
3.123818142028483152e-03,-3.007357134682786190e-03,9.799147581694366949e+00
-1.656236774351472867e-03,1.401577625079768316e-03,9.803652692928761070e+00
2.363356580512684414e-03,4.770776498367001973e-05,9.803347334493606624e+00
-1.318651642409011948e-03,-4.677910513398162926e-03,9.795816972301635062e+00
1.644391986585619337e-04,-1.299194907546855201e-03,9.789273456916705030e+00
4.104743994954217212e-03,2.292853653966751490e-03,9.805879140591169829e+00
7.752670037701884717e-03,2.412442815355402437e-03,9.793793089531472873e+00
9.152099823902169707e-04,5.347367990429443760e-03,9.799627115044762249e+00
9.515494790018667881e-03,-4.086506712839413531e-03,9.798159227339807487e+00
1.301235898832903809e-04,-6.105550066542144577e-03,9.791628716245652342e+00
3.250026493207640570e-03,8.484683566440588687e-03,9.795516184408874949e+00
-5.703606307602320305e-03,2.475644737556913916e-03,9.796092061565429887e+00
1.574875826906554400e-03,-1.214774081147400276e-03,9.799798145904350832e+00
3.133650993475859282e-03,1.030661960731653727e-04,9.794532018084787239e+00
9.576966997111543631e-03,8.761943671008253637e-03,9.794380084665062824e+00
1.230044415067188014e-02,2.158945454658377575e-05,9.794759975281396081e+00
1.025237374410074842e-02,9.662142502074664695e-04,9.788526448948601910e+00
9.943196580863646744e-03,1.015793959049065501e-03,9.809072135699821615e+00
9.127329779687916658e-03,5.889705819878121411e-03,9.794030121481325679e+00
-1.858290484593079061e-03,4.121813286163033586e-03,9.794801179847244299e+00
1.567582582511105414e-03,-2.125261259817335865e-03,9.797490783234970024e+00
-1.471097663557981335e-03,-2.732866137289656668e-03,9.790181488300540025e+00
7.480289049281954594e-03,-6.161810225163994424e-03,9.798564869876926764e+00
3.193370957775403755e-03,-2.997223544145781633e-03,9.803099033975216869e+00
-5.044526585950833558e-03,3.414331464442052575e-03,9.789135964850412819e+00
2.618083315739007638e-03,-6.702786635199207976e-03,9.803641948654252758e+00
8.578955934278771622e-03,-8.984421380761681980e-03,9.804270816966360158e+00
2.110660276373742782e-03,5.755471143829288608e-03,9.791315581396061063e+00
2.184222524866806688e-03,4.593795310452009929e-03,9.798365947083166105e+00
4.497433859596424756e-03,-3.039882972244307893e-03,9.783215309382191194e+00
3.433147856748766658e-03,-4.190242523969003006e-03,9.792062992439458213e+00
1.407903273837510347e-04,-1.896312284249396414e-03,9.792365175895975327e+00
3.921993233677457079e-03,2.709097664710594447e-03,9.796182944185252595e+00
9.236023801657583521e-03,-2.690606197025706848e-03,9.789791053961891976e+00
3.097863069264610286e-03,-1.644783822968800668e-03,9.807740696219385157e+00
1.224995196319353559e-02,-2.477855167598315596e-03,9.790614429522962681e+00
-1.164888281470960246e-03,4.419139199272366716e-03,9.801137355908959847e+00
-5.423905218901679468e-03,3.466900699996717031e-03,9.797160770856327972e+00
-2.992652163785184359e-03,4.675401690143101557e-03,9.793302100579280633e+00
5.212321685667953416e-04,-3.097979873029290190e-03,9.799496135748819725e+00
-8.369814432226100123e-03,1.338271673027495966e-03,9.794517515695705612e+00
4.583705527702258177e-03,1.798586181233207282e-03,9.795424924463400629e+00
1.744543754844399969e-03,2.822510564941681840e-03,9.790609615732517312e+00
5.637056810294453595e-03,3.361601883144519406e-03,9.797969242713133298e+00
2.224959121659209494e-03,8.375805850450990936e-03,9.798180395272195753e+00
-2.794966141620525493e-03,8.704613626613153660e-03,9.800177917205964206e+00
3.381382408519697721e-03,-2.239751790993423433e-03,9.789886945376249372e+00
2.032285706835026268e-03,-1.252680324335057882e-03,9.798955214799887514e+00
4.971800205014563663e-03,9.755776692957008472e-03,9.790617939094209632e+00
-3.453952457879018705e-03,1.624887998925281241e-03,9.795099173194575570e+00
-4.848435657993982115e-03,5.762414716692972755e-03,9.793454875772169999e+00
9.321186044586447783e-03,2.701654044490795110e-03,9.794034137179993493e+00
-1.417828613538586573e-03,-7.200221533216746503e-03,9.795755290753703548e+00
2.227799963314249041e-03,-1.127622567831046592e-02,9.795161403153359814e+00
-2.282602150802653680e-03,4.936645598864202074e-03,9.796103419967828074e+00
8.175544908141312017e-03,2.249782268848408463e-03,9.789267463334121899e+00
-2.181835457623681595e-03,-6.379590661840090632e-03,9.801933684539061886e+00
-3.523427455056155500e-03,3.260600964523189399e-03,9.785366722874192291e+00
-1.347061204916285204e-03,6.996079662624035168e-03,9.794572682536273334e+00
-4.951467556254003123e-03,-1.995451698713106552e-03,9.800727748885899260e+00
3.149376357520704620e-03,6.375397168805916823e-05,9.791596270586939710e+00
1.960329514238925552e-03,4.580726892601620463e-03,9.789927551489888913e+00
-6.990036581058094688e-03,3.522300528508003330e-03,9.796145305838733108e+00
-4.320993291590133518e-03,2.632764230828782848e-03,9.791461586823528407e+00
4.878135544839944993e-04,2.092866428984062332e-03,9.795759722588828211e+00
5.970428066078744753e-03,2.906633438575089920e-03,9.792139675213585193e+00
9.405596552786435124e-04,1.852082177080764127e-04,9.793699922437056671e+00
1.935622812508127309e-03,1.016764513009324987e-02,9.796177096478260182e+00
-1.535173031809853716e-03,3.147413271120945953e-03,9.787416850473242391e+00
1.270702301361557743e-03,1.572275802713911548e-03,9.803350483464251752e+00
4.288488052658794882e-03,-3.695388640693837365e-03,9.800035150421534169e+00
-3.379010039990510902e-03,2.340819591552467226e-03,9.780333041645169700e+00
3.911688963623640922e-03,-3.900386994168478921e-03,9.784937961393019634e+00
4.835298228137562687e-03,-2.128688239235063725e-03,9.799771804596659308e+00
3.357147717788179584e-03,-1.173527166964061664e-03,9.798260873956593286e+00
-8.093214219669239012e-03,-4.717875764697869109e-03,9.796077850413352550e+00
-3.278796891141358243e-03,9.081739819496710640e-04,9.808670714452709660e+00
-2.013948728302294554e-04,5.776449639301431578e-03,9.794626455690471190e+00
-3.366690654478937932e-04,-4.365760321702369384e-03,9.797233786507693054e+00
1.475487474515906235e-02,3.422669892609515093e-04,9.791966759216546023e+00
6.441696331225897632e-03,5.212029626080577106e-03,9.794648801431740992e+00
-1.038931303233902714e-03,8.096685275135869983e-03,9.798183552374375438e+00
-6.875057628443739279e-03,7.250282192665608548e-03,9.792892801111765522e+00
4.880864909235459008e-03,9.842864531110417578e-03,9.785581270376821905e+00
-1.717056999628753912e-03,-4.610422836682668765e-04,9.792340426169056755e+00
-1.115396546382699770e-03,2.578427728862162354e-03,9.795938695649287098e+00
-7.071954461175819842e-03,-1.417415820964544170e-03,9.796848511977229279e+00
1.776662506084816014e-03,1.110580687506572189e-03,9.792368554023360261e+00
-3.233024573319240747e-03,-2.933105011699384604e-03,9.800802248745776879e+00
-3.258237408817663949e-03,1.077884978226032169e-03,9.792158137949813934e+00
-9.745412062583487176e-03,5.817052426594446907e-03,9.797592239633663880e+00
5.611485199431933898e-03,-7.820468593400901891e-03,9.788478704764546734e+00
6.416169801825614798e-03,1.594364081996805637e-03,9.794410635356763706e+00
-2.188119277783018030e-03,-3.287861758458287924e-03,9.797346302761603454e+00
5.038858484512822450e-05,-3.529449450174835384e-03,9.786554374546618362e+00
6.832030237887088070e-05,1.726616047901718661e-03,9.788094455520258919e+00
-4.000377801900466442e-03,-1.019231970575320200e-03,9.795039346435014949e+00
-4.045440249904663776e-03,-6.448288677865877949e-03,9.788562645482869584e+00
1.075531563074498716e-03,-4.840927822614560748e-03,9.802569824825747347e+00
-3.390574709021369759e-04,1.643998561054292465e-04,9.794045904288699589e+00
1.492187568079270978e-03,5.103682313417575757e-03,9.793898546054787602e+00
-3.248441861354786457e-03,2.240181151012965964e-03,9.805227410650900310e+00
2.770655700400143605e-03,2.473015124238326073e-03,9.798946368870694812e+00
-4.420003560626143205e-03,-5.310823782680877680e-03,9.797872671834079839e+00
-3.623952489146855995e-03,5.936274917703444551e-03,9.804580046135557225e+00
-2.793849376293000824e-03,4.505204564970943792e-03,9.795625901697707860e+00
-5.755855726234024132e-03,8.906685590152207607e-03,9.799966223769120077e+00
6.888568957436836705e-03,-1.587561371276835368e-03,9.795934529437555938e+00
9.802142557542672420e-04,9.578873048931334580e-04,9.793773830912964939e+00
-1.407307985540167707e-03,2.741684626813208417e-03,9.796737331556125028e+00
1.062094926920894786e-02,-2.307263920507545557e-03,9.789590837817161884e+00
-6.713401441259678670e-04,-8.928536256822586573e-03,9.796499867062767208e+00
-1.354305427098129308e-03,3.487744468704371409e-03,9.793318708876613599e+00
-2.721905987502629305e-03,-6.093706264070217682e-04,9.789816614912673742e+00
-3.711715230403275431e-03,4.153732106257764997e-03,9.786949788288243468e+00
2.493784074164900541e-03,-4.869338072198896132e-03,9.810575643045732264e+00
-6.926794129891776161e-03,5.362307572113878375e-04,9.796267218355946937e+00
4.208441430805520862e-03,2.051801706777298812e-03,9.786027083974063956e+00
-1.611593444479697979e-03,2.453859559538083910e-03,9.794818853522622604e+00
4.662970150026163156e-03,-9.058113016353770133e-04,9.792985975498066153e+00
4.772888759821574019e-03,-3.886323240959888448e-03,9.794595994329265309e+00
-1.101872211385188267e-03,-4.194759061794201861e-03,9.795657350282018783e+00
-3.601832259345067247e-03,-1.522271779171170247e-03,9.799640096993664784e+00
2.894437751497006689e-03,-1.196477330360860890e-03,9.798867099486574972e+00
-1.866646933501690461e-03,2.491399705506867381e-03,9.795964982875879912e+00
-5.620792800616646219e-03,1.888977309628250573e-03,9.789255950371952508e+00
-4.642597813772963988e-03,-7.452339070685989279e-04,9.797537228538752530e+00
6.350818448402218829e-04,1.033959484266563575e-03,9.799317257111759716e+00
-2.605624937880389631e-03,-8.187984522983242364e-03,9.794079419925852292e+00
-1.171228883164929929e-03,-6.782440095928297247e-03,9.794856975399751420e+00
1.228033214130062108e-03,-1.459999254889975898e-03,9.788341150850524031e+00
5.230023775182229481e-03,-7.835891379304087481e-04,9.791971301927850035e+00
-8.850952407464562563e-03,5.051703752043188410e-03,9.792501522603050290e+00
2.121327904451865941e-04,-3.074258702709344775e-04,9.792201285971650293e+00
1.340454798034088416e-02,9.119081187179651354e-03,9.796967635961244980e+00
1.081884677223452287e-02,7.518995935626484814e-03,9.785066325767502349e+00
1.746553858925415140e-04,1.304999215486755439e-04,9.803646776492046300e+00
5.226406498584306934e-03,6.246156191730960205e-03,9.797325908798867999e+00
4.348558969431388227e-03,2.492423941976323453e-03,9.802355748196433183e+00
-3.973838671700208845e-03,9.161215871802800854e-04,9.795864794671857112e+00
-8.220922558649493067e-04,2.478302277426180054e-03,9.801134821686295240e+00
-1.239691299990825380e-03,1.069898095405150476e-03,9.797136839345087722e+00
4.567553125105626617e-03,-3.597614854633052976e-03,9.797033552888429142e+00
-9.687191277393520858e-03,4.224865771501090835e-03,9.787609773226252585e+00
7.863367879294222082e-03,-4.166896027674338310e-03,9.808175254938346299e+00
-8.147953430693419610e-03,1.640440109432126075e-03,9.790445159548793796e+00
5.253548104167569781e-03,5.216519977640596273e-03,9.798740577974605515e+00
7.450670125772887930e-04,1.012673798493303771e-03,9.800927615095156753e+00
3.449052743578284643e-03,1.314201996904878827e-03,9.800533832007795709e+00
-6.915799730573571509e-03,4.342699340916875671e-03,9.798916884620933132e+00
2.967815430841211615e-04,6.169134982959978766e-03,9.801989220524946589e+00
3.927288633404538154e-03,-1.269519902936680489e-03,9.789005300969597201e+00
-5.299595625791607596e-03,-1.230155215838149140e-03,9.792513477515418785e+00
6.455130555433709338e-03,-4.306667465095210742e-03,9.791711394700001847e+00
-5.804497037278049179e-03,-1.556189581064648577e-03,9.800428712866128933e+00
2.831844045369149437e-03,1.072913180638387703e-03,9.805689706900771796e+00
5.918645173293924505e-03,8.745313669932636494e-03,9.790345696515858620e+00
6.620418457768855250e-03,3.464564675028044584e-03,9.801532814703694640e+00
-6.650419644874009523e-03,5.664137069289297685e-04,9.791384750028283790e+00
-7.025883767018170460e-03,6.433503184466192459e-03,9.786102237195079212e+00
4.973500278750309783e-03,-4.519554803153515979e-04,9.792763452884846842e+00
-5.862545597191083299e-03,5.440893718932512078e-03,9.790696679161332128e+00
-4.584984536187914662e-03,5.554493950175707837e-03,9.795033899315200188e+00
5.642914536422656037e-03,2.152203653478035675e-06,9.788594141851545416e+00
7.015657039894961262e-03,1.517625718986830453e-03,9.792229355689491044e+00
-7.089221880174475989e-05,3.612663815525433107e-03,9.798754092242612401e+00
-7.651024153626414517e-04,-1.747778662607145546e-03,9.787210694685590795e+00
1.928370730660617944e-03,5.953515297427199992e-04,9.801183651880467806e+00
7.588337255193134540e-03,1.440556727563142500e-03,9.797205747437299550e+00
5.634211009241192961e-03,-8.476869649644277549e-04,9.794213604714183674e+00
2.268711559804603359e-03,-3.036687150002976773e-03,9.791842047121606996e+00
-3.774121231252726026e-04,-4.126599180695029144e-03,9.796868347056101101e+00
-2.131677311822907130e-03,9.203584097951408166e-03,9.793641588565417777e+00
4.103430595416939636e-03,-1.672658385561473851e-03,9.794804365862294304e+00
6.670506905991225276e-03,-2.680429285781027980e-03,9.791931820029345701e+00
-1.135854016074699024e-03,1.844451128865483812e-03,9.789352663489147233e+00
-1.694463507011871508e-03,-2.683349573944080434e-03,9.789488117507552545e+00
-2.124235285541138836e-03,-3.509614362621102292e-03,9.790921551449699223e+00
7.226282530140083413e-03,3.131149571945614739e-03,9.800952887931606128e+00
3.013326249649180000e-03,-3.668490060064579558e-03,9.792762623054800386e+00
-3.199820177364380049e-03,3.114272163084616518e-03,9.800656073502661769e+00
-6.009903445574866533e-03,-2.458162281838330299e-03,9.802095993776973160e+00
3.565579727501547429e-03,3.809664851016214679e-04,9.797237196062681619e+00
8.497170054951401139e-03,1.402481274766360225e-02,9.800060831626927538e+00
-6.307880247181804623e-03,-5.335196719308974746e-03,9.791157023022236672e+00
-2.942519251331097638e-03,-4.472591182170728742e-03,9.791796856804863225e+00
-3.925358217889448990e-04,-3.561786131027190778e-03,9.787950507319717275e+00
-5.154415373486410067e-03,2.977186427384834275e-03,9.798333722491245013e+00
8.176650347800323848e-03,-4.456004345412249538e-03,9.798943355314786885e+00
1.413480214911366209e-03,2.572394896649739682e-03,9.793932104305568487e+00
-1.213637781698852398e-03,-2.422753156786365287e-03,9.805363074952365920e+00
-2.692498091482497559e-04,-1.406210932340952024e-03,9.799572779377093923e+00
2.723681948041726652e-03,5.459572252320786002e-03,9.802058952348241760e+00
-4.920533633539597674e-04,1.350571446793856316e-03,9.790873791436935036e+00
-4.598305727112746329e-03,-1.016353054663622635e-02,9.800017143800323183e+00
-9.718201297168636149e-03,1.003131896197490512e-02,9.800133296104682756e+00
-5.410707375876910169e-03,-1.479756981817615964e-04,9.803970192268909756e+00
2.679466634573073047e-03,1.789303538368774808e-03,9.799185841992526846e+00
9.080986970095817137e-03,8.366488251804722956e-03,9.792726569704965911e+00
3.522331260444312674e-04,-2.290117422138730589e-03,9.797395575202335394e+00
6.360464696330728890e-03,-8.529035542113706054e-04,9.799481309395680739e+00
-3.565840627309890907e-03,-6.432967423533017190e-03,9.793833198500850656e+00
5.882282304090397790e-03,-3.857524809362012936e-04,9.797477095938489811e+00
-4.802429501501770219e-03,-1.889729055706914490e-03,9.797313601538942152e+00
-2.747558072810337391e-03,-3.570766586118375580e-03,9.792281361670926998e+00
1.650292609113646492e-03,4.681049343224372161e-03,9.794116568853382887e+00
1.252011561794799405e-03,-5.688332762531273954e-04,9.800688114159580522e+00
-5.479716604328135204e-03,-5.916198524037902598e-03,9.794951894214724675e+00
1.300003242086762885e-02,-2.534365634516560183e-03,9.795222468105635016e+00
2.101366176532906693e-03,-7.365645120340729227e-03,9.799235247712520191e+00
6.969368751226260542e-04,1.699068242137385205e-03,9.786610410796042103e+00
3.283988960305791321e-03,7.016178114441786427e-03,9.800111346656654732e+00
2.900513118896779971e-03,-6.161920273408678927e-03,9.805036489206624850e+00
1.956383100964149274e-03,2.610585097846727584e-03,9.794398863008366263e+00
-5.579851196567458746e-03,-2.470411902123343523e-03,9.793164816836499753e+00
-6.491801787955996626e-03,-6.920141180060605628e-03,9.800498795085710313e+00
-7.251706690043087031e-03,3.406218671418752113e-03,9.794333122987431750e+00
1.518961191444496745e-04,-4.024702012159029653e-03,9.796251303896511331e+00
1.008738035848511135e-02,-5.201998409731700170e-03,9.790708224022584005e+00
-2.896065746525365581e-03,-8.377592322142235308e-04,9.793100426981382611e+00
-1.756489938428057668e-03,-2.203054645665938546e-03,9.802395124276808147e+00
6.950239466513718914e-04,1.346923922938583502e-03,9.794520833187277731e+00
-7.398414509027810212e-03,6.089841772559637274e-03,9.785191287876353172e+00
7.623834940991341610e-03,3.160497099105566594e-03,9.796999439951289190e+00
-9.869552415003046003e-03,-6.636794279613315688e-03,9.784862979801868477e+00
-4.298506519715850765e-03,3.027267719319346210e-04,9.793447635816255215e+00
-1.476332474981543585e-03,-1.771222731949358359e-03,9.785597903256730845e+00
-3.096401800051779528e-03,-7.336221574439851130e-03,9.788044434823696349e+00
-8.616442451383521687e-04,3.474851155130193135e-04,9.795912155864849424e+00
-1.177731630392551314e-03,-7.688214507706352292e-03,9.802178145587976843e+00
6.623963755528159206e-03,7.356110518275846624e-03,9.796932305377190175e+00
2.124140204249508421e-03,2.727828949451297814e-03,9.794702306804255798e+00
-3.890010803715613329e-03,2.895240910501411559e-04,9.796460008820901066e+00
-2.713619368484880643e-03,-1.261674777198572382e-03,9.789817318231756715e+00
6.725997810090853825e-04,-7.752258166016032237e-03,9.795158692573826542e+00
1.797418194119165466e-03,-1.452737180635500650e-03,9.804656732504151151e+00
8.221306797348667400e-03,2.288555503344374704e-03,9.795695703423968226e+00
2.766851935666616961e-03,3.260278063179848206e-03,9.807288801621719898e+00
7.887655673464163270e-03,7.066863302422316841e-03,9.800679549341584362e+00
-4.502916787333067702e-03,-1.203198613944354064e-03,9.802214453030012820e+00
-4.440076882929119839e-03,2.101986769000515633e-04,9.798302385502672962e+00
-9.127586021890250062e-03,-5.442556099845367304e-04,9.792799425056331941e+00
-3.831888640858391402e-03,3.154572880418150295e-03,9.793890573996492321e+00
2.854969611056322465e-03,6.702751702093255777e-03,9.799471332205904162e+00
-7.460728873041060256e-04,4.406621949268145315e-03,9.782398180473904858e+00
-1.212964962996465959e-03,-2.995215897773298268e-03,9.797295379473190735e+00
-6.197816567997457967e-04,-9.640801767184584148e-04,9.802444956190358383e+00
-2.124847543533218671e-04,4.202580702100108985e-03,9.806755593057635778e+00
-7.397594162598519893e-04,-6.202334264767657770e-03,9.791367006375505611e+00
7.623373412422283085e-03,5.117444952639426618e-05,9.791101238860203893e+00
-1.337814073945211082e-02,8.945549848676475138e-03,9.796551028300498842e+00
-2.271615588340538880e-03,1.606056524687262625e-03,9.802369289706637900e+00
-6.651740384519854929e-03,1.240365763998695038e-03,9.794746511961168522e+00
5.291327881060458281e-03,5.822286463490458554e-04,9.790833274020338095e+00
1.020402741465302899e-03,8.548866005300744669e-03,9.788063201065668295e+00
1.274134701175334925e-03,8.200013412446419819e-03,9.789824309047457263e+00
5.816659357656428844e-03,-3.958648388282230311e-04,9.788881315444317721e+00
-1.775837802309550555e-03,-4.166385857599270125e-03,9.796133535776078816e+00
-9.148628749975592708e-03,9.797289574751118051e-04,9.797249089909600528e+00
1.061462440117772604e-02,-6.519697428678370224e-03,9.795061503779523449e+00
1.989240486063189456e-03,7.534954690957524660e-03,9.792624960568897308e+00
1.056981039790951329e-02,-3.301235068063708335e-04,9.796968465251612912e+00
-4.234812556603274880e-03,-2.524413633058540576e-03,9.791741759407715406e+00
5.066646924012286994e-03,-1.745574916534372006e-03,9.787509185593828320e+00
6.804563202052284210e-03,-2.535020200529195487e-03,9.796420175980712131e+00
-3.297700075422869536e-03,4.365428935834458728e-03,9.798946753544440114e+00
-4.106913397683173948e-03,1.572659268166843021e-03,9.793318212870310902e+00
2.138949631529119162e-03,4.594772332628901425e-03,9.795099611708350196e+00
1.181767383021296858e-02,3.213117848537599052e-04,9.797875551118947257e+00
4.713310443445592815e-03,3.157615212758173393e-03,9.792110848914783006e+00
3.327916993547608759e-04,1.549376393842059364e-02,9.795824023740838271e+00
-1.859794746613616535e-03,-3.375681375159744584e-03,9.804383819174734782e+00
-3.719986551456330465e-03,-9.600789445779704797e-04,9.791116326425649774e+00
-5.883721479345789367e-03,1.222642464848923373e-03,9.799985006797175657e+00
-4.393176765172790085e-03,6.387902385395213996e-03,9.793009268785667132e+00
5.771449490572077429e-03,4.182296389276830666e-03,9.802203821370479631e+00
-2.809295037345146788e-03,-1.786965593856708768e-03,9.793186140329234846e+00
-8.613122239783065331e-05,1.818443642284688425e-03,9.795035603331980312e+00
-6.619074155481368196e-03,-7.814818830675800132e-03,9.798832828814722617e+00
-9.070440528052028245e-03,1.408015811162486230e-03,9.797393603181037136e+00
4.328170097463102800e-03,3.163920281621351860e-03,9.801252356569584379e+00
-5.422487727255124318e-03,-1.087084674038514987e-03,9.794340825190092303e+00
7.694990056771644320e-03,7.864031868592125368e-04,9.789850055476197355e+00
1.076961966854725512e-02,-5.711020830642731493e-03,9.798566832322059383e+00
-2.982695015118419155e-04,6.825870950652436486e-03,9.784962416407374519e+00
4.683827585711263994e-03,-4.141812574641039538e-03,9.795804080416557369e+00
-4.796965953145358903e-03,-3.588822231238643443e-03,9.799417843570280340e+00
-8.802628604108847857e-03,-3.523120133320827713e-03,9.801107721951078489e+00
3.516929492922567582e-03,-6.584275337178049047e-03,9.796039211375108025e+00
6.132429248773265014e-03,-3.239100503933339033e-03,9.798764063353180731e+00
8.151554635278500252e-04,-5.907876208571116380e-03,9.792422413998192354e+00
1.279508047801351626e-02,3.788802403861429510e-03,9.797725804026294227e+00
-3.724362049228794810e-03,-7.367805191761389594e-03,9.799938963976050132e+00
-5.449594369571261927e-03,2.887005889290772745e-03,9.797078447864290496e+00
-8.790520906549895500e-03,7.421734954973634169e-03,9.794356106168470077e+00
3.816587199683451823e-03,-1.619247321397289515e-03,9.797286112080657361e+00
-8.998422591792459499e-03,-2.361551835115724115e-04,9.790161782790585576e+00
-1.450496055143108516e-04,-2.910001359235807935e-03,9.798204269391671772e+00
8.850087326648598332e-03,8.848319926683816811e-03,9.795985454929812875e+00
1.605850338467006404e-03,-3.677774224347827615e-03,9.791576140321588184e+00
-2.802489289982216213e-03,-8.083609211765927340e-04,9.798312362222180383e+00
8.427591309036966058e-03,3.498706167704444814e-03,9.787537762259333363e+00
3.205286054681712616e-03,-3.674943174917402137e-03,9.797039275140392078e+00
-9.068945740284664646e-04,-1.491322196949108501e-03,9.801789566635351392e+00
3.740233002595941617e-03,9.822694394463940548e-03,9.796657093885073664e+00
-2.156424666415704839e-04,3.253464985916363923e-03,9.800030007071738325e+00
-5.548148987786503776e-03,6.591573232971948033e-03,9.795737520907122686e+00
2.116924210271349440e-03,-3.945660623090311257e-03,9.791057930258805442e+00
-6.606461682806969056e-03,-8.358099775068261001e-04,9.795415618609180086e+00
1.552539680599376252e-03,-8.018694035177690443e-03,9.792833890737568936e+00
-8.442391787855637111e-03,-4.288069771380129732e-04,9.784659907501422893e+00
-5.501694464447519188e-03,-6.829446515845338317e-04,9.790499690711055081e+00
3.228961461573405176e-03,-1.138685849688705204e-03,9.803850238567683562e+00
-2.051375361274097257e-03,-7.285770807473408890e-03,9.792561029141076290e+00
3.452601792895504049e-03,-6.237761298512234549e-03,9.782794126827559111e+00
-1.953923311765942260e-03,9.024251774047141114e-03,9.798106605579629758e+00
7.029657718103144576e-03,8.391211029255831247e-03,9.794300004826887118e+00
-6.540243151608798704e-03,-6.920742930336613429e-04,9.786944237899149357e+00
-6.973123261914141759e-03,4.024569923840952933e-03,9.799851316942895352e+00
-3.037686953699402382e-03,-1.155279700199036714e-03,9.802558108120996039e+00
7.133788064535237679e-03,5.409535793165072722e-03,9.798204905125382780e+00
-1.034673037588663578e-03,-2.349115611373364838e-03,9.786939210353597929e+00
-3.752776392701905918e-03,-2.694875917496740696e-03,9.806381856679452724e+00
-2.510111575689845387e-03,3.571444153982916703e-03,9.788605404427812573e+00
-9.252415413464390708e-04,6.214554750022651362e-03,9.789959426698406020e+00
-8.497271024700872241e-03,6.443893702417297087e-03,9.789662474437706763e+00
-1.590788390210718002e-03,-2.839067026969494152e-03,9.784990606188952000e+00
-3.037676463046565072e-03,1.678382995750917622e-02,9.797903312542386445e+00
-7.005492943065972852e-03,-3.723828704293598909e-03,9.791536169856913219e+00
1.620777208630633931e-03,-3.390000910160937287e-03,9.797303079270827553e+00
-3.336432130441108722e-03,-3.171419768269620422e-04,9.793169665101009613e+00
-3.148860390219599108e-03,8.186515699686060504e-04,9.795245709234446707e+00
-9.801154782338127730e-03,8.540453516644976517e-04,9.794937471465152257e+00
-8.040106301657178392e-03,8.635020597190090760e-04,9.786129305414551283e+00
1.132712546403749632e-03,-3.122400866284802574e-03,9.793973760461922140e+00
2.639907265853487593e-03,5.511328186662335128e-03,9.798101366810811896e+00
-1.587174730538594685e-03,5.777445572616027487e-03,9.801769573600818575e+00
4.944235095109552995e-03,-4.837055722167425513e-03,9.789992937808602136e+00
2.312755520257072338e-03,3.652968889430546935e-03,9.796548565464947345e+00
1.353615192675555051e-03,1.342229964227557512e-03,9.788912487063194945e+00
1.564529794609792294e-03,5.215125308518211988e-03,9.788404340108113999e+00
1.217454898864224564e-03,-4.378579081238818255e-03,9.795911731632010344e+00
-3.535614842985210574e-03,-4.674168136629836164e-03,9.800834606126835880e+00
9.664512324622138301e-03,3.840359467943562049e-04,9.792638850942283923e+00
-1.051651797788751702e-02,3.333529216473719598e-03,9.789879621783882158e+00
-4.361139946684713248e-03,2.303883934738759111e-03,9.796489797210421457e+00
4.950692581542969622e-03,-3.366910765259187917e-03,9.792936284471661423e+00
9.124137318360394516e-03,1.713578079838970394e-03,9.797695591196458054e+00
1.039506566328286721e-03,-2.133222349795875147e-03,9.782848633117685822e+00
6.593836196681556079e-03,-7.801722755270974318e-04,9.795305490554707006e+00
3.446609819721029120e-04,6.391597100154739700e-04,9.786385710555396855e+00
-1.989268196233990628e-03,-8.701986658770952815e-03,9.800041634536249546e+00
-6.797507033334344775e-04,-8.898600827061878618e-03,9.798102389302410842e+00
-2.653376658315611484e-04,-2.550451606934819263e-03,9.794054656190763097e+00
-5.897352918705786595e-03,3.685509450680767886e-03,9.783615773844188013e+00
-5.138071888880800693e-03,7.854193724763439133e-04,9.793928307052492954e+00
-3.586828265077579916e-03,3.639071793160740878e-03,9.796095424918195960e+00
-5.510262679572843457e-03,6.915893778064635504e-03,9.795272012567981079e+00
2.062249883913795396e-03,4.240267727286824335e-03,9.795971978295586524e+00
-4.967843976428169654e-03,2.124182457376029044e-03,9.798735805658115083e+00
1.492244013008632141e-03,6.226932399744067835e-04,9.781901333706183976e+00
5.355694788803904392e-03,-1.039903610561138331e-03,9.794320368474657812e+00
-9.334531764345907826e-03,1.271173656916496034e-03,9.793508085167619726e+00
6.444924747703265067e-03,3.218885896576921101e-03,9.794658212577042278e+00
-3.655143496099703439e-03,-1.402731284949641083e-03,9.801224791795437596e+00
8.442034822260145125e-04,-5.227984977155135209e-03,9.806363056328180505e+00
-6.603231192078186894e-03,-2.350873586264652128e-03,9.797414362293213941e+00
-5.903952393131084615e-03,4.329986612576585889e-03,9.786083316532655729e+00
4.441994191049914928e-03,-8.205444074977331307e-04,9.788112025635332003e+00
1.131313275741119501e-03,-2.428706652801794486e-03,9.789069318035590328e+00
-2.824312913487114340e-03,-1.146428782588735686e-03,9.792998843375826823e+00
3.754126453800664572e-03,7.770177237138467356e-03,9.795931173592901331e+00
-2.815016817042760751e-03,-1.184447662017868580e-02,9.799073389900723186e+00
2.079974006524588654e-03,3.600236205477432092e-03,9.789981380016875789e+00
2.758711240709341411e-03,3.350120159002702332e-03,9.796749545034330708e+00
2.513092879388018324e-03,1.705337271585798467e-03,9.790162387934064014e+00
-1.767291734358423291e-03,-2.489452024776034594e-03,9.795393410586049399e+00
-1.110096865049477882e-03,2.875415399019985328e-04,9.795708502650899874e+00
-5.348088023983062038e-03,6.106151351061083615e-03,9.797140679158843568e+00
-1.071694353786932464e-03,-2.240424374153165456e-03,9.796995546868041416e+00
9.131134114415129233e-04,-7.524433963057021793e-03,9.795275364412526997e+00
-1.858956264104908232e-03,3.050907838979020426e-04,9.790967038988235061e+00
-7.788408443376226495e-03,7.727952519907106688e-03,9.806526914110136772e+00
3.633073618618946551e-03,1.239427810831709997e-02,9.807707977174134228e+00
-4.652605806289865364e-03,4.726964852493797942e-03,9.793810961413367266e+00
-2.909038848550829504e-03,4.021292512434420513e-03,9.786700284083329038e+00
3.154019313994208332e-03,7.557917968384870490e-03,9.798142352909245290e+00
-4.743801703300297521e-04,7.520429152440479426e-04,9.796302617000401725e+00
7.212840312607903849e-03,1.822609791487002015e-03,9.787195518952184869e+00
3.253236194330958939e-03,1.886838044616434736e-03,9.792534278196381337e+00
1.152129911452835255e-02,-6.266563510751665088e-03,9.795510540082673856e+00
2.750491132764378791e-03,7.440648135377704066e-03,9.795195137388061468e+00
-2.135321856389132055e-04,7.601387068898889446e-03,9.802804608945205445e+00
-4.074381216982907519e-03,-3.412348819634741098e-03,9.794083217524535812e+00
-4.094501378093324401e-03,-2.731174780942345788e-04,9.789971888155058366e+00
2.665410446669228516e-03,-1.256271049980758458e-03,9.786596480274688759e+00
7.350643999851480710e-03,-8.346919868184790939e-03,9.796523390832925671e+00
3.009057102627608980e-03,4.005111345445184177e-03,9.797187711716528469e+00
-1.897445144933921626e-04,5.132069939566965416e-03,9.793237647753493036e+00
1.532460993784371230e-05,1.309974373667767596e-02,9.792292454093557197e+00
2.798106817066623852e-03,-7.919443667204638295e-04,9.802589960621002518e+00
-2.756145249656065995e-03,-2.391936942982298038e-03,9.797019127715859810e+00
5.682667971068528293e-03,-2.454282837738854754e-03,9.797092717017184427e+00
-7.647548798883819013e-03,9.465516907054704124e-03,9.792179166605199825e+00
2.969749593950220430e-03,-7.010220053474455065e-04,9.785668840672512303e+00
-1.109813427640271577e-03,-4.678567291302368741e-04,9.780783739006997379e+00
5.521638955231184887e-04,-2.002224783901663564e-04,9.793251591819416291e+00
3.870365205706400007e-03,-9.777173868869924039e-04,9.798286639389624852e+00
2.672237361278318075e-03,5.847589523587519737e-04,9.799893545928533456e+00
-9.496961460577681841e-03,6.317037749845933782e-04,9.802623629537023930e+00
3.908046682686488159e-03,-5.377616390167222309e-03,9.795054305688703167e+00
6.688761869705875558e-03,7.203498855854637180e-03,9.792617600721669646e+00
-8.108516690987764911e-03,2.899974622621764517e-03,9.795119536910517510e+00
-2.095290547029157735e-03,-3.799379174950991925e-03,9.795925715551405233e+00
1.133999798957108923e-03,2.370220142557151553e-03,9.800444616570377576e+00
-2.012755421663997742e-03,7.881801897138686168e-04,9.798667242822814316e+00
1.683392536419453262e-03,-1.865517989545539823e-03,9.795962270040275754e+00
4.784229932782619460e-03,-3.628552320670096979e-03,9.802814027472395608e+00
8.325944664106670751e-03,7.355530126591418652e-04,9.800211225699980488e+00
-2.149057733399307654e-04,-1.057917522688896737e-03,9.790526705308291611e+00
4.124118238865699324e-03,1.523015338979689416e-02,9.795460906795701916e+00
9.162277902667945520e-03,3.024284389681416822e-03,9.799181308203392504e+00
1.371620729608171666e-03,9.144904015476299636e-03,9.801388011128091549e+00
3.002954685211945730e-03,4.998387016422439332e-04,9.793891964772493353e+00
-5.029684410720172477e-04,-1.413510782992761540e-03,9.806224709238312798e+00
4.149893129259386165e-03,-1.490817375447259837e-03,9.801198288248055945e+00
5.723411303144449944e-03,9.994649891036161068e-03,9.804471323998113164e+00
-4.107474089060385650e-03,1.726601263881074027e-03,9.796017912085677182e+00
5.078028231560709031e-03,-3.573526723764441655e-03,9.793648510122627826e+00
6.286814209887948979e-04,-3.801309584556289770e-03,9.798633338447313434e+00
3.965776949315147175e-03,6.744501031113347977e-03,9.798196447308924917e+00
2.848044658310127427e-03,-4.446053736016893423e-03,9.795223858179985754e+00
1.416277487184084381e-03,-4.587640760502344293e-05,9.792736527179519257e+00
-5.078405210185318180e-03,2.306398943083998350e-03,9.796513164232846904e+00
-5.490785722064359456e-03,-7.833087604074593594e-04,9.790196910529608942e+00
-2.627596272479159299e-04,1.080089620634751280e-02,9.802141830513043885e+00
-1.071957085854263053e-02,7.169285602578318040e-03,9.796583997262590771e+00
-1.358383658775912627e-03,6.217194576694779059e-04,9.795710504272152619e+00
-3.044360075712055410e-03,-6.166591817391375852e-03,9.794678398037078182e+00
1.293722954748919868e-03,-5.252950601306125705e-05,9.797640964921230378e+00
7.239355801824587898e-03,3.591701398859059157e-03,9.805439029706777276e+00
1.316780711226723556e-02,-1.949201566162511853e-03,9.799696645722296040e+00
3.985237746594796383e-03,-6.386088990211066622e-03,9.795172480208936605e+00
-3.039676145223331894e-03,1.807032668302294663e-03,9.794869047924571248e+00
-4.402710810693741088e-03,4.433711350397928457e-03,9.793810504711876419e+00
-9.819655763359134634e-03,-9.288871511759120084e-03,9.791741126318079580e+00
2.086626780861564273e-04,-6.095720654749656837e-04,9.796683784938009509e+00
7.344376263346956771e-03,7.773806883583390774e-03,9.788067125712604621e+00
-4.372524279190422546e-03,8.133838568737623842e-03,9.794131028387322857e+00
5.241621704528494699e-03,3.544176040196423457e-04,9.801636652214423151e+00
-5.568824832491647663e-03,4.753592788294966689e-03,9.795319592433012090e+00
1.116916947547790147e-03,7.637091144562040655e-03,9.787617316263801825e+00
1.177977046565595667e-02,-4.559654319226775880e-03,9.796984590552321848e+00
5.375774528218695177e-03,-1.286566877654405803e-03,9.792044082442757258e+00
3.711702828583256578e-03,4.193004809230254162e-03,9.800330463205407128e+00
-5.531632236258265424e-03,-2.132664021232296564e-03,9.793955383337022980e+00
-3.607397285756429837e-03,-1.671643121470144057e-03,9.791280104603293566e+00
-1.774072950439003560e-03,2.808754209942128030e-03,9.792385296781334958e+00
-9.585648071280477396e-04,-2.696301221405726124e-03,9.794697360696059008e+00
9.572350500291020720e-03,-5.182100823084110665e-03,9.801639123527538189e+00
2.878277344427872340e-03,-8.525716649640522823e-03,9.807377864829414094e+00
-4.294313010452723445e-05,-2.134927960486303778e-03,9.800781106412433274e+00
-2.043453421836179465e-03,1.671804538192761666e-03,9.801163002697805382e+00
2.054240152416669275e-03,2.491798506598912923e-03,9.799847107251158818e+00
2.950435807817074901e-03,5.937809330334134668e-03,9.799857131613549655e+00
-2.347239498085639670e-03,-6.050353142408187307e-03,9.779570144942681509e+00
7.859688452898979261e-04,2.104951056519670325e-03,9.790636529139080224e+00
4.022544562769432910e-03,-2.331568863596308622e-03,9.787721301383465189e+00
6.914754798687935619e-03,1.217827319492860438e-03,9.793547406575745740e+00
6.739583257892250469e-03,-2.116135157702858476e-03,9.794234104771378568e+00
-8.403596714124486264e-03,1.039303417863229537e-02,9.797370036447288655e+00
4.006639538113115906e-03,3.679479719165590617e-03,9.796986815107512570e+00
7.245365590689577251e-03,-1.838101995631116151e-03,9.793987456143289805e+00
8.502563611728616855e-03,-6.071960267699503568e-04,9.799195985033970047e+00
-1.891709287258020204e-03,-2.349401353441218226e-03,9.785969197554358345e+00
4.936472503369803214e-03,2.791753488958992335e-03,9.793144332533941565e+00
-6.746693418430815825e-03,2.754121964236619369e-03,9.798512527259216398e+00
-2.085871658019833493e-03,2.613986243488090368e-03,9.800217259140458381e+00
2.339674594533388587e-03,3.539388101648085431e-04,9.790348086475704648e+00
-4.795123021758295780e-03,6.485690763374690401e-03,9.794441415918049287e+00
9.487932885275038308e-04,6.547433234065961130e-03,9.799545515050816391e+00
2.157050424262284358e-03,1.502685056141936067e-03,9.791000161506346444e+00
-2.135970641564989558e-03,5.589762231338698921e-03,9.800240025609381789e+00
-1.348989287846101429e-03,-2.357668923693908083e-03,9.793240496164623110e+00
-1.571736765334036823e-03,6.139533559822515571e-03,9.801257554481294321e+00
3.854657887607837972e-03,4.312286363998844331e-03,9.798259447832045055e+00
7.099597858589472982e-03,-1.618980008579980374e-03,9.784499440496311706e+00
-6.864435527224591787e-04,5.983879495904908391e-03,9.798701342281457727e+00
-1.920637919919765142e-03,5.187074546695969596e-03,9.799706767644645211e+00
3.990390056291726398e-03,4.103421070512424350e-03,9.794279899901285447e+00
7.520984940204455613e-03,-9.064418548279998961e-03,9.787115794047815953e+00
6.787083117483281094e-03,1.682088792251544302e-03,9.796493214737045818e+00
7.156422617773229231e-03,-1.005677592633199852e-03,9.805081759698836663e+00
2.617737514582110184e-03,-3.489957875057707413e-03,9.786100501391906903e+00
-2.303870351121100474e-03,3.845604783832827934e-03,9.794402669235658720e+00
-3.120909516085157518e-03,7.523154161356577618e-05,9.802258575166529653e+00
-1.801515445572252766e-03,-1.422822188983473637e-03,9.799274079993008257e+00
-1.436945522646706531e-03,1.121745937810902233e-02,9.800432112824168485e+00
-3.781245673196099912e-03,-6.842853044235035209e-03,9.793976104576728403e+00
4.479464774975730132e-03,-2.805516429123883649e-03,9.794383670858822555e+00
8.005734159173676654e-04,9.845958121096939474e-04,9.795413997565125541e+00
-6.928996038258081365e-03,-3.617398670306228893e-03,9.797789481677140699e+00
-9.082846723155648533e-04,3.105854746684224774e-03,9.798124307797451138e+00
-5.447858495451462710e-03,-6.531431767552282018e-03,9.802479084647400143e+00
-6.948560820401412930e-03,-3.218952806417930447e-03,9.795383838457992098e+00
-1.155766916125514987e-03,9.116822001458382146e-03,9.792941264192863926e+00
-2.216354732594682207e-03,-7.386198221038290171e-03,9.799815279042080718e+00
-8.297390217505626331e-03,-1.429928474967203820e-03,9.801032643028628755e+00
-5.453727797941496959e-03,-2.724903014033270079e-03,9.797739012421219584e+00
1.393748253799126716e-02,-3.152176530954115333e-04,9.807115034919840824e+00
3.616115906762045699e-03,1.984906862393769934e-03,9.796455032305559030e+00
5.657498745504830999e-03,3.961791295022011258e-03,9.792160740395219776e+00
-2.288579864348236001e-03,-9.950061242548868638e-04,9.785588702647180170e+00
-7.575578443194399929e-03,4.096199282461983511e-03,9.802262644237025313e+00
-4.684281973344563144e-03,-1.511871819802310373e-03,9.803638157040161616e+00
3.050702488753749032e-03,2.932234912473264191e-03,9.786815135861859360e+00
5.242899308318716561e-03,-3.800793985724397733e-03,9.801797713473295204e+00
-7.944926051532252148e-05,-2.626431851631665614e-03,9.789911755537115567e+00
-7.637278192483444063e-03,1.674500357202135699e-03,9.797447361676493216e+00
-6.071688553127053273e-03,3.093543672634128765e-03,9.795441682373414949e+00
8.840368757479646206e-03,-5.004964632399412985e-03,9.797181333295128525e+00
4.251059602978189689e-06,2.519381846305954360e-03,9.812923374438119239e+00
-6.190743827658274669e-03,-5.817973837318483801e-04,9.795594184015754990e+00
6.850991637779054247e-03,-1.294378361056025464e-03,9.793252163718388914e+00
-5.844920104153566824e-03,1.944045575503995302e-05,9.791110911860455346e+00
2.454115045546957901e-03,-3.411964750266996069e-04,9.795477994025532098e+00
-6.962248733599505669e-03,4.790832684099757821e-03,9.797453039899963301e+00
1.351925214796990005e-03,-5.801402935149809143e-04,9.803893726207242310e+00
3.892689051648185253e-03,-2.597795829037068127e-03,9.799099578251754039e+00
7.509588932490155605e-03,2.116641554697334341e-03,9.791960365899608831e+00
4.501979418889748546e-04,-4.805043069907976271e-03,9.791513358740610684e+00
-8.489364731408351530e-03,1.118422981743513842e-04,9.802976718673766854e+00
-8.216145581959157299e-05,6.877623243585871335e-03,9.797179453960822570e+00
-1.216370524507242364e-03,-6.041987225469734428e-03,9.798578711766813498e+00
-7.083392491809136372e-04,3.287481382394858483e-03,9.799730449683481837e+00
3.117550390887679178e-03,4.613675890313154171e-03,9.794256032295240999e+00
5.851598179594416117e-03,-3.534049086643398663e-03,9.790544491483352374e+00
-5.726018696258195449e-03,-8.137847280404413150e-04,9.797497729707574265e+00
6.506492642816327082e-03,8.897998341557996141e-03,9.790584977631731078e+00
6.044919986545986557e-03,8.676186629762140667e-03,9.798180789524511880e+00
-9.590557193135678879e-03,-6.527540584968666466e-03,9.789922480377443392e+00
3.813539670295047236e-03,-2.611648548504617428e-03,9.795057617407589845e+00
-5.122058567487441233e-03,-3.879585801270909930e-04,9.792353478960963642e+00
-8.050980328651699720e-04,-7.909391527143424389e-03,9.792040878066128329e+00
-2.958636282678152101e-04,3.765806673274947960e-03,9.804211890661466811e+00
3.944332840091410546e-03,-4.198986421396468105e-03,9.779466228298311137e+00
3.218835735966602625e-04,-9.704995865149539797e-03,9.797246075319989700e+00
-4.811023331834991985e-03,1.919769135461173084e-03,9.794860935147545078e+00
1.699796043401955153e-03,2.522729843695029669e-03,9.800215730111977663e+00
2.483857628261938906e-03,-6.962915470433945564e-04,9.801166098654270797e+00
-1.015671278338023224e-02,6.305975943418325787e-04,9.800958415491404452e+00
8.654556908595305645e-03,3.270314213161727279e-03,9.802169458817152403e+00
-7.706682264233091426e-03,-2.063679572615721453e-03,9.796311770440771838e+00
7.697253647499626220e-03,-1.827493062116050931e-03,9.790095110111984411e+00
4.383722307329320465e-03,6.016720946923344998e-03,9.800393264428517881e+00
-5.514651322541753477e-03,1.695590587632471186e-03,9.795866030998368501e+00
-5.367772820509176049e-03,3.240848376647010188e-03,9.798847419598036623e+00
-5.094001756508932666e-03,-2.347008375537691909e-04,9.788973060612246258e+00
1.523695770008801770e-03,-2.517977143815383449e-03,9.789629531703811338e+00
-1.374431038878087818e-02,-9.787393817549249354e-04,9.797457921653798252e+00
1.979263639178326789e-03,2.202113315795880231e-03,9.789471172734110382e+00
5.809277922352432989e-03,-1.303109698147669662e-03,9.786605525478792700e+00
1.038635356777993643e-03,-7.788348946467895870e-03,9.797586538535911771e+00
-9.824249101544862538e-04,-1.066085029291487457e-03,9.799503964467687567e+00
3.193524775763400343e-04,-7.271591404250783014e-03,9.801445662770268186e+00
-4.191646436330990697e-03,-1.866142383335837353e-03,9.797938307202169739e+00
-5.205034283044244169e-03,8.848644109038430322e-03,9.793980814068321550e+00
8.513355888356050408e-03,-5.364253676300687577e-03,9.791543503348156818e+00
7.552973394755497540e-03,-6.827868267493713769e-03,9.798106266953773513e+00
-8.348248830272022095e-04,-2.004455768615392725e-03,9.795552758298208929e+00
2.644093784687373810e-03,4.619788873997746244e-03,9.807161603924372528e+00
-2.190692324128859763e-03,2.574641551425523207e-03,9.789485767139142425e+00
-8.261772959414031420e-03,-5.440124185072553811e-03,9.797155129292567821e+00
1.114920120910606327e-03,-9.501606323025471503e-04,9.790266766161719758e+00
-6.437196113380008571e-03,3.932760127149618622e-04,9.792032335641200902e+00
3.199441909941365880e-04,-1.415847381654423802e-03,9.795443202009186834e+00
5.666872146578611977e-03,-3.749594570558380680e-03,9.800848652481134238e+00
1.161477478609273476e-03,8.081364891901569045e-05,9.789983122813156413e+00
-2.572812268170452700e-03,-7.850312080447006610e-03,9.794533363215926158e+00
-2.413334568243072006e-03,-1.243471664563984471e-03,9.795875823023481033e+00
-4.010371020782533234e-04,2.836417795474086272e-03,9.804200771268265058e+00
-5.923619887832004723e-03,-1.458763623690443982e-03,9.799174166647325990e+00
1.081890406222083684e-02,4.039500677502284864e-03,9.790346867618653803e+00
-8.274684516330023040e-04,-6.635154856363696847e-03,9.785084942229671512e+00
-8.966220624809910847e-03,1.105101791264771760e-02,9.801490176141040678e+00
3.480922241713874403e-04,2.636636222322054357e-03,9.794664006433096759e+00
4.586730750264608053e-03,-5.559719678254163196e-04,9.791866669008111757e+00
-4.232554623841019992e-03,2.606700970352939916e-03,9.791348083655822876e+00
8.724363822010212238e-03,-4.104490050209323379e-03,9.798559928911506844e+00
1.104588107588440316e-04,-7.791819154188917018e-03,9.799318548641940296e+00
2.334007472269167272e-03,2.075447995006218273e-03,9.798239393529184937e+00
8.831309845358412472e-03,-8.777101321568737393e-04,9.806481952373232502e+00
5.004772032674558585e-03,4.762049663366384362e-03,9.796892080172026951e+00
-4.526463458665411742e-03,9.569996295308023145e-04,9.790479028245384185e+00
-3.410676828586542766e-03,-3.708661190636362848e-03,9.792145550326853964e+00
-1.180251645332820905e-02,-4.597209610454170391e-03,9.791365260020008066e+00
8.341575406326342743e-03,1.275636111086094100e-02,9.791720415957154700e+00
3.037094976530134698e-03,5.226846909342305718e-03,9.794763619107813568e+00
-5.692718245254459577e-04,6.706050333329735200e-03,9.798591833389110661e+00
4.305950228017268490e-04,-3.050687789642719111e-04,9.793256001160902002e+00
-4.780029003616777759e-03,-4.218686136931404720e-03,9.787815132834479570e+00
6.179828589072245901e-03,7.034855228788437428e-03,9.793340431161880133e+00
-3.855596331960438501e-03,-5.208461450769485274e-03,9.801544480938755299e+00
6.020593844382284877e-03,1.055989927208174188e-02,9.795807646569670624e+00
4.774376581074689548e-03,6.916561841076922408e-03,9.794540715192928459e+00
-4.581485275975804433e-04,4.235655991018328660e-03,9.801756479992080884e+00
7.200901008925212135e-03,8.125994843200541606e-03,9.800071704344647472e+00
2.900965261739319161e-03,-4.244273390565018490e-03,9.794288042190162358e+00
4.161371841670520252e-03,6.448221971436656451e-03,9.790713065525563863e+00
1.013886068300709140e-02,-1.331470089833337346e-03,9.799577961060551345e+00
3.618096331774435731e-04,-3.496399401904601474e-03,9.799539261096887444e+00
-1.772829734704207483e-03,5.401568880939082787e-03,9.789742371183759673e+00
7.008618144273312360e-03,2.270319232697963572e-03,9.784563476230138335e+00
-7.061997903000123006e-03,-3.403409221270731373e-03,9.788482359299687019e+00
4.141309918505271326e-04,-9.461821900245376109e-04,9.799054780028026101e+00
4.287653658779332078e-03,-4.193553675005349396e-03,9.790093713999320713e+00
-2.619530538239223712e-03,9.127383032114929837e-04,9.795838950872520101e+00
4.146333378452353099e-03,2.526535047101259417e-03,9.791026082222481719e+00
-4.536464366515173714e-03,4.555456541223875007e-03,9.803894031584217572e+00
3.518005630794172802e-03,-6.233708781280042528e-03,9.793576968807133909e+00
-3.671407233082558692e-03,-2.155352526122992531e-03,9.793102122639078644e+00
2.120900519794886169e-03,4.903026962628942269e-03,9.794097552180209831e+00
-9.098140148776277109e-03,-4.602232649070204205e-03,9.792485326174567462e+00
3.711960035087445253e-04,-3.009693693620132601e-03,9.799371717454905095e+00
2.343471725196629059e-03,-5.868775123710657723e-03,9.800598365147479285e+00
-2.904935745705045438e-03,1.701175595512685905e-03,9.785156589357072221e+00
3.773855086677181279e-04,3.948489390418139997e-03,9.795035527136766618e+00
5.420805621642658251e-03,4.021432330761096595e-03,9.802457899719541956e+00
6.555083492009664524e-03,4.714822762138598349e-03,9.787186642946371862e+00
1.827070628143601235e-03,3.413205005922491115e-03,9.798454149949456848e+00
3.011600571948549955e-04,-5.898253701313512475e-03,9.793833241752757601e+00
-2.860477297186957060e-03,6.423530527044695425e-03,9.794307673205389975e+00
3.928567927959000436e-03,1.765391603781842501e-03,9.791657087202803922e+00
2.030747210354832792e-03,3.992275519706131419e-03,9.798855230628568336e+00
-1.175241358618463964e-03,3.845967506972093261e-03,9.791272389024822331e+00
-1.905572527540655165e-03,1.340754050791881716e-02,9.788943572745909094e+00
-3.947867776850148315e-03,1.715824980014490041e-03,9.803500505264569398e+00
2.082605403818333333e-03,-8.942825511662919015e-04,9.793749819922311417e+00
-5.998200685843520404e-03,-1.038097652814947043e-04,9.799330195053768122e+00
-9.315218049421182533e-03,5.539380443061670684e-03,9.803538892969964280e+00
5.417914591779694929e-03,4.296652150965242674e-03,9.795048036272438807e+00
-2.908289310812986125e-03,1.654582815853579501e-03,9.797248630473736952e+00
-3.155720642247232706e-03,-1.145543655001471546e-02,9.791059818673984338e+00
3.335779888645136297e-03,7.073656035341638684e-03,9.793295374701267875e+00
-8.281015654696223527e-03,6.535067551796732745e-03,9.797211884342148736e+00
2.450162217603613600e-03,-1.481342799512650778e-02,9.794783282930378476e+00
4.169647647997325787e-04,5.633298813410058184e-03,9.790146378829954088e+00
-6.925026975483439609e-03,-8.562626701712561586e-03,9.789773331813714563e+00
1.170594773534208190e-02,1.250933612650622371e-03,9.800098780025519929e+00
1.079967697705753885e-03,-5.857286879094165261e-03,9.804128633672045012e+00
9.224047809062451992e-04,9.483190822075996534e-03,9.794270521331894130e+00
5.087906049888560843e-03,5.299493641599380134e-03,9.802530702348933644e+00
2.868205742582585240e-03,-5.938647032515369760e-03,9.796371208206409165e+00
5.430654777578034983e-03,2.957102803935623449e-03,9.792495249038827509e+00
5.160922131064430221e-03,5.882827842748246383e-04,9.791192187650180401e+00
6.159347677776050474e-03,4.825767421967492102e-03,9.792625458698438479e+00
6.678878248974010751e-03,1.920686095729923996e-03,9.804595017554824210e+00
-3.054707340853378330e-03,-4.867722518045809917e-03,9.795154214099143886e+00
-4.221818720549002854e-03,5.361290978286914477e-03,9.809433860160677199e+00
-7.746169168114018164e-03,-3.722721331319490522e-03,9.792998005899988812e+00
4.062502399349791904e-03,3.356871235795728416e-03,9.789078333865003145e+00
4.408425009066863250e-03,-7.248736750817150187e-03,9.793156219493255321e+00
2.267661037322719376e-03,-5.988210053708573066e-03,9.796314229333267676e+00
-3.542038505188161227e-03,2.617409961656554096e-03,9.800536076376621608e+00
1.648866318682638138e-03,3.999605113684256280e-03,9.796684205059445816e+00
-1.860293822961409799e-03,1.617949081471568851e-02,9.802137589462969203e+00
7.240651727945261653e-04,1.018326517905747235e-02,9.800338115713193687e+00
6.927795124437327243e-03,-1.412206379576922679e-03,9.790135724394080086e+00
6.771411998270012193e-05,-1.629888386233460922e-03,9.800460870534029922e+00
-3.207424704834558726e-03,-7.024560066009406713e-05,9.788976859702605893e+00
2.212150208180645866e-03,-4.462587233786787302e-04,9.802363078657359452e+00
5.501259270762318479e-03,2.625772090652600619e-04,9.796268401159357708e+00
-7.613192650449247811e-03,-8.311329976534817532e-03,9.789347909116228763e+00
-2.074304504845082310e-03,7.033394125110290288e-03,9.793336090317934506e+00
-6.604975541009156653e-04,-1.513575036093474640e-03,9.790344754713229847e+00
-2.135714236645503035e-03,-7.326561552484175260e-03,9.797820217219150862e+00
-1.165429149672690505e-02,-4.504997173515381918e-03,9.795539160484461050e+00
3.651000798932014461e-03,1.089098403573509830e-02,9.799551332349452082e+00
1.467829262909074641e-03,2.334721969465142818e-03,9.789189998635000833e+00
6.137374733445626410e-03,-8.993755536257584107e-04,9.793802901209016198e+00
-3.659078780577796480e-04,2.227064249395943087e-03,9.799358408473738180e+00
5.435181243409599634e-03,-8.891851760615266179e-03,9.799001860348505843e+00
1.271186567823824522e-03,5.110983040826683546e-03,9.794449155073545299e+00
2.237783397226187406e-03,-1.771811611378262992e-03,9.793114325568557987e+00
4.621088676422636411e-03,-1.102924298626464100e-02,9.793456162139248633e+00
-1.460414604895631354e-03,2.950735199837244745e-03,9.803887059490154599e+00
-1.856619105182757143e-03,4.703156201024115760e-03,9.799435685691271658e+00
-1.640836167503434851e-03,7.898370213111608265e-03,9.789490548958385219e+00
2.500709638377287929e-03,-3.348780127856334880e-03,9.792459364101111063e+00
-2.924828763011319034e-03,2.361543498969862626e-03,9.785010734931280041e+00
5.152405053912872956e-03,8.453670785724665820e-03,9.798520315633675537e+00
3.406901333543423723e-03,-8.191212442985523279e-04,9.791516035991378430e+00
-4.551610650378188141e-04,-8.570751494678285247e-04,9.789867533945274758e+00
3.313557069225738384e-03,-1.060740237803294364e-02,9.785272818377331205e+00
4.557104195707704572e-03,1.046699744700647569e-02,9.787345158393815581e+00
3.631709384457951044e-03,2.637637242090643507e-03,9.799842384631602954e+00
2.193336916825889670e-03,2.881915221392123902e-03,9.799576146055663628e+00
-9.889556055401292362e-04,-1.082392452484999502e-03,9.793007434706844094e+00
-5.009982988412863339e-03,3.722255901597497883e-03,9.802369391899315332e+00
-1.687377740725454819e-03,-4.412740912731417421e-03,9.798756914078486702e+00
9.275230715076427518e-03,7.142013228764974853e-04,9.792045838848380868e+00
-1.086070155573563845e-02,-4.951815183058471629e-04,9.802248635149931388e+00
-4.058227203222070437e-03,-2.270252029328756384e-03,9.786060877839714678e+00
5.376072994882121966e-03,3.150962367845689879e-03,9.800046863362190663e+00
-2.685953426710155530e-03,-7.371438001653869004e-03,9.786514396871801580e+00
1.053766664383144346e-04,7.335797225021950529e-03,9.793209216816210372e+00
-2.701929334663668355e-03,3.634228616000671677e-03,9.788794301634311523e+00
9.868822874734887139e-04,5.831573207976956455e-03,9.800527444335552119e+00
4.168447774136914766e-03,-9.273125920383647885e-03,9.795150108504815378e+00
3.331629922561529355e-03,7.087723750645352934e-05,9.792769503081720117e+00
8.501803484881734208e-03,6.088407295592249135e-03,9.796554144453589075e+00
-4.157019732975031009e-03,-2.973531223606997245e-03,9.795706705495083710e+00
6.746083652006920617e-03,-3.221507591113581450e-03,9.805206877135482557e+00
-6.213782021137183309e-03,-2.546171056592180446e-03,9.794537278318978579e+00
-7.535488785201452377e-04,7.072009026250624698e-03,9.791193654478778541e+00
9.344044613232221430e-04,5.583660821453753816e-03,9.793040513655428825e+00
-4.837720319949607821e-03,5.564048045657792041e-03,9.789374167701991425e+00
3.058848083616281729e-03,-3.917287459234316573e-03,9.790081732731726660e+00
-5.301241523107550271e-04,1.292143079845893376e-02,9.788622533651102131e+00
9.949778197257216905e-03,4.162552042080068515e-03,9.798662612026641128e+00
2.388215407594615567e-03,-4.451410371085613021e-03,9.805976000621351218e+00
4.737668148286043601e-03,3.219681705868835883e-03,9.794210314984256982e+00
-1.198613798141059429e-02,6.881491272046687691e-04,9.791418976004088393e+00
2.758782759846173382e-04,-6.497309802642243191e-03,9.803109302914842615e+00
5.314538786396146713e-03,-1.809027605318130633e-03,9.798838473831793294e+00
-1.006844272933990654e-02,-6.032097794947535903e-03,9.804106378435122338e+00
4.994177690004199428e-03,3.563201703957745610e-03,9.810471729178896538e+00
5.454709729951663644e-03,-1.338498475968765518e-03,9.797219459409753028e+00
-2.637008318521626322e-05,-1.042620534371180990e-02,9.797778646535126867e+00
5.680706812564348916e-03,4.400017260881082352e-03,9.794962838656847026e+00
-1.053685031090727600e-02,1.142645452869016452e-03,9.795869417947022484e+00
9.487088442491591186e-04,2.526590186733925630e-03,9.793567519104440677e+00
5.724254222766446583e-03,3.233408394613737202e-03,9.802196654862715519e+00
4.756280468475698221e-03,9.814160244443058401e-03,9.793426463373469559e+00
2.877550250869027361e-03,1.438430704440995427e-03,9.802147448359242787e+00
-1.231624118335671080e-03,1.408364434093540077e-02,9.793262636257033193e+00
-1.486108032833015043e-04,-9.360662770936931977e-04,9.787175880014462592e+00
-9.222435816264743045e-04,-1.821246142846182038e-03,9.797094647783486820e+00
-6.043337106291511371e-03,2.093609022420619796e-03,9.799977981885172440e+00
3.012740432650448316e-03,1.657364226573839047e-04,9.790145934898500713e+00
5.582807947329969205e-03,3.429438648971286363e-03,9.795289972077833696e+00
3.450206132535342009e-03,6.970600523943266784e-03,9.790830907655646342e+00
-3.742121501491352080e-03,1.726064168176081161e-03,9.802162014316920136e+00
-7.820872263678658532e-04,7.862445512006707021e-03,9.798173565969470644e+00
7.950002904358358449e-03,-5.926660161888361485e-03,9.798056818606024621e+00
-2.606207659095884782e-03,3.327525854091328925e-03,9.791515339751995839e+00
-1.502848705345005047e-03,-4.663653188370338668e-03,9.786820324860324050e+00
4.403399033810245951e-03,-5.345338510189000030e-04,9.798033236800865353e+00
-3.414416975547539864e-03,-2.302048377108401912e-03,9.796258374619506881e+00
-1.092252843790893213e-03,-7.430970411790273171e-03,9.793455647176191547e+00
-5.300322776917533452e-03,1.188112980436124280e-03,9.798486827921305320e+00
2.553696345887571887e-03,4.171323490872005154e-05,9.806864229904073582e+00
1.552441193592575888e-03,-1.850878309676105100e-03,9.793077930540837528e+00
1.825173389377420094e-03,2.554605827559736607e-03,9.794871842100048909e+00
-1.811729717899131838e-03,2.044607576632937948e-03,9.787594422831720209e+00
-5.344251403230855339e-03,1.683208218686212424e-03,9.793825510564658998e+00
3.335131127183343577e-03,9.269654221082349044e-03,9.797386666778589159e+00
4.772795581548066571e-04,9.043099123846168102e-04,9.802561999505826407e+00
1.359174952692962599e-03,4.869186270026102346e-03,9.800990342457147619e+00
3.939712739083191077e-03,-1.529460903580379637e-03,9.802745845467828900e+00
1.530118901710704709e-04,-6.361517832699586927e-03,9.798177015155044245e+00
-4.844132928862978846e-03,-2.381396755795676078e-03,9.796357517689452621e+00
-3.979816109028428382e-03,-1.549480268704868033e-03,9.791017723292057440e+00
8.636164670706667282e-03,3.454381717543811119e-03,9.798667254567815732e+00
1.460999534499783236e-04,8.197888706594799561e-04,9.793454430976375136e+00
1.322035544073959200e-02,6.329468910950106567e-03,9.800853715415884793e+00
-1.050825276717785211e-03,-3.396925326692951629e-03,9.783524816458811557e+00
3.632666655932869325e-03,8.908106508380256999e-03,9.793901289348646344e+00
-1.835191052927115504e-03,-7.515095745447624917e-03,9.798169044948492612e+00
7.245446724911709657e-04,-5.490542824413527411e-04,9.796287143876270420e+00
-3.526739516831506500e-04,-7.898061619584148801e-04,9.790611742965609210e+00
-5.441688998703390033e-03,-3.242825370417339124e-03,9.795361534214567456e+00
1.187601444492259080e-02,1.829841377813041289e-03,9.794470689878911784e+00
9.785501503696896961e-04,2.870090863426076350e-03,9.794468688024306147e+00
3.424079249999942634e-03,-1.784697403925247219e-03,9.791301896441064301e+00
2.414141724498049084e-03,-1.949845839567914720e-03,9.797528595353625747e+00
-3.460260202233312720e-03,-2.994108806832831548e-03,9.793668840960640054e+00
-6.519942583900394974e-03,7.403993952920052100e-03,9.786337425130746226e+00
9.221708030768436745e-03,-1.458754784487832374e-03,9.792027572141648761e+00
-5.267040755082450301e-03,7.729233957123144046e-03,9.792411639732717887e+00
3.492034389669879026e-03,8.931223278417672884e-03,9.790791062153015645e+00
8.175883183410595847e-03,-4.766577577529999658e-03,9.792085588535018204e+00
-1.534650249384463851e-03,-3.890592547640895748e-03,9.794198422245084856e+00
-4.450057552881386824e-03,4.095465906039643875e-03,9.797256579327578763e+00
2.289545861855392535e-04,2.338272733782449046e-03,9.797859448918639913e+00
-4.094919520138948221e-03,1.209619347775997989e-03,9.798471066950305897e+00
4.140559181954022415e-03,4.840618325876024607e-03,9.795951785284252367e+00
6.338313449945192149e-03,6.717448138795982081e-04,9.791933264741196297e+00
-1.820631405106945024e-03,-8.471677770607097605e-03,9.800687950786217684e+00
8.032879410327899627e-04,-4.187262333617152756e-03,9.793988933547185027e+00
-4.728864255891824381e-03,-6.264396006565803657e-03,9.787328108104242474e+00
2.301713531488536711e-03,-1.428375650801784382e-03,9.799258203627060126e+00
-2.284929101465328107e-03,6.262350098277576042e-03,9.790689269876454048e+00
-5.638489921047290521e-03,5.729812651359970227e-03,9.804151955419671438e+00
2.632037320952216024e-03,4.080544859615362584e-03,9.787128335193596484e+00
-1.858541658555286271e-03,1.590048651783356609e-03,9.797020424813215556e+00
2.966300741755254280e-03,2.000055646983251844e-03,9.796491800136925221e+00
-1.678131890959621642e-03,-3.379896384273983149e-03,9.794207915041623025e+00
4.823558855469884527e-03,4.994612128561848503e-03,9.791150337478445209e+00
3.612708735189762432e-03,1.183581188882914213e-02,9.807009542324333751e+00
1.671383753898881500e-03,-3.321198427919942568e-03,9.796086061018687730e+00
-3.762032780617194806e-03,2.777065059723678696e-03,9.797383352289031677e+00
-2.141606529918725545e-03,2.281186410010733415e-03,9.795903805378610940e+00
5.579938063367439333e-03,1.804909023718640816e-04,9.793728662971862065e+00
8.492625623303877436e-03,4.779581953417879128e-03,9.792937165188781989e+00
3.102893852080834507e-03,4.981792879240685111e-03,9.778973951292964983e+00
-2.337229273293917140e-03,3.252164774067300805e-03,9.789520032469102517e+00
-4.618527507198596366e-03,-5.745871247496201970e-03,9.793008312603674881e+00
6.642122703414386937e-03,7.070401428975001817e-03,9.789430660793232875e+00
1.539348136382893322e-03,-1.445253834969938101e-03,9.801958504597486410e+00
-2.812733132494853617e-03,1.787410352718626894e-04,9.797474965490255983e+00
-2.475104597280604855e-03,-1.734277776005353506e-03,9.799090045564637919e+00
1.742788940861196567e-03,8.239731601072554715e-03,9.797416341317042310e+00
1.779714981638349115e-03,-6.639425611498345897e-03,9.799431518269688723e+00
-8.836543597873879399e-03,4.926385389904937469e-03,9.789113719196450347e+00
5.615102432177722716e-03,-5.136235181792516216e-03,9.798211727841243501e+00
-6.469784814834205443e-03,-3.926289745092017072e-03,9.799249909059641439e+00
-1.315518437281668236e-03,2.011015639693974118e-03,9.804143850499650981e+00
2.113117443444488888e-03,-6.699209271231550047e-04,9.794798585241327515e+00
-2.057320989237677519e-03,4.246792055166462646e-03,9.794763406565554220e+00
6.111600735137703985e-04,-4.131774850184243269e-04,9.788479231015779547e+00
4.921771552353046246e-03,-2.517261506389560297e-03,9.798102812767471193e+00
-7.964905617325063886e-03,4.973109911471845562e-04,9.795729417160579544e+00
4.772449779136191117e-03,1.062321019990015471e-03,9.797871360338591629e+00
-9.018780945664283538e-03,6.673878965639365619e-05,9.796353091594859563e+00
1.854379961608278431e-03,1.261543072262175363e-03,9.790773769278096950e+00
-9.672605976234989467e-03,6.075256772891371795e-03,9.793379687205142403e+00
5.627590760256696162e-03,5.668598470133526246e-03,9.798086073916232763e+00
2.110543194985774586e-04,1.047294847964268943e-02,9.788697951008842324e+00
8.162343608653309032e-03,-1.451594963382315607e-03,9.796286973770019557e+00
3.451617075854645188e-03,2.099255324752453619e-03,9.798493808470906785e+00
1.548900997730432100e-03,8.215266455831318152e-04,9.797020278232256629e+00
-3.894964577656733970e-03,5.103690870918353197e-03,9.802879053028030754e+00
3.563337237336619730e-03,7.645944385438268112e-03,9.800087661382322679e+00
3.653204346621083572e-03,-1.833030949473035383e-03,9.795459299747015791e+00
-3.732376272855219244e-03,-5.285518849943039027e-03,9.807098047565977694e+00
-5.111033284770109472e-03,-6.593056565641277657e-03,9.786343399146712585e+00
7.411496152631290475e-04,5.320371271834697068e-03,9.801326903317900019e+00
1.079451551556903817e-02,-1.495654082293931342e-03,9.789975300914177225e+00
-4.650188316230783291e-03,-6.469746341142206675e-03,9.807304158760116408e+00
1.432575348128507960e-03,-4.532258991113122942e-03,9.793071546319222165e+00
6.701536673211634133e-03,5.677179451459271955e-03,9.792949189855903569e+00
-2.134725656066384456e-03,3.264113854750196747e-03,9.789976540015512541e+00
3.576104002513448305e-04,-4.146803331536524917e-03,9.794401603414351953e+00
2.679400687783841349e-03,-6.094251966829888900e-03,9.793237629354708318e+00
-4.369498580793282697e-03,-1.708290786412577315e-03,9.799573579858151362e+00
-4.322443255183942151e-03,9.504548152824626034e-03,9.799730337636907151e+00
1.207686164988829546e-02,2.341424783048586412e-03,9.789240734000214772e+00
2.547114385059519488e-03,-5.771066448283168442e-03,9.796615697512224941e+00
1.053755461006592072e-02,9.340638414696237485e-03,9.791804937616221949e+00
2.242737451743350915e-03,2.792592699453615677e-03,9.793497299061760586e+00
-1.562071083992952730e-03,7.938094641218204975e-03,9.796096675312135460e+00
4.868399849388230574e-03,-1.805088038054555866e-02,9.790739328002718622e+00
-7.090711719626873258e-03,4.871636718533339967e-03,9.796815577297167010e+00
1.966810808537291632e-03,1.119284639193852439e-02,9.797405367501927032e+00
4.489414471583640792e-03,5.022082029368225495e-03,9.790128532538567185e+00
-1.945631161996610320e-04,-3.246642496973072608e-03,9.794895559060970314e+00
-7.417465054475691575e-04,5.906739387571783087e-03,9.803664413304760572e+00
-5.427063388032027716e-03,8.255616935697630832e-03,9.798941401226038295e+00
6.203860259992417629e-03,4.287974405932076100e-03,9.801059623387269326e+00
9.717526779568851081e-03,5.904089378270832578e-03,9.794104021955812200e+00
3.521752796182246389e-03,5.145372453041957084e-05,9.795130104287414596e+00
1.324963430329548653e-03,1.050306558004390073e-03,9.790177709129777028e+00
-7.944882868489003269e-03,4.802293342697774685e-03,9.796113519735694553e+00
3.118340637747275823e-03,4.139774017838252287e-04,9.792353566748536409e+00
1.828487530966409896e-03,-2.902759818859692274e-03,9.786644490686352782e+00
4.483890316786634175e-03,8.351242830611227408e-03,9.792978982313039538e+00
1.128768124320659932e-03,5.661885413018985513e-03,9.799515255972618633e+00
-5.396347721636739203e-03,-3.567477552653291941e-03,9.793885743181636627e+00
1.338620036065983100e-04,2.042881737592583229e-03,9.788347668385050326e+00
2.147583737726508138e-03,-5.853266421163642354e-03,9.791638861906093894e+00
-4.442878248283745925e-03,2.074283178517563695e-03,9.797398497667554551e+00
-1.680674944839874799e-03,1.549421327951991780e-03,9.787385109103837522e+00
-1.418518057398032847e-03,-2.317344328649929147e-03,9.785694627533226608e+00
-7.031912505035063654e-03,-4.452188407014859468e-03,9.795128254315958571e+00
-1.041474058563917737e-03,7.362562225985670727e-03,9.804832103566877066e+00
-3.446641961385411238e-03,1.198542457318137536e-02,9.796078849607109618e+00
4.187348152838065579e-03,-3.860041670301293782e-04,9.795730741859552282e+00
-4.699577381440061749e-03,3.390372164334459672e-03,9.801938358925118777e+00
-9.040395421029082806e-05,4.974771454904948140e-03,9.786051384590848556e+00
-1.278949653332758698e-03,-1.517209157616528385e-03,9.803832965320836479e+00
-5.295254726913519935e-03,-6.751974530466467624e-03,9.795901966556895601e+00
9.106264466685717179e-03,1.862820036968993679e-03,9.790202472585757931e+00
3.018635671529899811e-03,6.177178869969859355e-03,9.798839882300274695e+00
1.933325297859006834e-03,8.094219543504052247e-03,9.798759213675124258e+00
4.713601208916868603e-03,1.264028252012066754e-03,9.800148807650909788e+00
6.351818844889417937e-04,-3.520642287153335874e-03,9.805775955799798993e+00
5.760703513595176852e-04,5.236716565625578260e-03,9.794643748673156125e+00
3.778477760990649106e-03,3.213356516072060198e-03,9.793715877461593777e+00
-7.747462331660777933e-03,-4.553361510805606707e-03,9.787998253016569450e+00
5.096588554917812208e-03,9.088892288014610316e-04,9.796493269455337938e+00
3.055660778812025261e-03,-6.094488917861019296e-03,9.796618296763250910e+00
-2.642290924047804249e-03,5.075917406561441733e-03,9.789763280084358144e+00
-4.308365138359827699e-03,1.339726677310609576e-03,9.800902273312356527e+00
-1.604472729125586312e-05,6.883302028026263815e-04,9.797580285821583246e+00
5.920494966777052614e-03,-3.148277121846556822e-03,9.786642177583990687e+00
9.621284664820364037e-04,4.437722856403468821e-03,9.798227199195947534e+00
6.233860941386914524e-03,8.793955166172737897e-03,9.805177066926782814e+00
3.706746303060530143e-03,2.955135938622433910e-03,9.801377145202579300e+00
4.726238178337815662e-03,1.898951153928437989e-03,9.805458783437586590e+00
-6.978311842352466488e-03,9.722348402629718209e-04,9.789691945797935446e+00
-5.213191719451611833e-03,-4.752844061880982102e-03,9.799922193943279680e+00
3.342228859841667957e-03,6.222779214939197848e-03,9.796343538257065831e+00
-5.524248327661087331e-03,5.588688660666247913e-03,9.798677140233214899e+00
1.968738017066904138e-03,5.319958796995185625e-03,9.792535794487527312e+00
-6.310371881686980752e-03,3.524145707881882247e-03,9.792752383306705610e+00
-4.878077300522083541e-03,1.164570132898776374e-03,9.799066750496272959e+00
-9.911783987351487427e-03,3.171377080597978775e-03,9.800774261314529667e+00
4.983772977661378098e-03,9.933614885755523080e-04,9.800813320813634988e+00
4.297671896469256771e-03,5.943307091610899959e-04,9.801057691669232241e+00
-1.856085864187586448e-03,9.289689355811262678e-03,9.803534234974035755e+00
4.024607868502815379e-04,4.782212343674168212e-03,9.794506021783274008e+00
-2.210266584084060425e-03,4.888581063186862776e-06,9.805293461372352581e+00
1.627840491192169160e-03,-6.248958620896966423e-03,9.796559472858538342e+00
2.113230014637962513e-03,-3.649471898969336957e-03,9.802487865937587586e+00
4.677959174718940467e-03,6.686137145213119290e-03,9.791494346757080081e+00
-2.573918175660233447e-03,-1.028667287481275887e-02,9.797874015217615806e+00
3.068116798949639592e-03,6.875934770264062815e-03,9.799582880400777185e+00
3.424433585823890430e-03,5.441975659371302287e-03,9.795408570615212085e+00
5.867160481968876871e-03,-3.679150872676168263e-03,9.793199621282582257e+00
3.781189215292814188e-04,5.078181592219545293e-03,9.800066012350566069e+00
5.136368842310810173e-03,1.036864652068844941e-02,9.795631219255474420e+00
9.750487293213601359e-03,-1.470510556025504461e-03,9.796888764195486488e+00
6.611343513390034038e-03,3.019222211470233043e-03,9.797640664732259808e+00
1.471916774916108474e-03,-3.604241953249967892e-03,9.791441845705083580e+00
-3.798932385808212291e-03,-7.976436621948983577e-03,9.798429554283970333e+00
1.139973864167257139e-03,-4.634608704529382013e-03,9.788428049115466933e+00
-3.850999118317616470e-04,-5.148599834227755682e-03,9.803082781399377055e+00
6.217413791330041184e-03,-1.554133545629169180e-02,9.794659575310392441e+00
5.160371132432312047e-03,-4.154459757493223632e-03,9.797379789318187093e+00
-4.071072907194325102e-03,1.046303705565538797e-02,9.797027880624778362e+00
-5.736897221425649868e-04,1.061868197130275658e-02,9.795094763255766779e+00
3.539006237671461427e-03,-8.030552508252242205e-03,9.784940572572198292e+00
1.487241126857340428e-03,-2.799742997311369802e-03,9.798072791702333362e+00
6.943486456773654072e-03,4.083021276359254971e-03,9.799295743399881076e+00
5.466145770055235234e-03,4.987837282142238782e-04,9.794611629056014124e+00
3.662222234271440054e-03,4.116347558910321038e-03,9.799894420195627731e+00
1.977009298579371572e-05,-2.315495912245642621e-05,9.792381792827290710e+00
2.502557554544482688e-03,8.869483106859707769e-03,9.801256642209214220e+00
3.427079772879359013e-03,-1.744378862325511332e-03,9.802542205708082435e+00
1.236321784228715899e-03,-9.136508649958052439e-04,9.793119567838596495e+00
4.336160438247830748e-03,-6.786023046007837699e-04,9.790774674064364191e+00
6.494912575933633504e-03,-4.552547459582296369e-03,9.796259036783235175e+00
-1.463007556112038907e-03,3.241403286667569363e-03,9.787637805808829583e+00
4.127325780940078494e-04,1.670376184939338995e-02,9.801411265921561977e+00
5.388026153123297649e-03,1.399250259578579654e-03,9.789805165641384477e+00
-1.608914750180383008e-03,-8.078019873733710901e-03,9.805587295338920484e+00
5.114516309503446684e-03,8.521683429124725720e-03,9.793251419590822238e+00
-2.118923112588740401e-03,-3.240746580423248605e-03,9.796437890153645967e+00
-5.924652677116114784e-03,4.263372529315343808e-03,9.797197741974599694e+00
-6.495128596776682944e-03,-2.350635627492950620e-03,9.790979798721252791e+00
-2.118927660668447951e-03,-2.370115259351236129e-03,9.798260600424153921e+00
6.864775749792424372e-03,-2.107169544711425153e-03,9.804439193822453547e+00
7.648026327638910403e-03,7.162486353521114318e-03,9.791750916258914472e+00
-2.056936488879898463e-03,-3.405027453526354633e-03,9.793393461268816935e+00
4.816481053868735054e-03,-1.239283561368735923e-02,9.792502114259802326e+00
3.460502226873411399e-03,-4.873148957602606475e-03,9.791856405699377319e+00
9.450677896451317901e-05,6.191659465238918969e-03,9.788571604899793499e+00
5.163659761051402584e-03,5.667094334027036190e-03,9.793386200061631186e+00
-3.388941742536725164e-03,1.088598246632894832e-02,9.798833241976753428e+00
-2.264961231837343825e-03,5.824989069923584319e-03,9.786613047358725836e+00
-1.760785500793783783e-03,7.934080796994336451e-03,9.799873234378539522e+00
5.719976915407111754e-04,2.540705626850372264e-03,9.798520699288568281e+00
2.071742877107368187e-03,-1.222459621583680059e-02,9.789473801449148027e+00
-9.931794254524001567e-03,5.168609786632555325e-03,9.801858747923477111e+00
2.973409453140811107e-03,1.836444212872329583e-03,9.790672012548359504e+00
-2.241516492591195953e-03,3.455080587374020646e-03,9.795441395000567653e+00
2.901659396909525438e-04,-1.842278679330262544e-03,9.797668719041904950e+00
-2.913653307745711282e-03,-6.882993441935424464e-05,9.783859652235438631e+00
-2.142819276797258959e-03,-4.035435879497254949e-03,9.793630915428462202e+00
1.035421431969801853e-04,4.206451219194761240e-03,9.790930551523436165e+00
2.425435348226290776e-03,3.128584389158819545e-03,9.790181908653895704e+00
-9.800155960999622391e-04,-2.576880921649183330e-04,9.797622796023985003e+00
-6.891103248369712803e-03,-3.453517300164340564e-04,9.793304283764534546e+00
6.233601712897751321e-03,-2.412112518368506216e-03,9.789934844217571097e+00
4.391825755026636073e-03,4.717913775567132879e-03,9.794995205006006955e+00
-3.564467248212845659e-03,5.978667118935332946e-03,9.788233289780688295e+00
6.330440342288524459e-03,-1.783175050858500262e-03,9.799137066502339621e+00
-4.839600347674373124e-03,1.585530679031835026e-03,9.799093761819133164e+00
3.585445624337844049e-03,-1.684365493370504341e-03,9.792904093050692538e+00
-6.049596973594540891e-03,2.461387676107562508e-03,9.801481819592241962e+00
4.022754816587097767e-04,-3.356452133099179901e-03,9.804983409586355947e+00
-5.376833482699062278e-03,6.789773943052915955e-03,9.797142150965857610e+00
1.742929968875925502e-03,5.771934401961764487e-03,9.793380782512583593e+00
-4.517310231224413823e-03,-1.081995849206899771e-03,9.795835764074517726e+00
-4.704707734945641484e-06,-5.827461526952346918e-04,9.800419291908951891e+00
-7.456566071553183492e-04,3.552968890790337642e-04,9.796646284500774016e+00
6.811209682779713771e-04,1.723299438341370764e-03,9.790417025121490369e+00
1.758750967642131032e-04,4.773599167750697779e-03,9.791607045544596488e+00
-5.229250080989970330e-03,-3.286789941918451252e-03,9.793056573734558512e+00
-7.454870976291392073e-03,1.004236827121259522e-02,9.797241735098179305e+00
-9.484034606173714216e-03,3.599688225170994890e-03,9.798085667227892870e+00
-1.940404525837019934e-03,7.429055893020302184e-04,9.790753147783558319e+00
2.180615742152428819e-03,4.009157845489632471e-03,9.792091478568956120e+00
-9.691622346143513589e-03,-7.273860292484402197e-03,9.784928179687151228e+00
2.604005188238776186e-04,9.745789515290778290e-03,9.805404421568971074e+00
-2.204580462647019040e-03,1.341100682521087625e-03,9.802654739516501792e+00
-2.054519242008168156e-03,5.546478927061589473e-03,9.788016787065457081e+00
-7.829896463499200210e-03,5.691877435702106906e-04,9.793993289783864853e+00
8.890795145940768099e-03,1.457088767103847720e-04,9.795170581869843573e+00
-5.472990525949738248e-03,8.558182369007403742e-03,9.794620688403831821e+00
-3.804888435930553351e-04,5.092629321561382982e-03,9.803398413949475199e+00
-7.070636854930406785e-03,2.422228286165072769e-03,9.803900377996088267e+00
1.512530674797434201e-02,2.564781994112365696e-03,9.789443137124601790e+00
-5.880791895144112276e-03,2.690589584212014010e-03,9.796634775847209653e+00
-1.638236357145592126e-03,7.923883239602519737e-03,9.798526339227525028e+00
4.611653929185325317e-03,9.414895581543170338e-04,9.797725094181767957e+00
-5.374060093484866497e-03,-5.439939206575702263e-03,9.808083584808063193e+00
-2.985279752594874412e-03,-3.561231215775058617e-03,9.793446426540583616e+00
-4.382219160140628754e-03,5.450951484625395256e-03,9.799314917927896218e+00
-2.426697889050205646e-03,1.416961677659326225e-03,9.791895217710830934e+00
-3.183707627951603072e-03,-7.544535030521538422e-04,9.797193856885877850e+00
-9.903910117683937392e-04,-7.313481612578044862e-03,9.785900790705177599e+00
-6.244912791350970896e-03,5.512053739202149409e-03,9.793842748216565752e+00
-2.498186450741319599e-03,-2.990053739952344518e-03,9.789351557259024617e+00
-4.229636117529214819e-04,-7.867309191617070582e-03,9.791248819512439638e+00
-3.378861123808013251e-03,-5.989904145237767881e-03,9.794136200087391941e+00
6.383588615238754843e-03,7.937331899022018883e-03,9.800546158999962287e+00
6.799995084374793261e-04,1.808358469822711045e-03,9.789726369176152687e+00
-5.957636725192611352e-03,8.943713114218758420e-03,9.797128161793544621e+00
-4.504975355429945497e-03,-1.038230518474676269e-02,9.794446924049468706e+00
5.243298310006850455e-03,1.677228569788732481e-03,9.795334759657324142e+00
-7.038870487742104106e-04,4.760528454962047185e-03,9.789773844085416954e+00
-3.572996718580776637e-03,7.181257052977874610e-03,9.795563579289430223e+00
-7.164933195122759162e-05,3.171644307640259126e-03,9.795969795703836525e+00
-2.610114667222855275e-03,-4.811979679271446465e-03,9.792950772988904262e+00
3.184453067208575794e-06,-3.219698323095054188e-03,9.791780138320545390e+00
-2.518032111629740300e-04,1.388273322726776490e-03,9.796543464327802653e+00
6.098692287975129162e-03,-3.614467570826815617e-03,9.791455529027867755e+00
-1.479070092629639066e-03,2.297426347716442752e-04,9.801557029994368619e+00
2.430161390624427029e-03,7.527236338717526766e-04,9.802075723437432941e+00
-5.499730429638105891e-03,-1.978600254860404979e-03,9.804724758739624235e+00
-2.348503093779452568e-03,3.125794254811237530e-03,9.808275398774739529e+00
-4.282482314361583421e-03,5.971150176826639858e-03,9.792449869113346139e+00
-1.940006531085329989e-03,-3.396227102101535269e-04,9.794741426384304006e+00
1.406759292972961043e-03,-6.094749275134786481e-03,9.796403487843557301e+00
2.024052575775301711e-03,-8.547830762413773792e-03,9.797355419106475338e+00
3.182096400298910482e-03,-6.909015676318399192e-04,9.791435956438421684e+00
-6.154363102338163485e-03,3.660529085125708497e-04,9.803128161750610303e+00
1.140738831866866705e-03,-6.590179728193932066e-03,9.793947808155147428e+00
8.215864118073525589e-04,-5.841139373985808868e-03,9.803947929197970979e+00
-1.126613505244946668e-02,4.301151071814460214e-03,9.792125994781450515e+00
3.106847611626906494e-03,9.038122880980431831e-03,9.791830446155122658e+00
-1.793445462629240754e-03,-7.219807506028587049e-03,9.797117396222080998e+00
3.217018376213002032e-04,2.823912143074356652e-03,9.798542293819627602e+00
-1.559639173458598430e-03,-1.296455846586335283e-03,9.801284168660748364e+00
5.648196375475978727e-04,-5.096987908274601235e-03,9.792149792014186005e+00
5.277787235016943336e-03,-2.025182675941351006e-03,9.795001337218803172e+00
1.565640834922332747e-03,-4.766192176351099780e-04,9.793204222647709400e+00
1.570865661110534871e-03,-6.760536737363042302e-03,9.794839903220687205e+00
6.326422128138381798e-03,9.460293441526658811e-03,9.797958389244794120e+00
4.850250172666241942e-03,-6.297516034727649974e-03,9.788669024995648726e+00
1.913159723096435807e-03,-7.365820966943249781e-03,9.805875174971491859e+00
3.111438928746234657e-03,2.238112367063006293e-03,9.790070876495958530e+00
-9.364799418884978827e-03,2.439730126859286294e-03,9.791384070458763134e+00
6.427187160754305271e-05,-1.447735294485566265e-03,9.792372344073180912e+00
8.787950949254550934e-03,-4.511641876077756609e-04,9.797611124099891100e+00
1.423198014907936515e-03,-4.068079429929098018e-03,9.792152866248706289e+00
2.315862801613213003e-03,3.255802582207977490e-03,9.794168021172003691e+00
1.723605736444456214e-04,-4.244245483979357247e-03,9.797398695690837656e+00
3.857096639599524347e-03,-9.991522601328415090e-03,9.795280856436363592e+00
-1.010629799155571881e-03,6.310608072845728250e-03,9.795500811424000531e+00
2.684776221151358340e-03,2.466863845981815545e-03,9.791356335439770575e+00
-6.380355185424606106e-03,1.138209682338266714e-02,9.797396303452064359e+00
-5.332853586877308715e-04,7.520970465363069346e-03,9.796113832056629889e+00
3.988616047848166785e-03,8.127479261379178671e-03,9.796448670132052783e+00
2.878166026356988785e-03,5.303930076237745386e-04,9.790159803073727574e+00
6.405107457046990693e-03,3.953894160481015094e-03,9.796205093742500480e+00
2.179943543566039994e-03,-2.028879035812866270e-04,9.797454223676982821e+00
-2.592378973383719330e-03,-2.208227052301726424e-03,9.794487888411381959e+00
2.785729020881964370e-03,-1.322196931092765914e-03,9.795805262322236473e+00
7.766671990085963033e-03,-7.323087868069241748e-04,9.795811060684638250e+00
7.762746584776533676e-03,-3.649586822659314604e-03,9.797144444896485282e+00
-6.533439290389987490e-03,5.183387881170713023e-03,9.793305881506588761e+00
4.440840097454197208e-03,9.588294874281590510e-04,9.800941182216368119e+00
4.659742843086383396e-03,-3.058281434556130596e-03,9.801023022243043670e+00
-3.297270009577058479e-03,3.164315548637873423e-03,9.788304920335789916e+00
5.106418489072890414e-03,3.350243149633232598e-03,9.796140453129781989e+00
-7.489390165205414736e-03,-2.013142640677249417e-03,9.796358858724076413e+00
4.451160642756142594e-03,3.184175118053471972e-03,9.796069950800225357e+00
2.886132559070959253e-03,-3.066301815831282097e-04,9.789231162550271037e+00
-1.136627402226570490e-03,-5.214318798775598521e-03,9.788815574963702915e+00
5.175526085803367621e-03,6.267847649843494122e-03,9.789435480959340907e+00
5.202261932959605095e-03,5.226903303217419680e-03,9.796164953716166579e+00
-2.274342647823739474e-03,2.039524577646454565e-03,9.785263697859697629e+00
2.363251066021351387e-03,-1.506606368981430657e-03,9.784812387233891684e+00
3.791085910770840501e-04,-7.773329742239938611e-03,9.792072767330045835e+00
1.298067554589181841e-03,-9.865479229075277759e-03,9.795279891605636280e+00
1.087153114828990057e-03,4.939743427733484828e-03,9.798557161060363896e+00
1.797735215791204742e-03,5.535828987985983189e-04,9.801816180472052054e+00
-2.399467269867614112e-03,-6.203059591676692366e-03,9.800411778605948143e+00
-2.416555581755392475e-03,-3.187375930813814585e-05,9.798993654283796317e+00
-8.910597187280400525e-03,1.626685434709482930e-03,9.803177555867399917e+00
-4.475124624388529190e-03,2.454903516012068611e-03,9.793504194239002203e+00
2.558856956268731712e-03,-2.687081334026888632e-03,9.791219556192002571e+00
-1.695104269965711039e-03,-5.013802618654389365e-03,9.795498074346776107e+00
-7.440404323175391467e-04,-1.895998985633846542e-03,9.798919577835070172e+00
3.690159919812937336e-03,-4.591903209874184481e-03,9.792293259316622311e+00
-2.282788633290382813e-03,-4.092910862139383273e-03,9.788482343164231381e+00
-5.711852834718802660e-03,-8.560152938502315484e-03,9.792733887293437078e+00
-4.215174943945574834e-03,-6.993382465702690631e-04,9.792698215786282745e+00
5.882155852662881296e-04,1.414766775259811453e-03,9.803314069398306074e+00
2.499085802307545769e-03,-1.269527214610317910e-03,9.802167527221259391e+00
-1.635218614784553258e-03,-1.495913795909045458e-03,9.799887572317821594e+00
-2.143572834532455132e-03,4.667442961588138921e-03,9.791597589843792804e+00
2.900174156811716111e-03,5.675133240291773198e-03,9.796631536314656330e+00
-1.622123010962020625e-03,-5.684131749429488338e-03,9.797490106090705808e+00
8.567532357895790360e-03,3.371895887102717426e-03,9.801996713949089113e+00
1.105224437681695364e-02,-1.600034739640505271e-03,9.802035702006094198e+00
1.503752751938615016e-03,-1.084036098915355274e-02,9.790278926795389580e+00
6.301994270818816156e-03,1.415489314036931685e-03,9.796725008727451112e+00
7.044756345446063356e-03,-3.363756467822874921e-03,9.801142501216647318e+00
7.078606281475006805e-03,-5.450588392793230801e-05,9.785026078000496952e+00
4.093419340424301212e-04,-5.769073921264655271e-03,9.794620201178799945e+00
9.321486904821095140e-03,-1.917901855910984082e-03,9.788185248570968611e+00
-2.034434906825117063e-03,-7.129082996865754134e-03,9.794514511190206107e+00
5.490270293392863175e-03,-2.618058537837752997e-03,9.792722021631558249e+00
-2.563461201264409820e-04,3.732890123413830797e-03,9.789192325997239763e+00
1.443521478206821924e-03,6.074588966400366538e-03,9.797071248723185022e+00
4.624184658781361860e-03,6.176897249330132698e-03,9.796219499448440615e+00
5.775900665553943382e-04,-1.318624141740840864e-03,9.797987682404412979e+00
-1.279040036549648025e-03,4.642688175117213982e-03,9.801646559206460552e+00
1.799020925933915611e-03,-1.019216286225371228e-02,9.798840200763926589e+00
-4.104167037785311049e-03,1.670072627582266846e-03,9.801458640065106920e+00
-3.736252284996633734e-03,-3.181497113642525656e-03,9.788912394179929422e+00
1.997922597516698946e-03,2.265866074761575897e-03,9.800599338846552655e+00
-2.465216243829148170e-04,-6.089808948328928780e-03,9.794070203831902077e+00
-4.727782880042071152e-03,5.097012709233686911e-04,9.793610305610098266e+00
5.195502401876011048e-03,6.882089040423935121e-04,9.787122604254676617e+00
-5.758725678919301982e-03,6.400203379525545464e-04,9.799442627487152890e+00
-5.451258042437913051e-03,-3.705969926937192731e-03,9.793908842775261192e+00
2.310036934954197083e-03,-8.670380802418236992e-04,9.793227675872486770e+00
-3.345102870764509947e-03,-1.418937999282279209e-03,9.797644753763771419e+00
2.552472157919338054e-04,-1.390880642046708922e-03,9.788469008644890224e+00
-4.667743869862571969e-03,-1.234983816771668356e-03,9.790419859220621746e+00
-3.755545272510657593e-03,9.812779114028235411e-03,9.790344446990033589e+00
-5.356009659814758069e-05,-3.977955944474980896e-03,9.794412767615799709e+00
-1.435190818850200570e-03,-3.946113903595333330e-04,9.796803417623966226e+00
-6.168319333734216710e-03,-2.211576245618404341e-03,9.789295409894414490e+00
3.299701196050888567e-03,-1.148609967187180260e-03,9.792953392508438881e+00
-1.135638898852635780e-04,5.606613037024150113e-03,9.793073467512678931e+00
8.217049006313665010e-04,-8.966602402694957841e-03,9.794658497272992648e+00
1.294648943942255546e-03,-4.002646542345302677e-03,9.788520679803291102e+00
6.688555161111170953e-03,-5.661751511332285998e-03,9.782416400035959470e+00
4.149643620820112934e-03,-5.841022211342020674e-03,9.796108052142461275e+00
4.832916639948651831e-03,-1.079712091407920111e-03,9.796220302824220738e+00
5.278597576932480846e-04,6.689580116664624668e-03,9.795418126523962599e+00
2.930933895374597531e-03,-4.542796600622588110e-03,9.795767449689757100e+00
8.707847681521022455e-04,-1.655516366253268271e-03,9.793092662109600610e+00
-2.284094897920806253e-03,-1.646437661552768456e-03,9.795259327614813216e+00
1.758731238070061417e-03,-3.248367311611011568e-03,9.800041809884779909e+00
1.513764190563989193e-03,-4.060609448821752079e-03,9.790050354839303637e+00
-6.252460203931274260e-03,6.084698788827207910e-03,9.794476478811448672e+00
-6.251747923121540353e-03,9.750287109684407233e-03,9.800838168995571920e+00
-3.458935723265058743e-03,3.639823909970158616e-03,9.792360323474172290e+00
1.084590351582258392e-03,6.738499238525234511e-03,9.795461463888255338e+00
3.804946920157031322e-03,7.110485980962491515e-03,9.795623331951063051e+00
-8.858800030126111683e-03,-2.369065188438437223e-03,9.793279584854118980e+00
3.370797016530732975e-03,-3.189156745507428642e-03,9.791273165500776088e+00
1.091488661505224216e-02,-5.094261983975942494e-03,9.802892475428231833e+00
4.237190793990594680e-03,7.929129466140076229e-03,9.787752166578538748e+00
4.078656388738539570e-03,2.308175347732525050e-03,9.799583927689111462e+00
1.794535240996248879e-03,-1.076307213712195121e-02,9.798111565588028427e+00
4.427805196250149747e-03,-2.175441855247229987e-03,9.795671960375440079e+00
4.102744997241439782e-04,-5.798509433532044767e-03,9.799578760259393562e+00
-7.051706439458657431e-03,4.724882817030900961e-03,9.791692395337001642e+00
5.231757861824240519e-03,-7.605148944340893620e-03,9.792819594397077054e+00
-2.311547857984740714e-03,5.992153311017948437e-03,9.798249506589767677e+00
1.799006328499265679e-03,-6.795811037417737004e-03,9.795210171174472791e+00
-4.084521634593747154e-03,-6.428328604577739080e-03,9.795398694018507157e+00
6.280470205172060567e-04,-8.978525815609132319e-04,9.794888503686372871e+00
-6.387038966786102827e-03,1.490768990086439221e-03,9.802288662948837938e+00
-1.008402562708662908e-02,-3.729246509397309353e-03,9.796325009268946005e+00
9.869864164949978050e-04,-6.209855211434455683e-04,9.794772083816141617e+00
-5.800383039066190488e-03,2.597401249265172789e-03,9.796891054684916611e+00
-3.201784580039986148e-04,5.642622712045282027e-03,9.787154200003744364e+00
2.617235563800930729e-03,6.232818731469732870e-04,9.793424760800471418e+00
7.580110570377564770e-03,-7.364884377006667565e-03,9.797248086616416884e+00
1.983010082865792681e-03,4.203891953557231838e-03,9.796857497167220430e+00
8.480882570752472545e-04,-9.466536140088102581e-05,9.803487437403225258e+00
-4.356912906573167776e-04,-2.752288463855724100e-03,9.791517782206938136e+00
-4.539861124634445196e-03,3.831764801773494909e-03,9.803871100462076882e+00
-4.282699146298731864e-03,9.274523290945186141e-03,9.791752571828332918e+00
-7.090285032166940976e-03,1.636672199399389184e-03,9.795951811094333550e+00
-3.133772380239162152e-03,-3.147317901588648093e-03,9.800775629694228996e+00
1.667853578367871348e-03,-7.451959959479030702e-04,9.792177789100801277e+00
3.441959100961422460e-03,3.030288775927994071e-03,9.793388406588727335e+00
-2.501088382519400972e-03,-7.135118698905520453e-03,9.798337969193012142e+00
-4.737478055231223936e-03,-3.426110062612525414e-03,9.795587334775195387e+00
-1.025400382015478808e-03,9.692970262208690929e-03,9.796408642694776958e+00
6.356389815857060345e-03,4.292473660141628636e-03,9.797469250406553698e+00
-1.025043789918359677e-03,1.089720257619951164e-02,9.795275735803709694e+00
3.349935089883194919e-05,-2.525974429023559141e-03,9.793415026283847524e+00
7.432798741586178759e-03,-4.945293821438415463e-03,9.797001872981603299e+00
2.955813130795766422e-03,2.226710727389117055e-03,9.792423121695128074e+00
-5.395178374640318374e-03,1.986092059589804944e-03,9.790357333390204531e+00
2.066296686297214389e-03,-2.440374355241329337e-04,9.799813983708158815e+00
9.046394548847229086e-03,-8.143358297998978639e-04,9.802897709635804091e+00
-1.260786072275589878e-03,2.659975906990027540e-03,9.802185043487932958e+00
1.524587127088833805e-03,-4.136858162368132162e-03,9.795428071185458663e+00
-3.204941250120756785e-03,1.130787143204928452e-03,9.792321867151304815e+00
-7.149477625532581031e-03,4.441863272064219131e-03,9.794979094973241374e+00
3.801327424077195413e-03,-7.909270138932947974e-03,9.800695621879205177e+00
-3.823935185041636188e-03,-3.994502909518407238e-03,9.796160783223188062e+00
2.176875283132422012e-03,5.662173365302391580e-04,9.795220315659840082e+00
-6.844000194338490002e-03,-3.951973026680408868e-03,9.800410109837788042e+00
2.510666191897948534e-04,-1.599788638885429794e-03,9.796454407538679021e+00
-1.042584812745157852e-02,5.050660836280893712e-03,9.786376017796804661e+00
1.963942643408654251e-03,3.639918809514412334e-03,9.797014173928454639e+00
-1.004466334693234278e-02,3.959162589619980889e-03,9.806539757286460102e+00
3.791354877852056490e-03,-2.964627600763816793e-03,9.793654264535565090e+00
-2.826893270823521622e-03,-5.434203039296225425e-03,9.793455814282179261e+00
-5.507275035664124276e-03,-2.117820592979227645e-03,9.795457409804132709e+00
-2.557507885363278230e-04,-4.474215279052586730e-03,9.795682540497089974e+00
-8.537266118080157800e-04,7.014105898350234125e-03,9.794409430434418695e+00
1.403841367520578822e-04,4.830222580925802589e-03,9.799012458705236739e+00
1.329554069844513789e-03,-4.511459487389672673e-03,9.802897912178623940e+00
-4.016159523730778412e-03,3.507607952387747051e-03,9.800004096642814133e+00
4.231985425735201173e-03,4.478434161496952851e-03,9.796280022468264903e+00
-4.970000680810182994e-03,2.511213060883814036e-03,9.802172132389756598e+00
1.401113628870704914e-03,4.660518599822281033e-03,9.787772187847398442e+00
1.200990799924389271e-02,1.942574653849777570e-03,9.791762815729784464e+00
-2.568018271928248185e-03,-1.036939708783365293e-03,9.805096529533406269e+00
2.611009723245975769e-03,4.175494929576874757e-03,9.794632841850793525e+00
-1.492654332799186155e-03,-4.495796674837025490e-03,9.801186112939026529e+00
1.473408441695430761e-02,-1.546090252954952088e-03,9.800724735947154542e+00
6.858693635263347042e-03,7.168492716861052340e-04,9.800630309131461715e+00
3.168873183577750226e-03,-4.485222333428675809e-03,9.801666178160685305e+00
-3.825901442441595988e-03,3.275915765484721087e-03,9.799891883049971497e+00
-3.269133226782810868e-03,-7.872787640093169455e-04,9.796240865354711502e+00
8.483148941905911157e-04,-7.779917783417610207e-03,9.785190981620091932e+00
3.476946579249736140e-03,1.050593326263674770e-03,9.803969002195545457e+00
-3.218021193609750790e-03,-6.803646063349129761e-04,9.797815550919661831e+00
-1.907868304304238989e-03,-1.956177717007596441e-03,9.792400908416505345e+00
-5.915816556005230745e-04,-1.035756437623205559e-03,9.789244445959234042e+00
1.476811862680348780e-03,2.171198570051311328e-03,9.791347060937043878e+00
3.107397648516745537e-03,2.691751455508210942e-04,9.788929069405940098e+00
-9.315540516827437376e-03,6.833724147353665949e-03,9.788346986057646859e+00
4.706016540893171764e-03,5.141546014555254882e-03,9.783888828968235529e+00
-4.375446612545681345e-04,-2.529214624745769122e-03,9.796801723902273551e+00
5.257289228329522016e-03,1.899734026880721969e-03,9.796205663673877240e+00
-1.623787021719274616e-03,1.073194186320584713e-02,9.795666931630725216e+00
-5.169497340126857562e-03,2.649314028360369878e-03,9.798163784878150651e+00
1.606804494149491162e-03,1.263705258815431710e-03,9.801974189492161926e+00
-3.784972401512175667e-03,-1.475441125579191222e-03,9.796098329088909651e+00
1.182047815695598178e-03,6.769259393732760498e-03,9.800098215974456295e+00
2.099705700394991349e-04,4.670360779064209114e-03,9.791801329402868959e+00
-2.497783219211001729e-03,-1.242067587393454967e-03,9.797855024658339573e+00
4.063112792643350929e-03,-2.443065573056790729e-03,9.800196131199804483e+00
-2.571542341055066579e-03,8.913861649339747256e-03,9.791770013549646379e+00
-1.726063356888429736e-03,-6.325977574050352381e-03,9.800185835185114769e+00
2.576863170053232330e-03,7.767489296731233802e-04,9.798278257131672220e+00
4.114402290830309998e-03,1.860649627531722359e-03,9.794422146623992020e+00
-4.380895623376616921e-03,-1.080375443478813957e-03,9.798455338010564120e+00
-2.883664382605854743e-03,-1.947146767301190110e-04,9.791246641566822007e+00
3.823924569210584296e-03,2.784696801678440779e-03,9.800692053271136572e+00
4.264680738656744137e-03,-1.745012492970378923e-03,9.786761099123555852e+00
1.745779875737503602e-03,9.423137691492474224e-03,9.798864463509922018e+00
-6.887561636052313627e-04,3.002748129804988335e-03,9.789380113586855003e+00
9.532944400721337199e-04,5.325889020398099326e-03,9.791728789819954315e+00
-1.402070475153850346e-02,3.968532592257218404e-03,9.791192017364654276e+00
-1.296259229659012854e-03,3.982142022124804739e-03,9.792282316846751655e+00
4.372830678269262229e-03,1.170467144814502742e-03,9.796012872708290686e+00
-7.302983721298738490e-03,-5.687338952859826748e-03,9.788193361775448409e+00
3.382075824378851219e-03,-4.977000244816519575e-04,9.793100132090160059e+00
-8.426794552659582199e-04,1.027909376641282643e-03,9.794208746824617506e+00
6.699783987010096871e-03,-2.322328337837138712e-03,9.795970900252161329e+00
-1.577661008919941342e-03,-2.809672785593888156e-03,9.803810602137897234e+00
1.642511094359875960e-03,-5.407280203282506699e-04,9.807522596937289450e+00
-9.730779032242071590e-05,5.860299180168561731e-03,9.789904490556340377e+00
-2.800974190852401286e-04,-1.569669504443335292e-03,9.799608444271592944e+00
-1.926881976034188881e-03,-5.225115722436277262e-03,9.804292263763439763e+00
1.645812869654998158e-03,1.154591809323922717e-03,9.794463748527793001e+00
-3.280069726489964581e-03,-4.542796681219374300e-03,9.799565227591848782e+00
3.183477732356431236e-03,-4.454487316214494940e-04,9.789116995611488292e+00
-2.444340800497833525e-03,-1.217385289193789223e-03,9.789018204154450231e+00
3.191865199280230665e-03,-3.155235787780190631e-03,9.792553313131536541e+00
4.725416351001107164e-03,-4.619980666917368646e-03,9.789351628012436635e+00
-1.045032141010223238e-04,-3.870455121458521702e-03,9.792580453235489202e+00
2.438612234216039516e-03,-6.767810104500684119e-03,9.793452963390789634e+00
1.846718865914973202e-03,-1.194214789573833264e-03,9.802479539362215277e+00
-1.702037697744222637e-03,-8.107053935403486788e-03,9.807198034241801921e+00
-5.117478907460352479e-03,1.682781743911454303e-03,9.794652871246077197e+00
-2.399967357745852285e-03,2.338168463934199061e-03,9.794014773799819551e+00
3.519954066117754986e-03,-2.910766935411786618e-03,9.793366239769325077e+00
-3.661938510142051430e-03,6.612117174443940884e-03,9.787420493364232144e+00
4.513624169058906566e-03,-7.190813311517471867e-04,9.795204864540798084e+00
4.573747774066467577e-03,-6.349122653953567959e-03,9.795744891012963862e+00
4.456822561301136687e-03,-1.936522418450569534e-03,9.800020943634626391e+00
-1.207427009201628241e-03,4.766899264755762242e-03,9.798882112706079894e+00
-3.356795416853053035e-03,4.941864773164516590e-03,9.792395307810236815e+00
7.891924982474627509e-03,-3.785312291948499976e-03,9.794624099462737377e+00
6.413552566206537700e-03,-8.034815228372447311e-05,9.801527628008624760e+00
-1.802574428642394946e-03,8.475713357368621194e-05,9.797037919500176884e+00
2.454341479741549079e-03,-3.391755171005217352e-04,9.800098278062138846e+00
-4.335253632999705453e-03,-5.577797944555901166e-03,9.797620228079685134e+00
6.953489625887925019e-03,-4.175795721378823371e-03,9.799128378872802969e+00
2.769981603035672098e-03,-2.338272945844876126e-03,9.797325063534662704e+00
-1.217019455892353339e-03,4.030500384866230260e-03,9.798021262573319845e+00
1.044980147918540304e-03,3.035171786642176014e-03,9.787405588730328176e+00
-9.191762511954254186e-03,1.607596407716490455e-02,9.795752729009551629e+00
2.908018499387971141e-04,7.251694494103266700e-04,9.790510169533593654e+00
9.761171068663377845e-03,8.383157105464137879e-03,9.792886146819416382e+00
5.217905730195865691e-03,2.044634334105559768e-04,9.795329288515620902e+00
-1.583706682638419579e-04,8.238798049976278626e-03,9.792042727533848634e+00
3.438868561175980991e-03,-3.906989927530741050e-03,9.800697856466596747e+00
-3.369050760258890734e-03,-2.872741656095445604e-03,9.796924446627480521e+00
-8.649646443756647731e-04,-3.889723222087585613e-03,9.792381621991326668e+00
8.332505706149467492e-03,-2.461620541700617823e-03,9.800960112566405869e+00
-3.302647194782470236e-03,4.305730931380077897e-03,9.792205399517744269e+00
4.947252599797595345e-03,-6.160078403698037060e-03,9.798516977363659564e+00
6.992720793763561836e-03,1.481927522619517828e-03,9.795531114886072643e+00
1.464929715593798684e-02,2.576428187540398106e-03,9.796653284340013812e+00
4.223792088596036408e-03,-4.118867314986454468e-03,9.787145643516167226e+00
-3.011244545405645286e-03,-1.580506123533445811e-03,9.798935460545072473e+00
1.825215591490212102e-03,5.659548078780417442e-03,9.793205951903056317e+00
2.501895387810729350e-03,2.166291529376122241e-03,9.799455422262402848e+00
-5.410256547574251139e-03,4.585304196284081119e-03,9.791081292330169106e+00
5.985398051422948862e-04,2.209821276550424322e-03,9.796186369627916335e+00
2.190949371249201281e-03,3.807616003290418064e-03,9.801118838906825559e+00
2.793835242842357923e-03,3.801134813286090666e-03,9.794995560659808476e+00
-1.051459464673963184e-03,-3.497602261337363471e-03,9.794316243191266480e+00
4.685766582197709376e-03,9.722868300886257711e-03,9.791913538279803930e+00
6.939074292228349962e-03,-5.147548398594465648e-03,9.801309701972742872e+00
3.336680222652193628e-04,4.401096365899432455e-03,9.792012822605414613e+00
-9.492983656587016721e-04,4.677532319911162102e-04,9.795392065996480824e+00
-8.148021773383695709e-03,4.643680143131258438e-03,9.795250526589493134e+00
-7.465862710876853235e-04,-4.645182067644253350e-03,9.799241259274639404e+00
7.529602178072207844e-03,-4.151933363870530941e-03,9.796649312894901485e+00
-7.274318856366595578e-04,6.273006139551149524e-03,9.808585117994908842e+00
5.137275534316358694e-03,3.119540376189368358e-03,9.802233614389272987e+00
9.630539198424087951e-04,9.781476261813894235e-03,9.792451243493061952e+00
-5.821549106364972900e-03,4.567321441307207845e-03,9.793377745172129778e+00
7.346470364926565438e-03,7.559793039535850703e-03,9.794482866697087786e+00
3.720901554246740066e-03,2.978798768045968354e-03,9.801328862008871212e+00
-1.487883064439299774e-04,-2.954945192311049843e-04,9.793993236736943331e+00
-1.289906591799069770e-03,2.934999874169610164e-03,9.792796020864866335e+00
-3.771437845874059044e-03,6.291077654198114037e-03,9.791908698925450238e+00
3.977197502212658636e-03,5.328343243020670569e-03,9.796740999455765930e+00
1.398578066211103935e-02,-2.812934518346684159e-03,9.803165722178226460e+00
1.024971260004996047e-02,-5.697964065223125752e-04,9.799361661429186299e+00
-4.209702093102904571e-04,7.294657690681719897e-04,9.795586591067445781e+00
5.343992897279907159e-03,-2.603212792827499546e-03,9.798240859277402848e+00
-1.545523488543809956e-02,4.181916775760281466e-03,9.793242270798867111e+00
3.952630142387351421e-03,7.690774220436440850e-03,9.790874119878861137e+00
5.520217063439082986e-03,7.373174078866149422e-03,9.790895887510052020e+00
-1.600175859663382702e-02,-1.192677560975382960e-02,9.793274358985321726e+00
9.215210868412305328e-03,1.288725623110738468e-03,9.801510817651317709e+00
1.314764737880789493e-02,4.218018748616533808e-03,9.784907063228747148e+00
4.449565329037896699e-03,-2.223559560351648715e-03,9.801098760341243832e+00
5.470167967057701884e-03,-9.259738310045581003e-04,9.796039675002086611e+00
-2.994580581123310221e-03,-7.142952288432473373e-03,9.797545729636514267e+00
-3.994023894301706665e-03,-5.973327466375204578e-03,9.796890105836483897e+00
3.866482329947172093e-03,-5.600172669797060312e-03,9.797786301887665417e+00
6.133106527262744464e-04,2.785522627760860567e-03,9.802736037821384585e+00
3.946496127321034650e-03,5.470370680794655466e-03,9.794982024171936530e+00
2.608538723130169983e-03,-3.500875911570991515e-03,9.794041221507940875e+00
-2.795370946985459813e-03,-1.001787973650644994e-02,9.795128180113097827e+00
2.403666828887082718e-03,-5.429385816036330636e-04,9.793280758116814866e+00
3.347149787529143678e-03,1.502830588942026145e-03,9.798605112892820657e+00
-2.332349226805488941e-03,-1.637482504301724946e-03,9.796017897214399639e+00
5.567515734386611730e-03,-3.099896776268273174e-03,9.797689328292747746e+00
5.482790170333635841e-04,1.647792687634245037e-03,9.793661675808541744e+00
-8.529955615894252788e-03,8.416790582898037512e-03,9.802499112201706666e+00
-2.582474159948977208e-03,2.275241197812214421e-03,9.792934304548285951e+00
-4.657448145305904258e-03,4.271204649054454947e-03,9.807795402813573205e+00
3.330635573458028652e-03,6.308006256101033292e-03,9.798942196368088275e+00
-3.027830603219381364e-04,-1.385971434557512968e-03,9.794517469886873329e+00
-1.004541180851132752e-03,4.347030125891168141e-03,9.800941316818894578e+00
1.838603919206527153e-03,1.011692355076331158e-02,9.792776559952450555e+00
-9.777927717824453583e-04,1.824776040764758498e-03,9.786262064311499032e+00
-1.676159120171180064e-03,-6.201565816419040908e-04,9.793225185658419818e+00
-6.079630711785284289e-03,-5.890372927529803453e-03,9.801558377804930444e+00
-1.514762115086751987e-03,1.147055827096544372e-03,9.790023158345899645e+00
-6.827817008877651132e-03,6.212879692903517694e-03,9.804323952781389906e+00
1.061606785474044842e-02,-9.373157757005985691e-04,9.791988425098290705e+00
4.510870370987691245e-03,6.010173229232018514e-03,9.794861601671668083e+00
-1.252594075969457391e-04,-7.500185582689004827e-04,9.794389774137245652e+00
2.833639232765710995e-03,-6.323408675177217934e-03,9.796602385797504198e+00
6.175581233652257564e-03,-4.458654354129889738e-03,9.792375116453449380e+00
4.597702252297475832e-03,2.852654642584829571e-03,9.784455450918867925e+00
1.067000217581398624e-02,-3.029656210406619574e-03,9.793065635752297382e+00
-1.799421794184232967e-03,4.924135056536826059e-03,9.790094935514231267e+00
-6.197404591381410963e-03,1.235907759079443030e-03,9.797331946070698905e+00
2.718861943854386076e-03,-3.477863125973585821e-04,9.796482904162834515e+00
2.142901196763405164e-04,-2.215898953919573106e-03,9.795033344240664519e+00
3.656598780407501262e-03,-1.713288831400127006e-03,9.790794187325088771e+00
-3.845833276830309868e-03,-3.197175480376486002e-03,9.800825771701887845e+00
-2.136874562375378015e-03,-5.362694134711730801e-03,9.800612062438657901e+00
3.633255589823739494e-03,-7.595472943246848498e-03,9.790892816631579620e+00
-2.473411565049955622e-03,-4.682829675117460531e-03,9.799424012885852520e+00
1.843327211144860350e-03,4.611857659686605278e-03,9.789076824711099079e+00
2.123967744038797630e-03,-2.732307762387940330e-03,9.791874318333759319e+00
-1.119897795821990678e-03,6.518938682041382736e-03,9.800737856840829210e+00
3.460122331054969833e-03,2.496914437492567598e-03,9.804398281926996361e+00
-3.144788657680328090e-03,-1.815829710841877038e-03,9.787898075654041463e+00
1.585573134902348250e-03,4.616993797715455115e-03,9.788684416780171205e+00
-9.714787181692783116e-03,3.599233678516323282e-03,9.799480978309508927e+00
-5.699629933982761250e-03,-1.248546363216230647e-03,9.798434148097133090e+00
5.528181932224058431e-03,-4.989976235071946417e-03,9.802324810211617390e+00
-4.021169134661035580e-03,6.580794777434581175e-03,9.801985214773420552e+00
-1.369854771384643437e-03,-2.178911954243958112e-03,9.791050430834149054e+00
-8.850167638632479294e-03,-2.485610670626606407e-03,9.800302473777295020e+00
7.376670038832782578e-04,4.572902053165494793e-03,9.788646429886389555e+00
1.440430954398444745e-03,-9.373980361006166440e-03,9.798831887321382439e+00
2.689023322758887346e-03,-1.437901595490609190e-03,9.794036683384105046e+00
-9.728098064000888917e-03,3.904788911129006192e-03,9.798848334717346731e+00
1.919750204601288076e-04,-5.651522722048524889e-04,9.804668102831943344e+00
-6.842856261590946412e-03,-1.284767893398242782e-03,9.789166851616663223e+00
-6.303570799940826563e-04,-1.436585166466217102e-04,9.796403376050713874e+00
-2.320069113440491066e-03,-2.616613909679450095e-03,9.791663137775504566e+00
-2.198042560996020349e-03,-8.922233941440231228e-04,9.803250309114805106e+00
-4.713539898834522533e-03,1.783730044626828139e-03,9.788359282098126002e+00
-8.198346131636611786e-03,1.019923139339768900e-02,9.804398773017203084e+00
-4.828957578922738782e-03,5.860965614431638479e-03,9.794943933864834307e+00
-1.141961982454592003e-03,3.513585609199976548e-03,9.786496578744682040e+00
-4.775481524978072989e-03,1.494287303729461246e-03,9.800751006178650471e+00
5.631281068985097282e-03,1.198395515834799890e-03,9.796848119019836432e+00
8.372273788750390910e-03,-2.374877331027518829e-04,9.791318097698665568e+00
-1.349821081767289951e-03,6.736737996845172400e-04,9.800422589255619599e+00
3.448465725163178154e-03,-3.931726407454054842e-03,9.795045191885037639e+00
-5.231509148977618942e-03,3.735405530314087584e-03,9.787785319680732954e+00
-1.005597212663649279e-02,-3.280734814362834323e-04,9.790225274649369425e+00
6.369638916025641140e-03,6.620816251457422447e-03,9.786494098637662731e+00
-6.001642913904110116e-03,-5.969136007349483538e-04,9.794117833386900784e+00
2.570013401727455453e-03,-7.616782717969162314e-03,9.791299604379062771e+00
-3.816318555437565267e-03,5.948586949859302822e-03,9.797291042819855633e+00
2.574342726597373711e-03,2.195517710431281640e-03,9.791011827444897619e+00
-5.811269332222201121e-03,4.977113173193664945e-04,9.797399171568670795e+00
2.085124760210412681e-03,-5.866242941411731367e-03,9.793542309618297637e+00
7.502398812553137154e-03,-8.230464932602658129e-03,9.793302008889842369e+00
3.535978634515123120e-03,9.846276085085517785e-04,9.792091564150547711e+00
-2.536797662256999597e-03,-2.252019919405105937e-03,9.800620923478827962e+00
3.543714673954752575e-03,-8.772070111846771295e-03,9.787355519066764487e+00
-6.867012522720150614e-03,7.956658848324499322e-03,9.804646210710030729e+00
8.185814612473316446e-03,4.584155343255715866e-03,9.793795448416668492e+00
-5.794250710970426984e-04,-1.032467993694653752e-02,9.796598229388795431e+00
-8.520200459984760694e-03,-2.388697708112724012e-04,9.794676198143156043e+00
2.654009870017694315e-03,-7.011314801910357173e-04,9.795656369733180213e+00
-6.000052838430636193e-03,6.514328966708361583e-03,9.800255521379861889e+00
7.925783011028510183e-03,-1.188340049111966633e-03,9.797215219323366142e+00
-1.809131960981699878e-03,-4.648617341313464324e-03,9.790532374949787453e+00
8.670325041147546085e-04,-1.155961678850809821e-03,9.784553613442048103e+00
1.388541358939658025e-03,-4.795277896360116907e-03,9.794678752762846941e+00
2.149511125057336665e-03,5.070127866016812743e-03,9.792409894480270438e+00
4.956610718191494739e-04,-1.945665417045387008e-03,9.789294562223055607e+00
5.889986476661055077e-03,-7.546128128396967574e-03,9.794380970019686217e+00
9.048303664552967071e-03,-6.182800828963221432e-03,9.793163474012217762e+00
-6.920151617885604914e-03,-7.815560324029417055e-03,9.796215077316171360e+00
-2.086867692764858562e-03,-7.544882617780944174e-04,9.789983488226033259e+00
3.992132967267723181e-05,2.407467752474253420e-03,9.800669018880904915e+00
-4.371095629551096338e-03,-3.293118011127332823e-03,9.786309172992886829e+00
-2.597728579787499797e-03,4.514212634976243546e-03,9.793341988292864286e+00
-3.712326195017495375e-03,-4.078652017770040966e-03,9.792827726334142113e+00
5.468915025828888915e-03,-6.122177152624608612e-03,9.802374401783833235e+00
6.934230233984364864e-04,9.811298425248705588e-03,9.802486941589416247e+00
6.229383080946023117e-03,7.362130853839558668e-04,9.797320802913162652e+00
2.872638580992880383e-03,7.578989020391296676e-03,9.796763202046660624e+00
-1.065794506667797764e-02,4.527638557367030629e-03,9.788284720591104104e+00
7.643871729382345319e-03,5.610912687376063204e-03,9.792684294431296621e+00
3.029760271585144179e-04,7.486527269759948519e-03,9.801053386322596594e+00
-6.327333866244637742e-03,6.988684606043539787e-04,9.796985139463703973e+00
5.021682024035899541e-03,-4.349597586897055446e-03,9.799513821317093587e+00
-5.916823366756365386e-04,5.803542416648863923e-04,9.788282172146956839e+00
-4.597630676986585833e-03,-3.709730565465766284e-03,9.791717896890750339e+00
1.220246286027589118e-03,5.462977103536220333e-03,9.803274037147344799e+00
-4.909779154839920799e-05,-9.509994630766564760e-03,9.799791388134183379e+00
-1.337467835503197613e-03,7.372206443406506028e-03,9.786800125863958755e+00
4.465309172660061367e-03,1.226546512587503492e-03,9.784602375239410676e+00
-2.242977276567948829e-03,4.943050929590754247e-03,9.797522269071848200e+00
5.449259033655455726e-03,5.942388253090426058e-03,9.792108060282158633e+00
-1.974657164613248701e-03,1.686785516066020320e-03,9.795498294080427826e+00
-2.340463457075026791e-03,1.256390616652319422e-02,9.802382237470514070e+00
5.786587263766506187e-03,1.078114615650870370e-03,9.798419848589684733e+00
3.688866414006453532e-03,3.123133728067736467e-03,9.791723555872867024e+00
-2.488542661898799496e-03,1.217497240185891512e-02,9.798407074616090284e+00
-5.603844358445147014e-03,7.686526805983979159e-03,9.798099117199740249e+00
2.281126881577081374e-03,5.686136858156898462e-03,9.802958596586437423e+00
1.239743223111822168e-02,4.543251783964592783e-03,9.793319631587142027e+00
3.414815509226916575e-03,2.409127180688253912e-03,9.797124624550772154e+00
4.508118608478354702e-03,6.480567340923299585e-03,9.797980505776306970e+00
8.354841620698143928e-03,6.337025583165323793e-03,9.794930455050431917e+00
2.105443541901466219e-03,8.220331492108243904e-03,9.796920784813492489e+00
-1.790121132985302444e-03,5.815552223208982421e-03,9.792939096789092801e+00
2.028493996962320994e-03,2.594986730770563500e-03,9.790007879236350519e+00
9.650818734968785728e-03,-6.156334395160605912e-03,9.801848506682709683e+00
1.056324885773722144e-03,1.174459009645418238e-03,9.785476701263938537e+00
8.205128673283467507e-04,-2.374594874158815483e-03,9.790637506827030379e+00
-3.908395912337108910e-03,-3.477215301655734760e-03,9.800342905985191422e+00
2.560676715963109990e-03,4.816711931024263323e-03,9.802872313877578847e+00
1.456352543380627553e-03,-3.075104170373068029e-03,9.795624545666544947e+00
4.154149839907656655e-03,7.362523748042291679e-04,9.797960793091457177e+00
2.955972603181221837e-03,6.145909454346740533e-04,9.790673129259150897e+00
2.865381989724134857e-03,-4.384624544008326394e-03,9.804561753728595619e+00
4.102876532437216804e-03,-2.412731551497148286e-03,9.789959375189008384e+00
-9.147354340965689829e-04,-9.004560295963542297e-04,9.786539641116291932e+00
4.095960198548443364e-03,-3.349763836838875065e-03,9.790997550489652923e+00
7.682348867698776847e-03,6.910572469744147468e-03,9.798450130821613868e+00
1.389102573445568723e-03,-7.024915595597099049e-03,9.799411435315516172e+00
-6.514811484642436985e-05,-6.374865918582394569e-03,9.801343470077000575e+00
-1.104757044280956554e-03,2.397016825547840669e-03,9.800249762522343033e+00
3.526605602894929224e-03,-1.681134408875017104e-03,9.791050765418248147e+00
6.896899263262173084e-03,6.940401341464542961e-03,9.786096297052051085e+00
1.045120134922006803e-03,2.619417642990519088e-03,9.800769696789403795e+00
-1.043850121627861241e-03,-9.354231918572120889e-05,9.797633721872866630e+00
3.643708644903033596e-03,5.303113201507074839e-03,9.797462625301269767e+00
-2.707945711833828007e-04,-2.014762209529954821e-03,9.796002582735564346e+00
2.778101919779309842e-03,-1.973528129913205195e-03,9.799667631965924386e+00
2.890244342451260204e-03,-6.431707848022116987e-03,9.797107046718014800e+00
9.075371650543732210e-03,5.062056531117141260e-03,9.793006260256284179e+00
2.907869499986150564e-04,-4.921472960760313840e-04,9.797786679307025182e+00
4.415334437645808408e-03,2.042935524615692097e-03,9.799222886053543746e+00
6.213063345891842518e-03,1.871158246431116334e-03,9.791746932662269032e+00
7.510973038965879783e-03,-5.491663848854057934e-04,9.798635688096055674e+00
2.152696936889916292e-03,1.872185630958310074e-03,9.797682090820437395e+00
-7.316436645757839726e-04,7.142960503083457119e-04,9.800456324056479929e+00
7.229283633991461303e-03,4.553544292586245135e-04,9.803062059835545128e+00
-8.981054278138527651e-04,-2.864873289592282431e-03,9.793511419576576671e+00
-3.021755059784659962e-03,8.840618924194252552e-04,9.789518267135917995e+00
2.625617083677049893e-03,6.907871869392773157e-04,9.794146340790963023e+00
4.775375663131904529e-03,7.558457232160528845e-03,9.792796932315772196e+00
2.473972943176395989e-03,7.131382134127705816e-03,9.803599820779300700e+00
4.600095858463252099e-03,1.003963364020082558e-02,9.788531493942754125e+00
-4.744058018719589029e-03,-2.308932651138257113e-03,9.799339062771871056e+00
-3.243974980639102203e-03,2.731327833040589174e-03,9.791131025080721528e+00
-8.782159667646565956e-03,8.950134173024742318e-03,9.790081218650470873e+00
-1.010003825125957780e-04,-7.728862870009116370e-03,9.796631208186434847e+00
-1.385850217209645121e-03,3.556916439260211782e-03,9.793260834953162686e+00
-2.665143429623216369e-03,-1.041408358452261540e-03,9.796065233716722886e+00
-3.661551525136795028e-03,7.083480178778332921e-03,9.800616098157361122e+00
-2.705434639392358554e-03,2.021497646222350508e-03,9.794606878861040755e+00
5.641295088527826726e-03,5.750701213944849240e-03,9.797197398660490109e+00
3.022936823457836146e-03,1.027678262594147024e-04,9.789900046653627896e+00
-8.521619361974902334e-04,1.198986067055255074e-02,9.789341769162179574e+00
1.469908358319090783e-03,-8.085783701785226102e-04,9.799575475139015168e+00
1.566528368704800172e-03,6.722998669128640511e-03,9.792676207442356784e+00
4.899971754423896111e-03,3.848674676778645991e-03,9.801210393661163423e+00
-3.810326052783612281e-03,-4.708932332453926242e-03,9.797841671204345460e+00
3.162644314821128847e-03,-7.817881600613545492e-03,9.796549197416013044e+00
2.555594802665211215e-03,-8.445995280322689952e-03,9.797160768447252366e+00
2.196503945555336435e-04,1.699969280595416002e-04,9.797597589636291460e+00
-2.375677097266022577e-03,5.037333222666699707e-04,9.789454763632853940e+00
1.505549085400503632e-03,6.251344930772215853e-04,9.797313975808620512e+00
-5.752132256255633111e-03,-9.289966471311396573e-04,9.802639840901589352e+00
7.434143932057016464e-03,1.015646577211001822e-02,9.791168410768248620e+00
-1.371170028000490712e-03,-1.437176570447507669e-03,9.793766741205100601e+00
-2.378642147070860521e-03,3.800893905612099700e-03,9.794365601746655159e+00
2.968219036135650267e-03,-5.661967507648643779e-04,9.786012645964987655e+00
-5.029911239421162340e-03,7.167181971523104052e-04,9.794709339378361079e+00
2.947480920805492337e-03,-2.950949450880002191e-03,9.802688730945886775e+00
-2.241277996492499480e-03,3.145581912597371094e-03,9.795750575604415644e+00
4.437992064940943227e-03,6.525947717962846985e-04,9.787284811461624656e+00
-1.780028970452556111e-03,-1.479295211679436395e-04,9.794939217129849496e+00
1.545188127039341577e-03,3.899131776112655604e-03,9.797500505248191160e+00
1.524130288997415901e-03,6.853363991748969743e-03,9.794245412535664386e+00
-2.463075480988806409e-03,-7.591199916136317713e-03,9.800449720384388996e+00
-2.344743186411112935e-03,-2.420264415430834360e-03,9.801309077014041193e+00
-1.090053189515490222e-03,-4.367790847586029007e-03,9.794253401834490447e+00
1.896055040536883535e-03,-1.328423869446138800e-03,9.786901823571112047e+00
8.470818538667344855e-03,9.039974724406436846e-03,9.794212093656829765e+00
-9.461718307975108561e-05,1.862646951129927342e-03,9.794955200742743173e+00
-1.576497921546714427e-03,2.753236335746356983e-03,9.789216799457165052e+00
6.442221641463622382e-03,6.928126529659593691e-03,9.793837734957946850e+00
-2.414431235031207039e-03,-3.880437270550454905e-03,9.799444205033088551e+00
7.410037248293835539e-03,-6.785837973529746693e-03,9.794047774769705228e+00
-1.241836831201291458e-03,5.385988524595078722e-03,9.804839940392323427e+00
1.189065827692031320e-02,1.992084316294481360e-03,9.799299950210702548e+00
-1.087660084001731975e-02,9.067977009749966094e-03,9.794159642103965169e+00
5.056342096526254132e-03,-1.097447460354651801e-02,9.792281427241738001e+00
-1.852660534426727162e-03,-1.765043286633792216e-03,9.793042183258894084e+00
5.630552770423655033e-03,-5.671337118071990806e-03,9.799889841420830194e+00
-1.455179677865900585e-03,2.840304090959127475e-04,9.790255680927524295e+00
-5.210968610469843797e-03,-2.951102930957245907e-03,9.796143523514446727e+00
