gyro_x (deg/s),gyro_y (deg/s),gyro_z (deg/s)
5.159518412439870749e-01,5.355219435371055825e-01,4.933085461267906480e-01
4.291953870158495832e-01,5.369287784298576449e-01,5.436525059960276574e-01
5.769530328071811320e-01,4.903406602257912028e-01,5.344675661159825619e-01
5.025049662919068849e-01,4.665441226887161452e-01,4.911619453834670801e-01
4.983828154299526636e-01,4.043882854330817511e-01,4.836991272896146721e-01
5.017845262851760024e-01,5.465240501186745536e-01,5.177833339240508481e-01
5.225922985163097279e-01,4.733934910954338826e-01,5.113874708642230926e-01
4.969636996178023458e-01,5.336437107697143967e-01,4.377040146318910696e-01
4.785285468760841487e-01,5.014750011625372927e-01,5.098165704181973901e-01
4.771348020448677452e-01,4.869698063200207372e-01,5.115596512060008871e-01
5.051032313763421655e-01,4.744308349148675941e-01,4.868880646311760096e-01
5.902460096380106602e-01,4.979944355187468363e-01,4.492317935110567984e-01
5.930573922922465213e-01,4.775386832320025476e-01,4.995341872308458053e-01
5.248600421353069034e-01,5.195958843254521176e-01,5.067497606543330813e-01
4.281022546907250481e-01,4.873470515564566896e-01,4.996946583131512964e-01
4.960290329211887728e-01,5.730310637112311367e-01,4.665489240296770701e-01
4.977264588196859130e-01,4.924513298151531604e-01,5.660263658039614842e-01
4.958968921235169525e-01,4.824518183397789040e-01,5.014844796126485260e-01
4.835831708602111867e-01,4.989978919232280208e-01,4.723905702975986221e-01
5.081524265709628230e-01,4.647868716972095027e-01,4.983710634895191505e-01
4.892169673841459954e-01,5.011914488538955492e-01,4.954564286559793307e-01
5.241194623561497012e-01,4.502063197254829174e-01,5.160172449738326117e-01
4.446161377446970486e-01,4.815409466447559406e-01,4.886133483802084232e-01
4.781700080606712810e-01,4.915380142978508782e-01,5.073467740321803143e-01
4.783553480119580037e-01,5.075062874252176393e-01,5.220039066962373075e-01
4.768065781502896505e-01,3.656360284480766332e-01,4.670637675420804547e-01
4.932488928595601951e-01,5.517086625642210196e-01,5.517955077349363524e-01
4.878299441550674742e-01,4.825730373289154884e-01,4.965150924085447448e-01
4.841062509342787257e-01,5.000759754371154608e-01,4.874708367328164371e-01
5.358313811804550353e-01,5.118423203156948764e-01,4.910119450763046900e-01
5.710810741394005685e-01,4.864442929834292828e-01,4.720614863982972587e-01
5.284175899944481003e-01,5.213740294931825670e-01,4.907377220535242834e-01
4.324555738490478141e-01,5.240338342304767805e-01,5.446187224337686317e-01
5.175277040902405146e-01,4.947477298223016406e-01,4.993243905152390805e-01
4.233660695787011541e-01,5.848957873472295788e-01,4.908398927593809469e-01
4.734992650820787907e-01,4.761667838881961101e-01,4.425745090044120311e-01
4.842270696092019211e-01,4.868616857183365454e-01,4.478237001336114465e-01
4.593404873921753118e-01,4.601342781576971963e-01,4.543343076410520931e-01
4.102850629525798265e-01,4.863215422234240526e-01,4.954459829438819241e-01
5.233261324460960484e-01,5.221367264630911720e-01,4.791187985534480775e-01
5.434470719656929738e-01,5.708865639221560873e-01,5.060097446925225784e-01
5.272990801075840839e-01,4.855048882806327071e-01,5.220028886674249469e-01
4.647323557453705289e-01,4.825151467827319962e-01,5.757903032859906789e-01
5.064043590349420754e-01,5.372253487375003855e-01,5.121096701571919985e-01
5.290006531534150458e-01,5.107723536838912892e-01,4.583496660072486351e-01
4.885502783525151882e-01,4.623530326022087245e-01,5.081091486476625452e-01
5.405673663488244074e-01,4.287047888660313055e-01,5.146241737509166247e-01
5.265123837748436619e-01,5.008326523047847978e-01,4.940480166519577443e-01
5.133931752849554275e-01,4.960497686233448777e-01,4.952408016671819291e-01
5.340094480558699175e-01,4.803644289694414260e-01,5.194512760352520964e-01
5.223232580503301969e-01,5.519921425343494725e-01,4.604121091686060874e-01
5.459107195468033691e-01,4.532059691438789506e-01,5.317651837539927318e-01
5.170246141555675523e-01,4.621935078149585485e-01,5.408643899579360648e-01
5.553329052841889935e-01,4.853193211309859145e-01,5.039164693032740505e-01
4.166039100060198730e-01,4.715515960457172251e-01,4.334530914485293929e-01
4.975886653790774772e-01,5.410777011715461882e-01,4.858061694249453111e-01
5.111425578361596944e-01,5.608551144033754321e-01,5.476908749241550245e-01
4.834542911678270660e-01,4.321067792432409238e-01,5.783078941082988589e-01
4.998210689950224328e-01,5.195457700805597989e-01,4.866903487244096937e-01
4.816472506275122356e-01,4.536603430959320060e-01,5.283460506266373091e-01
4.951473027044094866e-01,5.434781789684881570e-01,5.170291843818221045e-01
5.143421137509888164e-01,5.053908494939871598e-01,4.908204673820095176e-01
5.635566552502537796e-01,5.023047793770123448e-01,4.961941025041739506e-01
5.297350699881040459e-01,5.663029402175070448e-01,4.532172619416615089e-01
5.108002302063789912e-01,5.119106049480449672e-01,5.384346572023098743e-01
4.932122716933678430e-01,4.577465708070312944e-01,5.484677654236641553e-01
4.909928468035520965e-01,5.918703590777569801e-01,4.191094265744998437e-01
4.616691781371790593e-01,5.416138325456313352e-01,4.470653416090716870e-01
4.969115137764603118e-01,5.538282943311524376e-01,4.833194152204863814e-01
4.700660438239459005e-01,4.530973292909205585e-01,4.957191452565257173e-01
4.377250657329042616e-01,5.167903016436772301e-01,4.790843601435426646e-01
4.368659077560862469e-01,5.003060411137423280e-01,5.593635731680576262e-01
4.253693394483096246e-01,4.852351142141747564e-01,5.428732289705416880e-01
5.454625489697831897e-01,4.684870540003738815e-01,4.843407986783387353e-01
5.094458265750140269e-01,5.229789769166878211e-01,4.365953786077986787e-01
4.975081805187088757e-01,4.473038405856427091e-01,5.431168315820967818e-01
4.330530519696190739e-01,4.959854252580372380e-01,4.689397964825925968e-01
5.154016577847706504e-01,4.665395135092973988e-01,5.452983492762296658e-01
4.954755045655689916e-01,5.572727038676743572e-01,4.352640893741807071e-01
5.193885942889853169e-01,4.389917521254679267e-01,5.256007915833025290e-01
5.194227602595027360e-01,5.062598217983618198e-01,4.647071335794693003e-01
5.788523941394142502e-01,4.489177621807335927e-01,5.114934263219363952e-01
5.144820505187167603e-01,4.650554929156119899e-01,5.408889239860434905e-01
4.693761340684290406e-01,4.926420145669286876e-01,4.263840683467484127e-01
5.908491781691728173e-01,4.706715322464122830e-01,5.039039367113561374e-01
5.063629771300125482e-01,4.878430948192060690e-01,5.379196301247474166e-01
4.502894074658437273e-01,5.293552274398979351e-01,4.866783499181768224e-01
4.833938615155886631e-01,5.042874502465579667e-01,4.899021524731236310e-01
5.102911090197482791e-01,4.926372990323337198e-01,5.923333835825628224e-01
4.051192679616158476e-01,4.952774909575181073e-01,4.924617665848103898e-01
5.584975624415648987e-01,4.715328405939275269e-01,4.654595462910814385e-01
5.063995793454835193e-01,4.918778071628140403e-01,4.781037984694114784e-01
5.123823155711098032e-01,4.427864972028646706e-01,5.100181510760869452e-01
4.446760036532313443e-01,5.356732062808534645e-01,5.172679669563632343e-01
5.298375658487977091e-01,4.607752520119838269e-01,4.849077645634916611e-01
4.812269097548090846e-01,4.881941844946012243e-01,5.065175615191210845e-01
5.062775798948563333e-01,4.721770175938342362e-01,5.150543784699559424e-01
5.337717818495442135e-01,5.294708539183425877e-01,5.668768717329991658e-01
5.529646392218896533e-01,5.327049984784506531e-01,5.075793516119883053e-01
5.126558113668006067e-01,4.677539434609880864e-01,4.349872782372030677e-01
4.940091545413955454e-01,5.353527056332041401e-01,5.970548324682801722e-01
4.903243997052729175e-01,4.675410195734119312e-01,4.582813323503966418e-01
5.777704225379702851e-01,4.789021688362694595e-01,4.412542229513074510e-01
5.301534576437882951e-01,5.656821757414419727e-01,5.498988239249179566e-01
4.638735603660779083e-01,4.377479933203470286e-01,4.536534629000372743e-01
5.057580228466072025e-01,4.765622828177799031e-01,4.267786578582331014e-01
5.260629069499817012e-01,4.843599328765496037e-01,4.587998783697198601e-01
4.910824992948241152e-01,4.713786580362213097e-01,4.566248376706119050e-01
4.757185912091799751e-01,4.651539708441831955e-01,4.626455322502948109e-01
4.423505662635893176e-01,4.887843030277251311e-01,5.516056212440264561e-01
5.078196989127213845e-01,4.724776668115205913e-01,5.628093964702530760e-01
5.384158746846867682e-01,4.665569752089599453e-01,4.587183187382423699e-01
5.341400791211795562e-01,5.148100809272904144e-01,4.887885597266106164e-01
5.481086883036280222e-01,4.518070951200892083e-01,4.610647738694260700e-01
4.787071080636213227e-01,3.772671032561479287e-01,5.196245570971776973e-01
4.831773190052316980e-01,4.841201074873897059e-01,5.414679592889849458e-01
5.757459881189113116e-01,5.392440016399919767e-01,5.044501534503174067e-01
5.221150241357215283e-01,5.390185334200380263e-01,5.409337961650106941e-01
5.229133334013397194e-01,4.258555397458942404e-01,4.796183128292909048e-01
4.554367611409197991e-01,5.169718072475431025e-01,4.930902995643194897e-01
3.954966834658473762e-01,5.182769629074590600e-01,5.186759624936856383e-01
5.542367698967486378e-01,4.361529930410591449e-01,5.279835063637625669e-01
4.490424385625426118e-01,5.073213101828358829e-01,4.563828743687368683e-01
4.913545886308996469e-01,4.193790070321874452e-01,4.965346804304683892e-01
4.505531957281119770e-01,5.000080788353125083e-01,4.258368214115040296e-01
4.401558063048246483e-01,4.135046197005308732e-01,5.314368227332987304e-01
5.330646917352992453e-01,5.642521448279997909e-01,4.165884247003384666e-01
4.467619574190603848e-01,6.118891532631351993e-01,4.940714337977910597e-01
5.495518914758933393e-01,5.279497598195008745e-01,5.328607854504434638e-01
5.229677553571330240e-01,4.897035879400684077e-01,6.058337575868312230e-01
5.204981024223309660e-01,5.022529428061022205e-01,4.786742938612785214e-01
4.759016494356160809e-01,4.690254153515961977e-01,5.828984924323005190e-01
5.013944487368695579e-01,5.044397787301657665e-01,4.830951972611561840e-01
4.994606879260997112e-01,4.327274822890611605e-01,5.342355551208163300e-01
4.386613349140169316e-01,4.616007179757947165e-01,4.353876186732123510e-01
4.573809510459697081e-01,4.662430417820458417e-01,5.124850539506694558e-01
4.744306021019831232e-01,5.251346890918433541e-01,4.797266698982967092e-01
4.845596280059671357e-01,5.828959856955737706e-01,5.116821655557699522e-01
5.715261447775764614e-01,5.684470969296532283e-01,4.976700260490110606e-01
5.312014205372785902e-01,4.099499912490499609e-01,4.086420506840462430e-01
4.864682112291187632e-01,4.516430333254224383e-01,5.202203002996825809e-01
4.280020846198576145e-01,4.811221399676950949e-01,4.442382361308921390e-01
5.137532038844756510e-01,5.139784307854842194e-01,4.772620139344938006e-01
4.240876675561148779e-01,4.898663235364175139e-01,4.862648432353389727e-01
4.844321149342394328e-01,5.043516913928692835e-01,4.548183782953245657e-01
4.895280815847937173e-01,5.058734118928400747e-01,4.677212518271441910e-01
4.726828177093782002e-01,4.724276673154704231e-01,4.855777298413956888e-01
4.809786057937850967e-01,4.322849349459221280e-01,4.707786656636762657e-01
4.758892112232021021e-01,4.494573934041907748e-01,5.537050802905496560e-01
5.430502993743449025e-01,4.887562166302450439e-01,4.419765350814967020e-01
4.966428852803421723e-01,5.053819181322025678e-01,5.832020699606386138e-01
5.327739178181234436e-01,5.037036161959895786e-01,4.898504476818379971e-01
4.642429793839656371e-01,4.609724861139289365e-01,4.907543839266069741e-01
4.447440230367803449e-01,5.620216216898996642e-01,5.415179920852751794e-01
5.796259241409953411e-01,4.298856048816192543e-01,5.084687506828393655e-01
4.967534640099769416e-01,5.381758380330688984e-01,4.819297145644477198e-01
5.287818016928608200e-01,4.477614713350546172e-01,4.939485194534704582e-01
5.078277584366753805e-01,4.785576556195451636e-01,4.955803229761940321e-01
4.792844215058350565e-01,4.486457355279980241e-01,5.101415143537963992e-01
5.319925599797539206e-01,5.992586918265320195e-01,4.751065079084756948e-01
5.271082554395608577e-01,4.094140227308181168e-01,5.306074188219169763e-01
5.554840824745165273e-01,5.782981284851729242e-01,5.690254504658314172e-01
5.459254594926620241e-01,4.760893432852983942e-01,4.446269879984213191e-01
5.426116440737692725e-01,4.960611773254507972e-01,5.302420726531398287e-01
5.478387431383987538e-01,4.325897722955989178e-01,4.995416818411152482e-01
5.628797501208671061e-01,5.385686927717755479e-01,5.115716155336125226e-01
4.443545591849630272e-01,4.981928580053673339e-01,4.926345418587002589e-01
4.959215798395146257e-01,4.700236169049514801e-01,4.920700637993934423e-01
5.395717202945463642e-01,5.337618278817618522e-01,4.858075425953261584e-01
5.405760851237182418e-01,5.400767957290119048e-01,4.902536709237484414e-01
4.633345867905886428e-01,4.850614526505126478e-01,4.546749719483667018e-01
4.650109762339694197e-01,5.176533683432545940e-01,4.605804755804200901e-01
4.550401376109957652e-01,5.335810385225531194e-01,5.245562872987172831e-01
4.911588349750860005e-01,4.244292160419423920e-01,5.416756999739621437e-01
4.824575799640014040e-01,4.734675811630472686e-01,5.019812991110516043e-01
5.717086573741889666e-01,4.318228753645500517e-01,5.181187669501532422e-01
4.845184616064852623e-01,4.789088274307796156e-01,4.854157339666155258e-01
5.583786580874009475e-01,6.151022212632879516e-01,4.926476381821511263e-01
5.339832571709340892e-01,4.414281894958809183e-01,4.897471996223530799e-01
4.532964283149217843e-01,5.394329578986261087e-01,5.049998288897930010e-01
5.261507207799951402e-01,4.210388668007877810e-01,5.270079464927506230e-01
4.536732422661300945e-01,4.404507129268429022e-01,5.788436544129058614e-01
4.911919422694404069e-01,4.630667363772877354e-01,5.183582480213169141e-01
4.824880391572028415e-01,5.189497611430269330e-01,5.206746818946571542e-01
5.313015098860943697e-01,4.184002691461953805e-01,5.041334948463292998e-01
4.714782491122757047e-01,5.254804224312605854e-01,4.539198923412726683e-01
4.261776614762644022e-01,4.630508049476191323e-01,5.350908387016456436e-01
5.392807348017443214e-01,4.909873022904421846e-01,4.658115165053053341e-01
4.955597516069057962e-01,4.821020588942503404e-01,4.940266761914902105e-01
5.355826508285335130e-01,4.764974330424163740e-01,4.901842357301873787e-01
4.777201751247872052e-01,5.045916663067956387e-01,5.093199442182867465e-01
5.259148235483196432e-01,4.602191540134524805e-01,4.871708426805159697e-01
5.300339997169553063e-01,4.653706508336757364e-01,4.470341981238422635e-01
5.120839696380129480e-01,4.987938861293614856e-01,5.005367395595204938e-01
5.762583450991940470e-01,6.497742771777760273e-01,4.347078663161976220e-01
5.381932922567104205e-01,5.128771552560809077e-01,4.514088606604874099e-01
5.110045775711814509e-01,5.192739963505258460e-01,5.605843376662010824e-01
4.617345171473077325e-01,5.383154490490965616e-01,4.193994698391305120e-01
5.218006111488817655e-01,4.887638502978121635e-01,5.231149300109205758e-01
5.538756515499371202e-01,5.313047094696147221e-01,4.728086742197129544e-01
5.516278997604031620e-01,5.532950546053919672e-01,5.577947310285508165e-01
4.476247607544047713e-01,5.360977355168432545e-01,4.834650948905502288e-01
4.752300354868767007e-01,5.341313375859698676e-01,4.883334333427850060e-01
5.361740012657207899e-01,5.834611329490955178e-01,4.499441862369687462e-01
5.356806978870632951e-01,5.151790232468429487e-01,4.720403721388531926e-01
5.610858507234135484e-01,4.768745649429053657e-01,5.435856649510315552e-01
5.133897195150157744e-01,4.539333842314727807e-01,5.571876510392590465e-01
3.945352311018979208e-01,5.498093581542968789e-01,4.875359341510751565e-01
5.017673509790313569e-01,5.589450578531243163e-01,5.332333719311977971e-01
4.993303282071779314e-01,5.493965623371478424e-01,5.130969181617167640e-01
5.344363278598704969e-01,5.127156838644738590e-01,4.381803436591378276e-01
5.746423818340878897e-01,4.609505358554509269e-01,4.786542997018909396e-01
4.483741266573990636e-01,4.844998504956217755e-01,4.899171780249414465e-01
5.337130946206524174e-01,5.378969219795496359e-01,5.743447244957863296e-01
4.809021224644139947e-01,5.235123874594650450e-01,5.412757826186150867e-01
5.034992011335763795e-01,4.418940423408500573e-01,4.616997073043911937e-01
5.045498281641519478e-01,3.825973689934505373e-01,4.624324025803137062e-01
4.537975048540085488e-01,4.413546348236581096e-01,4.509980058793197077e-01
4.550677966134490937e-01,4.759429243235287488e-01,5.031766526316890920e-01
4.993654576244647703e-01,4.768455394162075534e-01,5.374216041765740304e-01
5.110320116539541768e-01,4.755167687913152141e-01,6.180680790542639746e-01
5.342552087573027020e-01,4.430570134349526290e-01,4.935712217312891448e-01
5.181176455125852121e-01,4.761514717414290776e-01,4.710878468725843149e-01
5.126141003076850611e-01,4.912101997737118864e-01,5.136794082083543378e-01
5.538314509398125640e-01,4.393174631359858529e-01,5.413106112416951055e-01
5.101131916937291511e-01,4.807794858303519603e-01,4.817835955447872243e-01
5.451068475024826165e-01,4.855649188699198149e-01,4.994296632094433197e-01
4.900299363762541938e-01,4.929488629937781030e-01,5.113279206412838507e-01
4.810721253461697211e-01,4.717399517586446933e-01,5.252591645429337541e-01
4.838755981508572335e-01,5.011245192555168204e-01,4.745413871778551562e-01
4.828238696267457275e-01,4.758578406515672765e-01,5.549823281573755818e-01
5.888723708311632832e-01,4.947065645508808562e-01,4.664035043323087604e-01
5.141295208617120416e-01,4.861176156534671167e-01,5.709499913437530161e-01
5.049816199212082690e-01,4.388852500602041240e-01,4.776360529872443195e-01
4.833298698184102515e-01,5.117571483441095692e-01,5.244865220851023802e-01
4.485409246592087507e-01,4.764330333063565570e-01,5.120546366780369674e-01
4.853637477900657471e-01,5.322306397042938508e-01,4.810546107870084520e-01
5.764663603785141754e-01,4.993184610113666211e-01,4.270827034816647161e-01
4.419493089866425861e-01,3.921328500788366922e-01,4.750221752249448315e-01
5.176170926294740848e-01,5.405949399442161463e-01,4.890661260219282269e-01
5.591342848118336928e-01,5.025953231904638496e-01,4.731510385188188450e-01
5.739950001848757033e-01,4.745889816176893650e-01,5.262094570109954184e-01
4.472227663403955389e-01,4.980392145207983012e-01,4.888211788634627686e-01
4.694652485372457495e-01,4.482094362054970249e-01,4.419485615828724345e-01
4.987961647160267797e-01,4.711599478671114616e-01,5.067132278618378116e-01
4.644504439104673588e-01,5.349634065405590722e-01,4.535099986455427556e-01
5.241559254808261237e-01,5.017436862527711039e-01,4.995084434775180493e-01
5.401658479805048207e-01,5.177234651718196634e-01,5.045189967909823325e-01
5.343993221349476741e-01,4.753549487309423616e-01,5.129831320075767254e-01
5.116637214044855719e-01,5.105852852808068221e-01,4.758337719008727262e-01
5.446544748021157067e-01,5.940688249150373190e-01,4.681302487770548360e-01
4.915082385766390005e-01,4.752433096239440657e-01,5.654288647565754999e-01
4.798244253157751271e-01,4.460730365381776474e-01,4.189974096430594264e-01
4.959495488371078453e-01,4.986122303726295835e-01,4.450089738189602628e-01
5.316325779613947367e-01,5.940669469170833938e-01,4.735723489978510004e-01
5.143827580916427999e-01,5.058747064309936370e-01,4.607852581154485150e-01
4.630438192340722847e-01,5.166298169446295052e-01,4.918110487967508604e-01
4.809984115905407420e-01,4.582112450279853255e-01,5.197629088690163268e-01
5.154922432347097683e-01,4.944439518229093999e-01,4.955960892639178494e-01
4.733512523455664089e-01,4.647594810426909917e-01,5.397680816931970105e-01
4.624248433029820582e-01,4.150313460955035727e-01,4.921262002812922254e-01
5.021822037345099465e-01,4.605486173675552020e-01,4.646651553037457472e-01
4.797305216406863027e-01,4.648855828585942707e-01,4.487244662948359775e-01
4.722737019210058729e-01,4.777881071238074262e-01,4.495704189903789172e-01
4.817767273381516890e-01,5.700049953192621865e-01,5.253156622677829235e-01
4.840709483431973603e-01,4.566189412668544834e-01,5.485471313644675329e-01
4.803622738850151230e-01,4.750049595695469140e-01,4.889004741475674876e-01
5.530349423240702444e-01,4.862539434005582195e-01,5.187095367867463613e-01
4.790335096196083331e-01,4.888621218658923406e-01,4.869812751729032940e-01
5.739706098507920684e-01,4.819020859246768707e-01,4.549386820874026238e-01
5.201243721767605521e-01,4.825791163550794960e-01,4.581559274468425258e-01
5.502175060362651804e-01,4.980271601427923578e-01,5.123286029980284040e-01
5.568281606584750687e-01,5.021607509188382723e-01,5.083424693723583854e-01
4.915377392666996914e-01,4.978790495886835088e-01,4.935493329224054371e-01
4.929152208819714276e-01,5.188128677266466982e-01,4.772953249325099789e-01
4.482242342572526073e-01,4.783049341788862541e-01,4.899233383291458632e-01
4.914691628441597571e-01,4.546823853666467907e-01,4.530408311113411357e-01
5.135554365688752565e-01,4.872951970113527653e-01,4.747004592743338525e-01
5.463188981341295936e-01,5.097942075557064801e-01,5.026459920944962301e-01
4.969905518402734090e-01,4.977362915019090672e-01,4.567244778574776620e-01
5.018823089439123919e-01,4.566432175527960213e-01,5.114688683595617347e-01
5.521211028025343470e-01,5.369690947909204759e-01,5.218681196691575819e-01
5.541204832984965023e-01,4.894740501590896797e-01,4.726195428974547807e-01
5.373081315587362461e-01,5.137018208707154754e-01,5.283721998277438603e-01
4.681009212273190001e-01,5.051838680351861122e-01,4.498643232921403223e-01
4.993706240866628288e-01,5.168146368013615266e-01,4.838304410242065812e-01
5.010823598951500424e-01,5.264538377740317632e-01,4.476257244657017020e-01
5.320705798738175618e-01,4.855291737565238241e-01,5.277167002483449387e-01
4.997318460140866558e-01,5.698742162185594928e-01,5.279547995127668036e-01
4.469383531033732093e-01,5.348613960215908847e-01,5.605293960244160933e-01
5.362950850414009984e-01,4.992342628627688406e-01,5.180832846999811059e-01
4.951148083454025017e-01,3.971401365122925187e-01,4.637987868380066825e-01
5.360769089698227408e-01,4.834728523024658942e-01,4.814867519396378581e-01
5.628855135041255231e-01,5.019891213741389802e-01,5.374142975175657533e-01
4.838203089206505325e-01,5.036955775364414523e-01,4.866558007983967094e-01
5.290679403101946621e-01,4.658647981789303394e-01,4.915189719912620991e-01
5.245007117432171073e-01,5.638379878007345747e-01,5.184220253326095040e-01
3.688171254627993778e-01,4.646952158729907301e-01,5.143402795002433026e-01
5.492100897993879016e-01,4.948261589723184084e-01,5.198010848008660645e-01
4.702705910992409089e-01,4.532010363757451588e-01,4.949559941791983886e-01
5.028219418635231364e-01,5.205278840537475027e-01,4.580126828221073865e-01
5.255396171478190492e-01,5.404615172985338667e-01,4.384110216550045624e-01
5.112589418102774230e-01,5.372054143785078839e-01,5.577269358760402751e-01
4.787164543426292163e-01,5.578109659362238126e-01,5.109548892690658484e-01
5.428533465982097184e-01,4.788615436886718979e-01,5.583468842320618020e-01
5.369885095648238016e-01,4.941120574761060924e-01,5.779476438526254256e-01
4.647573076508749734e-01,4.786084215636013384e-01,4.802259545228497739e-01
4.885299714393397941e-01,6.062218488300715746e-01,5.011885265784135068e-01
4.235217540526652336e-01,5.057537721985294610e-01,4.797240305737221489e-01
5.199276765035880654e-01,4.974990953554089823e-01,5.330658301984910752e-01
5.161444739166624052e-01,4.369453869499005383e-01,5.065215783486910484e-01
5.050885781359333304e-01,5.578053032213724505e-01,4.812800475798991173e-01
4.161391965328328779e-01,5.098581124534842246e-01,5.522158497980828029e-01
4.990130285356895734e-01,5.382812285362460480e-01,4.868173405390532893e-01
4.627913896933470994e-01,4.452174055278254605e-01,4.740909032807724688e-01
4.886279496894573304e-01,4.802688317770780757e-01,5.141038177153284261e-01
5.147367603052558360e-01,4.735022761068187203e-01,5.463019770152500731e-01
4.499112997167605821e-01,4.673664753593920196e-01,5.152561833588875650e-01
5.145782937264873347e-01,5.203845520893072285e-01,5.665023277468830276e-01
4.514768006741655126e-01,4.594601298316280391e-01,4.821644311777270597e-01
5.308252039870733352e-01,4.986059935949963551e-01,5.252988700265049937e-01
5.246723525719692027e-01,5.033596730738709724e-01,5.487374993266422862e-01
5.673295870995238577e-01,4.681112019901125243e-01,5.094906631539420916e-01
4.895962224933492757e-01,4.200038512628686549e-01,5.021449308632764952e-01
4.924615166898563268e-01,5.387743389249686210e-01,4.052134515730797526e-01
4.500099658652410572e-01,4.228984034057428620e-01,4.517047416749137567e-01
5.263828127445150384e-01,4.735742859873851018e-01,4.869749071441445420e-01
5.602286762794838060e-01,4.836767210815285933e-01,4.707742758873374456e-01
4.766441281642250227e-01,4.567086018418073934e-01,4.319748970043835734e-01
4.842061487085597693e-01,5.115260778572936484e-01,5.449438499413080672e-01
5.314345582744915975e-01,4.590845241757763873e-01,5.131679740948166257e-01
5.588991008771129199e-01,4.869654289445692341e-01,4.985112479906727567e-01
5.233906806521509969e-01,5.054306347941545097e-01,4.633702420541072620e-01
4.343789916032115839e-01,4.695404331997490854e-01,4.577708751512688523e-01
4.550583229525316797e-01,5.627444111496686663e-01,5.414785278772651367e-01
5.100433400381441107e-01,5.111626807352026569e-01,5.388428009002030894e-01
5.096261794920233790e-01,5.170454131787975971e-01,4.263239169523814764e-01
5.475147033382526951e-01,5.164590156151108724e-01,4.490828045622581866e-01
6.324616839015252401e-01,4.894755055642256436e-01,5.328956371595854336e-01
4.986291014124832888e-01,4.699381621195529157e-01,5.029696454437134756e-01
4.672571618391551107e-01,5.382275320194951362e-01,5.347679858303013845e-01
4.916552330957110750e-01,5.393180256477450030e-01,4.330589510672268050e-01
4.980941091927282294e-01,4.664103184709978978e-01,5.578004586832286948e-01
5.135410091176916270e-01,5.134045781726249702e-01,4.602014271248462962e-01
4.864073357314846469e-01,4.995572367234419886e-01,5.161820731588090405e-01
5.374868649099077134e-01,5.514956767932420734e-01,4.595075310228255994e-01
4.793659261753050460e-01,5.256992849440682569e-01,4.617124249087691257e-01
4.495424813525137897e-01,4.770609224487089572e-01,4.303734151514088668e-01
5.570384048451521020e-01,4.634932198213924659e-01,4.594806133685684357e-01
5.316044216807507272e-01,4.503718284083072509e-01,4.690363746013654911e-01
4.890015922256737424e-01,4.783842656432284457e-01,4.658186621047397669e-01
4.407794988875344822e-01,5.065495716368180190e-01,5.080703596701051650e-01
4.632259047348856740e-01,5.017890526807776697e-01,5.144472705490052977e-01
5.424517258357257621e-01,5.153366618698408397e-01,4.464352608260720445e-01
5.057920069306057753e-01,5.065171192913171527e-01,5.414851778649860670e-01
4.952126326047020521e-01,4.989944693313126955e-01,4.428632042453423123e-01
4.208727485700070603e-01,5.859965041302610533e-01,5.290033302719470143e-01
4.981528356876677721e-01,4.761107301448591622e-01,5.120464699013215215e-01
4.945376862327553469e-01,4.659460058684612993e-01,5.230164278534550348e-01
4.713988612011148494e-01,4.669057838767839419e-01,5.039288806965761536e-01
5.253595799662853505e-01,5.230837893819644258e-01,5.231678806570845275e-01
4.686841240512168993e-01,5.287365514464527072e-01,5.270489014958814611e-01
4.953093076558992558e-01,4.841658521605299859e-01,4.984288568341048720e-01
4.982693174954100357e-01,4.569461604158888135e-01,5.057377239990941131e-01
4.722331735808059650e-01,4.644586250661923987e-01,5.060101905976661651e-01
5.540614464899303870e-01,5.347918343423091470e-01,5.028693123683494193e-01
4.880645214733751458e-01,4.422927917465858116e-01,4.477092240052665817e-01
4.746644461620482813e-01,5.104976056034475906e-01,5.236874763460361848e-01
5.213518576632872881e-01,5.084382190186594874e-01,5.024269796090502505e-01
4.722615053824974485e-01,4.846084262342453819e-01,4.185583520014145575e-01
5.100656623053613226e-01,5.094962960893321124e-01,4.851713933096171161e-01
3.977262436951312097e-01,4.970781297751540873e-01,5.184099979054309637e-01
5.716340136457158660e-01,4.687487538830313882e-01,4.325146310604530142e-01
4.777012949349506155e-01,4.639771676144782697e-01,5.573947366248852564e-01
5.215305703495954903e-01,4.992388417589526672e-01,4.853508329779520625e-01
5.165235851161683600e-01,5.315276032355016333e-01,4.823758956059406300e-01
4.208336268998139063e-01,4.640271850793213360e-01,4.920415053753261492e-01
5.676815591024647611e-01,5.442193568950682847e-01,4.675888071902918330e-01
4.811258104502845190e-01,4.739932507387888405e-01,4.983061976597225606e-01
5.532535931936859441e-01,4.873691669678695271e-01,5.131731519531307351e-01
4.892115725784039193e-01,4.795337566851459177e-01,4.955018972575753744e-01
4.961099521748823515e-01,4.112194386400949142e-01,4.743318112767489492e-01
5.186794318229248635e-01,4.769023510395566379e-01,5.143992485928224889e-01
5.818856972521614379e-01,4.720151426012944573e-01,4.184035780455211961e-01
4.401523121265764615e-01,4.950516752978247892e-01,4.741493802163003757e-01
5.149559756451037584e-01,4.490572428159284590e-01,5.417577907129341730e-01
4.841756916727341653e-01,6.043776520718341372e-01,5.093070455181143430e-01
4.967019129881939388e-01,5.216826270635818164e-01,5.183261187585067598e-01
5.846363950246120655e-01,4.442398008288362399e-01,5.016402925218191866e-01
5.264221722761308619e-01,4.374906647427970197e-01,5.053036287677239446e-01
5.335045879115831724e-01,5.032221591921948178e-01,5.593945192726406113e-01
4.583152106340650511e-01,5.000397168086000432e-01,4.322144978493228096e-01
4.886226229207409899e-01,5.095212997094852314e-01,5.123807492715748424e-01
4.606891171331037871e-01,4.813501706935843227e-01,4.275308223241217620e-01
5.259644327058144997e-01,4.380257452268786489e-01,4.853926349374833582e-01
4.323112235453868135e-01,4.996188013661057581e-01,5.000391449613260653e-01
4.709529431938262456e-01,5.075021594264680358e-01,5.718270437836834308e-01
5.356018105168784960e-01,4.793359052067848736e-01,5.131276201952421623e-01
5.989418048319412602e-01,5.739217751863426864e-01,4.272708718628272506e-01
4.462146377331421832e-01,5.482006267627299589e-01,4.432602950364597505e-01
4.569240625595100691e-01,4.099094401808004440e-01,4.074775027409731631e-01
5.170297008929631843e-01,4.439426027868805802e-01,5.089632365216474330e-01
5.024832828903563753e-01,4.592453246682206003e-01,5.096169874536629063e-01
4.882820625615050258e-01,5.401888163972533574e-01,5.037345935612708159e-01
5.693735786944748023e-01,4.941486661269123282e-01,5.069611757681796727e-01
5.519097608274394773e-01,4.563084686841646365e-01,4.997205937348838112e-01
4.693814150029365084e-01,4.631606055854857740e-01,5.091290624522852859e-01
5.753066340992506467e-01,5.978187540243409259e-01,5.289467349577481325e-01
4.544142917151575145e-01,5.324046083232699678e-01,5.245487993784440084e-01
5.224438992430726625e-01,5.582186648241622695e-01,3.988049481469596591e-01
4.561212565093922255e-01,5.228348330896751550e-01,5.693160290718153327e-01
5.081887938200317922e-01,6.040512899127002955e-01,4.381617820156351595e-01
5.131472097714414593e-01,4.182725523524605249e-01,4.332984644481759351e-01
3.946926966994610542e-01,5.080556044537946070e-01,5.128732228989433262e-01
4.169510193660717068e-01,5.288658679531507145e-01,4.723063104572339244e-01
4.972581723013989041e-01,5.059530309988073959e-01,4.965922019323397718e-01
4.804689038463473283e-01,4.548330602674677814e-01,5.301119792743874681e-01
4.115463427631055326e-01,4.883859658353387201e-01,4.837653823178811319e-01
5.094699056316182029e-01,4.486811415940553660e-01,5.749124986423126416e-01
5.160284692698152709e-01,4.736896649957299532e-01,5.024293107665686042e-01
5.232545781404626117e-01,5.043893934367182919e-01,4.392236681592155967e-01
5.148037709642377946e-01,5.989837225302462320e-01,5.280028823951048444e-01
5.498211361663243313e-01,4.507162698629601505e-01,5.291320633333207457e-01
4.781650214032854285e-01,5.219543485228231861e-01,4.538990505304147938e-01
5.270738796995895203e-01,4.668827981007412364e-01,5.647540616440159811e-01
5.515818124824355406e-01,5.315710910000234213e-01,4.948191034554407786e-01
5.098594029374777792e-01,5.393661086654253367e-01,4.933476638429372119e-01
4.491407228450292055e-01,5.336059424525506634e-01,4.918175928647360862e-01
5.443218475563085246e-01,5.033064232507220570e-01,4.728059323124114699e-01
5.064624975304323762e-01,4.360134492120837924e-01,4.728484172709068734e-01
5.750999759266330891e-01,4.683764785439322176e-01,5.191364835556410151e-01
5.112723290585884373e-01,5.093091029922176549e-01,4.732672073931454282e-01
4.632427386792319357e-01,4.936625729178109045e-01,5.626916165173428963e-01
5.573165348675505060e-01,4.999406960580047854e-01,5.227383028332577286e-01
5.592266357841504387e-01,5.009937589750295128e-01,4.595880573662340374e-01
5.283053249824369857e-01,5.415022352392278027e-01,4.618284378326063533e-01
5.131219885192626062e-01,4.627352517755599637e-01,4.941116456768810394e-01
5.572500502816284396e-01,5.469164203077787612e-01,5.521481915384353067e-01
5.268625585404518308e-01,4.175904561064998632e-01,5.265729226328275114e-01
4.376102018158581353e-01,5.361683588194492422e-01,5.217394929832366302e-01
5.395508977601021217e-01,5.239870187919087874e-01,4.764088109558043960e-01
4.390807738293809881e-01,4.098435491657734242e-01,4.802694500112040799e-01
5.467215488336137907e-01,5.280874431098364630e-01,5.632757992238012212e-01
4.454457396739517350e-01,5.342359329960501002e-01,4.791036372096891816e-01
4.726077414558005341e-01,5.128571452525915175e-01,4.774014173737505806e-01
4.810996985822760252e-01,5.321262794887552383e-01,5.085730361658462595e-01
4.960743813170736538e-01,5.105272667869633629e-01,5.174563916533924113e-01
5.130428121660575158e-01,5.274792903658670484e-01,4.927740458154206693e-01
5.030838665322930892e-01,4.213233850014521664e-01,4.929313954305606371e-01
4.718182596735812084e-01,5.324704643374599256e-01,5.474107282545834785e-01
5.168542283827659567e-01,5.105724503669027969e-01,5.253474614548409027e-01
3.886570578059808656e-01,5.329582498631707521e-01,5.394219788339944532e-01
5.409555120268698669e-01,4.826602443247838270e-01,5.166412148802994597e-01
5.230660662841873920e-01,5.422131003044131647e-01,4.768216893974026038e-01
5.149828606006945364e-01,4.381816276296762735e-01,5.056863788161953810e-01
4.802661330910786841e-01,4.666951176193300244e-01,4.358563757480357070e-01
5.058675243971648694e-01,5.382712496237496147e-01,4.794066875223772506e-01
5.179636299035837999e-01,5.671456301198880556e-01,4.926473688820404151e-01
4.622461149354252230e-01,5.052539644797450213e-01,4.800287327686498240e-01
5.101043006430198146e-01,5.141543219085162875e-01,5.061341546846386263e-01
4.539657475019272526e-01,5.216809719424374547e-01,4.689299784738100718e-01
4.851498971937859284e-01,5.267188968992523312e-01,4.740084968022227341e-01
4.939352377030324370e-01,4.669723907977086363e-01,4.984117853181096458e-01
5.886568414071630118e-01,4.989926698523190485e-01,4.740053198513952681e-01
4.795740619529178517e-01,5.243549414294046418e-01,5.193347555724904252e-01
4.759535801056143933e-01,4.610221156857119418e-01,4.775500543783410823e-01
4.535114362503694929e-01,5.423619301123342451e-01,5.400494698756069800e-01
5.238798074324587661e-01,4.511351389245853438e-01,4.691948441249620960e-01
5.729407569456503868e-01,5.484565534858467650e-01,4.905090428472290709e-01
4.935363154289849619e-01,5.424983253304002107e-01,4.787580746618015359e-01
4.998664178273778402e-01,4.217613766335016612e-01,5.315705986136781691e-01
5.592470025098152941e-01,5.011232625759041159e-01,4.527708061866281830e-01
4.799554233039730611e-01,5.038214212959205573e-01,4.722421867138761331e-01
5.330507999380117434e-01,5.237110788962017205e-01,4.578030193909596313e-01
4.521167756550575900e-01,4.216015909933926720e-01,4.721397406854989098e-01
4.588565966498824866e-01,5.558401358760188815e-01,5.222576895730931534e-01
5.096676023616825146e-01,4.976568937397861658e-01,5.071024891886074526e-01
4.871940572118367840e-01,4.905614379842137551e-01,3.867483786072696827e-01
4.768584219666713309e-01,5.242338547318061703e-01,5.092528295468610189e-01
4.597462788744567930e-01,3.929290697182937220e-01,4.914162201239622441e-01
4.087813462350907701e-01,4.801416586049991886e-01,5.139905810706274503e-01
5.457069151187686762e-01,5.012234736921614697e-01,4.848955258244049271e-01
5.175170607136039269e-01,5.098058238107739948e-01,4.551656958647632423e-01
4.769193019308961556e-01,5.617421998040141862e-01,4.806176378619233525e-01
5.305200279829437315e-01,5.030052613973478026e-01,5.143737763071221103e-01
4.701374235836843773e-01,4.325420213572959138e-01,4.757532271600848350e-01
5.262345795014944372e-01,4.603987852446020934e-01,4.562546204905353897e-01
4.921785108061028091e-01,4.991478973142213227e-01,5.013128872546177561e-01
5.064064876332142751e-01,5.529592181261387962e-01,4.540050263966893818e-01
4.246248372337236288e-01,5.103280805027406997e-01,4.665259722500196826e-01
4.831990418471771020e-01,4.891919116502531639e-01,5.836350224161463984e-01
4.567772602085013456e-01,5.718325815640967758e-01,5.116726903122453818e-01
5.542567891403633595e-01,4.313851048702074809e-01,5.358324890542658370e-01
4.327694438453943415e-01,5.180773052198948125e-01,5.466427272596963149e-01
5.139148830004747204e-01,4.657965154782962025e-01,4.879763355301121597e-01
5.220726414541744242e-01,4.860212733178403410e-01,5.575628389742756097e-01
5.019438098506946444e-01,5.988672587857842844e-01,5.190073365718869125e-01
5.018330125102010708e-01,5.063238320766884071e-01,5.272901820793302052e-01
4.739424021496626560e-01,4.912748726299596136e-01,5.101004627177112560e-01
5.268629173533001531e-01,4.515771510475755091e-01,4.724801798867781510e-01
4.474907665014741798e-01,5.213556344060721326e-01,4.595304763720830521e-01
5.169126559888664874e-01,4.035271688004848922e-01,5.423561929920384106e-01
4.462487692161484776e-01,4.674560271639255360e-01,4.612734035667952481e-01
5.302887095568126208e-01,4.889583226024911689e-01,5.497766336118170560e-01
5.209528092103304919e-01,4.902539840211070921e-01,5.022446657722227092e-01
5.141629237654502527e-01,5.166848225632101332e-01,4.561635999536846620e-01
4.631071187584314686e-01,4.302944333274328348e-01,5.264233863404317315e-01
4.245789574684279977e-01,4.181859388859692217e-01,5.345764080080660507e-01
5.459581021313424376e-01,5.147932808867674570e-01,5.014526352869960180e-01
5.473754682677319794e-01,4.927912743679147556e-01,5.622077970479301134e-01
4.333164029753775459e-01,4.997428174372994247e-01,5.562377305998952304e-01
3.917127196787699162e-01,5.759544535728656767e-01,5.946682164214385224e-01
4.681777008531646245e-01,5.019653064802225284e-01,4.843517484389502359e-01
5.350808702796030492e-01,4.685500650542494538e-01,5.765299064999319656e-01
4.971679885618005557e-01,4.328399878929722333e-01,5.336736427891110024e-01
4.847795136785989500e-01,4.989174372416732561e-01,4.956970537074825711e-01
4.810864511867543603e-01,4.879901765161298033e-01,5.262654398271026102e-01
5.343946400680332776e-01,4.706901377195598091e-01,4.733576143160441174e-01
5.909237661585035051e-01,5.270317479643197300e-01,5.062412944419520944e-01
4.883799248452077579e-01,5.050368389994218665e-01,5.043816573015342808e-01
5.040756228800408190e-01,4.740856839088338215e-01,5.128952002554426626e-01
5.216992589245319500e-01,4.937467265550785633e-01,5.242204675657857749e-01
5.356570301932348510e-01,5.397965168815277437e-01,4.755992293715339825e-01
5.312430450075172894e-01,4.720048416662657731e-01,5.550458141448102456e-01
5.452692269672944070e-01,3.983818459511891952e-01,5.737299728081287631e-01
5.438252271008627847e-01,5.505182042191352210e-01,4.690195419313012426e-01
4.843319914441108209e-01,5.455277644076385046e-01,5.910256566422832369e-01
4.253453225914408109e-01,4.985107140922243607e-01,4.559473600260901538e-01
5.238124432694665211e-01,4.334928122797788164e-01,5.395417857901990688e-01
4.144451031427731635e-01,5.217126674598624447e-01,5.243686582944665497e-01
4.146400137774275407e-01,5.396992167209505586e-01,4.688582593208310834e-01
4.430781515706349594e-01,5.282912516473007303e-01,4.270208086296291006e-01
4.737388388193741195e-01,5.452198027114251166e-01,4.480668394468209081e-01
5.265036287177670138e-01,4.853365466167077202e-01,4.530521419395079352e-01
4.598635735206532127e-01,5.182703705869484700e-01,5.542394089135782576e-01
4.372724490694124277e-01,4.840736773604740750e-01,4.244609487933808101e-01
5.137558270883793021e-01,5.005010209324548542e-01,5.698484802015195694e-01
5.525911431159070686e-01,4.777090594774451304e-01,4.628194003317040450e-01
4.718336096076337083e-01,4.742438071798900645e-01,5.025215462136305433e-01
5.201654120596952424e-01,4.893471611927652787e-01,4.646954928993735634e-01
4.940455194191424315e-01,4.784049797499844159e-01,5.210981894068772435e-01
5.224491542403419952e-01,4.604165527717523632e-01,5.780295784141227244e-01
5.042198344231471063e-01,5.373113615827677103e-01,5.853727787154812123e-01
4.479556204730333890e-01,5.621499129048954657e-01,5.048504930510377964e-01
4.888471260840026034e-01,5.322445616917613753e-01,4.169464690497366455e-01
4.795712804319826605e-01,4.533206574292438229e-01,5.091221372666212552e-01
5.317123726414580975e-01,4.883184994195277073e-01,4.678502260430544846e-01
4.896350026285627433e-01,4.895498746185479866e-01,5.052805077889171992e-01
5.107100644761737307e-01,4.750075922658252292e-01,5.532492104349600037e-01
4.419810648194445468e-01,4.228732879525086696e-01,4.589241274435253426e-01
4.487838886015750872e-01,4.909309222727528121e-01,4.976493945971598443e-01
5.187793029092183650e-01,4.631838804726683412e-01,5.421266662559588445e-01
4.776888472824022958e-01,5.459152220484408957e-01,4.070391865311038804e-01
4.373461577947732604e-01,4.887999482603668233e-01,5.081456786103349943e-01
5.475929483421131394e-01,4.845214811746467176e-01,5.372229996188117029e-01
5.276241554804188549e-01,4.566228572731573232e-01,5.224821653682166778e-01
4.593308984365433445e-01,5.010721926558536765e-01,5.325110505357238955e-01
4.783793961551138230e-01,5.405967132732050207e-01,4.540534401171593126e-01
4.725552859495293911e-01,4.730868524001722308e-01,4.880425423681482022e-01
5.344679438217664336e-01,4.963644188847331495e-01,4.919482229330770506e-01
4.825664425099466248e-01,4.789670779096050768e-01,5.079268028282797331e-01
5.576422687481801255e-01,5.087030395590014242e-01,4.452460774198778171e-01
5.496378242408720416e-01,4.690995814634013050e-01,5.759622943376588866e-01
5.156232508540421478e-01,4.934590076265071290e-01,4.502794282994543318e-01
5.110161242562457629e-01,5.058043551897224432e-01,5.105604721566907589e-01
5.911925264856400242e-01,5.480503012348265646e-01,4.653302006716272810e-01
4.972038363936953642e-01,5.665806466442261380e-01,5.022766925976224206e-01
5.054258514203403552e-01,5.762292057555914448e-01,5.400655740063421417e-01
5.210142475779050431e-01,4.880273640580046202e-01,5.258150305478618280e-01
4.436072330976555400e-01,5.407295106185476818e-01,5.311529718573333447e-01
5.637427806217876203e-01,5.453838790087922606e-01,5.566101184032181681e-01
4.608141340488046134e-01,5.067870986376610265e-01,5.359372795630827913e-01
5.820245050470190806e-01,4.820022619900648508e-01,5.097971260522486947e-01
5.555322216478221220e-01,4.492163755697006766e-01,5.085252449867803115e-01
4.968621667743035597e-01,4.713694689152036488e-01,5.255018548181868976e-01
5.298429339377223046e-01,4.565902528972221597e-01,4.397096553701800303e-01
5.026105403097723689e-01,4.174628769028309039e-01,5.073563725191863050e-01
4.825851023618682456e-01,5.125944138541477235e-01,4.609817186347137108e-01
5.530291006058221104e-01,4.884032822926877015e-01,4.918220314008027172e-01
5.407142832310347647e-01,5.424423441083617847e-01,5.157186295662439246e-01
5.217931563712279175e-01,4.535132124997947600e-01,5.249780146484986920e-01
4.837662516923265099e-01,4.928882630517472663e-01,5.397136639282206216e-01
4.540244920621782643e-01,5.040537612441590154e-01,4.848677413439645978e-01
4.749050592866039255e-01,4.960500801291548023e-01,4.727668278448168837e-01
3.998816305072694366e-01,5.297200528203117598e-01,5.396629115309385938e-01
4.755448739057798191e-01,4.876166499925995712e-01,5.264012159175165406e-01
5.497020026225788447e-01,5.474989415054574149e-01,4.671542141524887004e-01
5.008992403990125686e-01,5.290280523528019252e-01,5.261361007774183474e-01
4.158765578907179794e-01,5.121832801430098447e-01,5.464795756714853070e-01
4.911545211894726704e-01,5.200708939292859601e-01,5.103098283212870179e-01
5.905358679202868943e-01,5.863392869824882725e-01,4.152103505927512983e-01
4.737003977601980109e-01,4.612675813409399805e-01,5.686897043700261944e-01
5.079784170956677114e-01,4.927456541367510323e-01,5.839555218357388444e-01
4.853335525605638745e-01,5.870517516893791754e-01,5.589153572067684372e-01
4.394747662286788148e-01,4.689862596694319152e-01,4.275160175671753326e-01
5.488437603301045131e-01,4.982790883903694956e-01,5.511210811281069821e-01
4.430663243561064335e-01,4.930707566867764124e-01,4.842684236276658116e-01
5.079119033825256757e-01,5.010454862744513349e-01,4.482628177628840138e-01
4.664191700010915653e-01,4.927713601436496393e-01,3.768052577393032898e-01
4.286465715549838684e-01,4.648424916016595243e-01,5.241268017915423627e-01
5.259262350682413212e-01,4.826201341798395661e-01,4.985379137491851020e-01
5.202528368509161671e-01,4.682290246179113269e-01,4.858354745525202412e-01
4.941765091688840594e-01,5.345773798776501939e-01,4.966530301032867634e-01
5.109870909849403287e-01,4.366511118905557209e-01,5.347063211705962438e-01
4.987877499026686090e-01,5.213250989570555882e-01,4.891639414534921237e-01
5.144584518973160936e-01,5.208544435239171877e-01,5.435866467071118757e-01
4.614274281439589287e-01,4.897425369971888376e-01,5.147607217318578288e-01
5.713550223190997368e-01,4.421535003062143643e-01,4.962461415962362565e-01
5.159505952935381501e-01,5.636221199299554785e-01,4.884098297583274739e-01
4.934761046355955472e-01,4.691903099026681900e-01,5.583624627383014793e-01
4.381904584247170997e-01,5.481347041998546610e-01,5.805392634328548906e-01
4.532746880177711546e-01,4.551129746987750413e-01,4.805945279842539497e-01
5.018499710510444523e-01,5.481350671495807125e-01,4.891147823691696095e-01
5.123930923697269657e-01,4.947141066718793723e-01,4.795821803742145728e-01
5.197087479329063342e-01,5.057675582470698705e-01,5.220159117725877707e-01
4.858247561767975453e-01,4.882641833925499553e-01,5.676395599169152817e-01
4.819376138998416881e-01,5.563700584424428053e-01,5.799456140635083079e-01
5.431555751822578770e-01,4.923089708782784069e-01,4.598271592732197099e-01
4.596543536664423613e-01,4.022859281134439358e-01,5.347316990107801038e-01
4.836290702153082655e-01,4.703182202164017944e-01,5.424897217017464746e-01
5.225069654580564160e-01,5.506807844942500640e-01,5.327203367603403628e-01
4.798675105368569449e-01,5.300870229162909508e-01,5.207826288561550054e-01
4.407822027859586433e-01,5.356542652729201492e-01,5.215325558825061325e-01
4.966514474633796916e-01,5.012484180357031915e-01,4.857218409353344923e-01
4.731874743999587851e-01,4.105356933122559226e-01,5.129824731479895039e-01
5.240804304957535908e-01,4.388613133141934797e-01,4.533663377687252583e-01
5.305837657755475556e-01,5.990403408770903493e-01,5.820234050554777827e-01
5.166829615444226143e-01,4.767699473502294283e-01,4.567467301854415962e-01
4.601768942538543850e-01,4.728565006489089395e-01,5.780746428432225192e-01
4.886982230584638875e-01,4.782687818577149308e-01,4.842954100044662424e-01
4.293537048878934281e-01,5.289204180745713524e-01,5.762551552749256567e-01
5.181101791505857701e-01,5.540786376269355440e-01,5.231653143061626432e-01
4.785219314449020156e-01,5.125406006247179569e-01,5.688467602068042472e-01
4.323870826028492487e-01,5.445558341393320623e-01,5.009990848923608908e-01
4.730854916806224719e-01,5.277351222535394681e-01,4.996298518999132132e-01
4.719981210782248082e-01,5.392694749890197814e-01,5.376308470770158054e-01
4.461591604383157716e-01,4.425740572739647050e-01,4.477582387679874820e-01
5.388796906238585427e-01,4.225109105471130944e-01,5.117675063799551616e-01
4.920986920625927685e-01,5.258778761693639892e-01,4.709582677836963716e-01
5.442102663368295623e-01,5.237007102630862887e-01,5.968636865858526486e-01
4.684798559463739798e-01,4.575446453009234249e-01,4.948263188363386522e-01
5.056346465414200964e-01,4.774507357349745962e-01,5.379397331213350286e-01
5.457671927142807577e-01,5.099610665375432506e-01,5.500439377761809912e-01
4.633779283094196511e-01,5.042042237965927987e-01,5.313058477003058666e-01
4.924319503059398917e-01,4.831319984146559277e-01,4.511851155241164424e-01
4.764569633268085358e-01,5.171158399512432169e-01,5.206308615304314769e-01
5.665477951016082425e-01,5.572234516931429127e-01,5.509878757343995570e-01
5.017095294477329492e-01,5.361971332778551202e-01,5.815342801589664656e-01
5.004263998696372173e-01,4.231984787410174587e-01,5.832798110769067401e-01
5.589697888545281934e-01,5.380555988720350236e-01,5.817020780793239476e-01
4.256437836945264896e-01,4.327558929076945615e-01,4.452943291333169018e-01
4.545841255226307220e-01,5.316444032992505564e-01,6.122590110757611948e-01
4.820000670568249657e-01,5.632209551936578906e-01,4.945198415466263708e-01
4.820128575777820057e-01,4.900418454369613319e-01,5.696794824876295626e-01
4.479872487903588940e-01,5.108834409197269277e-01,5.406866757237085430e-01
4.821459084592258360e-01,5.671502247793333007e-01,4.976310618490275561e-01
5.157819278444376598e-01,5.203943398468630077e-01,5.430545193057166875e-01
5.045258370614119636e-01,4.775235919408387653e-01,5.107138049693111803e-01
4.407636970736774629e-01,5.405487934405774908e-01,4.443027153013374142e-01
4.997954969196933828e-01,5.415117720392442768e-01,4.718857024361323704e-01
4.564263153038119469e-01,5.216981361254034999e-01,5.296698865872051520e-01
4.841973222547217848e-01,5.223195743224533505e-01,5.094946236552140295e-01
5.972385381966680562e-01,4.534338350423384179e-01,4.905854430095262786e-01
4.414797271019416103e-01,5.488290314731502084e-01,5.153675562141232236e-01
4.753542543214203664e-01,5.050356144845579154e-01,4.986745341287443511e-01
4.722541924586521889e-01,4.674635127397394618e-01,4.847262488632649302e-01
4.832422796336185988e-01,5.007482479955377430e-01,4.974932963551557119e-01
4.863686035956608089e-01,5.501253476747685056e-01,4.809519385997198526e-01
4.896067681929096582e-01,4.999169426935026750e-01,5.007011637017103611e-01
4.476279773896792991e-01,5.175084256980648778e-01,4.954993115043550556e-01
5.187394753598453256e-01,4.623858610867329633e-01,5.250246059561302081e-01
5.563525574968622989e-01,5.685205598757923084e-01,5.204368858792232100e-01
5.422307263001303612e-01,4.730378923227995247e-01,4.936093455204345615e-01
5.267867812543292061e-01,5.373257435861047426e-01,4.921354590565903964e-01
4.712336983830422432e-01,5.371565766395378638e-01,4.528486943216405991e-01
3.953304820129206476e-01,5.637027947677123452e-01,5.372185733810378450e-01
4.766580050959757231e-01,5.117699370568277173e-01,4.665946292216945346e-01
4.701770963616181409e-01,5.303073566032620034e-01,4.719757760055591223e-01
5.071030530425681970e-01,5.019338480492721022e-01,4.909981820841493039e-01
4.486269844441696519e-01,4.107575532622294023e-01,5.761877012295884004e-01
5.311756249941055330e-01,4.479307628384938123e-01,5.300810292445196081e-01
4.538500770077451008e-01,5.406168091341860826e-01,4.523704899852114547e-01
5.485826641381222890e-01,4.550718719989054750e-01,5.043703023943874042e-01
5.338602541942748525e-01,5.236780763504811365e-01,4.431990075363220760e-01
4.348152865133784184e-01,5.335137437310133457e-01,5.063599162234017070e-01
5.216442024480462125e-01,5.183889644674424257e-01,5.090657922155230608e-01
5.567719417177346974e-01,5.083793250204510228e-01,5.294786682152277102e-01
4.719537200108129271e-01,4.486861911206846409e-01,4.855117548440694430e-01
5.536052735819035897e-01,5.252741938424436707e-01,4.670464837909090172e-01
4.758909453954958124e-01,4.847228432323932301e-01,4.809526370575722964e-01
5.506801878575264819e-01,4.923688601123621944e-01,4.348346940008624428e-01
3.952348708487689044e-01,4.671620148485331470e-01,4.880876514471467198e-01
5.145230388433544855e-01,4.867406880926063439e-01,5.073222635053814544e-01
4.839871953361777890e-01,4.684384071996046672e-01,5.354323739634069268e-01
5.026250407786733154e-01,5.865010272241015787e-01,4.526125759432237383e-01
4.409810859017163631e-01,4.861243144881840506e-01,4.729282276117418027e-01
4.626818631192550213e-01,4.710500245664792085e-01,5.197512804459051283e-01
4.186395618385720940e-01,4.671459234430795360e-01,5.172830521988935892e-01
5.243115853406430382e-01,5.344790078005191569e-01,5.252147977947784208e-01
4.180483969793598598e-01,5.465003773723318137e-01,5.148094185256517630e-01
5.053952947843098897e-01,5.380863818583947467e-01,4.862196613735250694e-01
4.372280598120155681e-01,5.745578776605759774e-01,5.029344642787745290e-01
5.395744074127590828e-01,5.014783580033885801e-01,5.501503016541785529e-01
4.524591628403016319e-01,5.507724367707358404e-01,4.484818643411149774e-01
5.171905807710677205e-01,4.359576867538360601e-01,4.711643398418193240e-01
4.421150387151667194e-01,4.927881230089299347e-01,5.327557622227080403e-01
4.458046472816247774e-01,4.565538139749084623e-01,4.838635033471158087e-01
4.425250082185044342e-01,4.848541042916010291e-01,4.306995856671672063e-01
4.913365217631681103e-01,4.615042982070977629e-01,4.517134244749517191e-01
5.767988565635219222e-01,5.106682262955687390e-01,4.615443555509637918e-01
4.821549435388038374e-01,5.601927560182670129e-01,5.192048195729178639e-01
4.685692607390922193e-01,3.766062264455519171e-01,5.607104392746846688e-01
5.037912088904421548e-01,4.969038421512015913e-01,4.650875132802833045e-01
4.795234455112093452e-01,5.536331023984092381e-01,5.371823458859863454e-01
5.023605471285489399e-01,5.383735655671043618e-01,5.303378324022431922e-01
4.813538733181679241e-01,4.360722551785461976e-01,5.652653726044438720e-01
4.747228549569780243e-01,4.353948636340848610e-01,4.708626996622561345e-01
5.279729589703195947e-01,4.631189216552433763e-01,5.128319740519636794e-01
5.077375513105063520e-01,5.426630743240999921e-01,4.715721870525542148e-01
5.127064408546240237e-01,4.286895880707046191e-01,5.896333823546595632e-01
5.161867991140257628e-01,4.653963152046630136e-01,4.852436238807139590e-01
5.269451805074029105e-01,5.179284566794235545e-01,4.974038336697496065e-01
4.672500063940666637e-01,4.672968871221844789e-01,4.999550459878868147e-01
4.930147292495155598e-01,5.607914999829057834e-01,4.877881860258396207e-01
4.838951531647038284e-01,5.974164575874885141e-01,4.884897440510218569e-01
4.261647744162668228e-01,4.895008350165456212e-01,4.446945816254274098e-01
4.646668335465278799e-01,5.262727249400871443e-01,5.339716066998586586e-01
5.187786355465695554e-01,5.679409727248020401e-01,6.004759980898933813e-01
4.732643705531778822e-01,5.222567486787721425e-01,4.929245642342920397e-01
4.650942896075050403e-01,5.800219621390713121e-01,4.806097026908952019e-01
4.171201876783419693e-01,5.305291382788436261e-01,4.489684652361589090e-01
5.421411933897583024e-01,5.087483872935825158e-01,4.287727052030805841e-01
5.474826871833349262e-01,4.421073034049515793e-01,5.011707098932737248e-01
4.261013760241276205e-01,4.401738503633189081e-01,4.779132430858904490e-01
5.097231895506294519e-01,4.551345348501389387e-01,4.830203026190285076e-01
4.695351350592523176e-01,5.690510094941688690e-01,5.207780266226093024e-01
4.330647054682036368e-01,5.571610146831488253e-01,4.185127788817112338e-01
4.335883317508776313e-01,4.689993744761530303e-01,4.791648292702677669e-01
4.522249313592422992e-01,4.276299483649465549e-01,4.824645703685981890e-01
4.895535125499313467e-01,4.711365206800500194e-01,5.156095062352258340e-01
4.704335819160176402e-01,5.605508880119141057e-01,5.179674573022836626e-01
4.722453418097167788e-01,5.457844221572724086e-01,5.441555230202346216e-01
4.220509964298138073e-01,5.028721762738771472e-01,4.597979276926998926e-01
4.434814578760212234e-01,5.371279752353067538e-01,4.754803873286417848e-01
4.745573387173057656e-01,4.730951591101151821e-01,4.450730229702217766e-01
4.990959782848574666e-01,4.850799210038286846e-01,5.104265989624927613e-01
5.736118110293214611e-01,4.811579724556929727e-01,4.746481721019347177e-01
5.047034855942781340e-01,5.096289471027292128e-01,5.463525031860088088e-01
4.597455826257582645e-01,4.577725600572520870e-01,5.387963898081914449e-01
4.913877099372824242e-01,5.054334006856828765e-01,4.518157082035983985e-01
4.251117255232763625e-01,4.941520326873284907e-01,5.351279960167356631e-01
5.410597723453012264e-01,4.819172597153820736e-01,5.008143011028941549e-01
4.378079620996676580e-01,5.332089791859521144e-01,5.281787187355851954e-01
4.286917390042582765e-01,5.392397481956865413e-01,5.212855291542044522e-01
4.614869902982166594e-01,5.364887113774183813e-01,5.255091244445139198e-01
4.952502183277729397e-01,5.448906626212647319e-01,5.230174217981484741e-01
5.424905365140529900e-01,5.373297214237080510e-01,5.111292210963980231e-01
4.721411307601984797e-01,5.193293477362540544e-01,5.414776934730625157e-01
4.850839411920047639e-01,5.196668202426177885e-01,4.777113831564550606e-01
4.733832478780854447e-01,5.214518155005951616e-01,5.046828403072389779e-01
5.217362533475876640e-01,4.731755219539027224e-01,5.342949452759816475e-01
4.369069156137668219e-01,5.294836561132032493e-01,5.291953593529172828e-01
4.844535178727156222e-01,4.494400672261787411e-01,5.193302750206342244e-01
4.954925295871084878e-01,4.930503372910747251e-01,5.482420244969556933e-01
5.510450873801521210e-01,4.840359534351537651e-01,4.795825258303543781e-01
6.012180043830508414e-01,5.234030295681270095e-01,4.591685569785808330e-01
5.157638809319696760e-01,4.997984264504019558e-01,5.070456181761263670e-01
4.646671684361530219e-01,4.748659585318182330e-01,5.102029443092410688e-01
5.067484503455927936e-01,4.535006203860464935e-01,4.951790508915863143e-01
5.474860420942924133e-01,4.668163541658342797e-01,4.236331979908029566e-01
5.421599243340645691e-01,5.071387682117322049e-01,5.040018072583341002e-01
4.864219157927175408e-01,5.105256316729047672e-01,4.865327015143171008e-01
4.969711299894878920e-01,5.098894189254251641e-01,4.974430091731888437e-01
4.194639697196581585e-01,4.513860243754305723e-01,5.583397497226258999e-01
4.581557804710887916e-01,4.903453928623466296e-01,5.327272613674228774e-01
4.418018820128215562e-01,4.896849514663650926e-01,5.489083850651391705e-01
4.815622689592848338e-01,5.266198217734119336e-01,4.555154266258750195e-01
4.345282479822259458e-01,4.475504593476182791e-01,5.027091343941084700e-01
4.751229624542593344e-01,5.506847439969970726e-01,4.993522390601312644e-01
5.228132023356378832e-01,5.447431440162863181e-01,4.795956299013997559e-01
5.337241980246418827e-01,5.677181083922754334e-01,4.979375936135933545e-01
5.503635048055310897e-01,5.360315585647296155e-01,5.286782575446620225e-01
5.177429753938127543e-01,5.291536454675603851e-01,4.437072090654660128e-01
4.592223708477213284e-01,4.538264235842655037e-01,5.557016360843639591e-01
4.991248764088202505e-01,5.238922190464797568e-01,4.502654291310952961e-01
4.613226564173119604e-01,5.129590378594839351e-01,5.090393621985178640e-01
5.416784398329609340e-01,5.013567949012833758e-01,4.603686313155238574e-01
5.176342473180420845e-01,5.263651788190972791e-01,5.871354566898426830e-01
4.362205102422423986e-01,5.012772282643757071e-01,4.715360622572830618e-01
5.374650885533566180e-01,4.926675154810127855e-01,4.693447803567427079e-01
5.353660069838780400e-01,4.832098591364942242e-01,4.965903460779526046e-01
4.353281726595605861e-01,5.286368867883270983e-01,5.010199539437355520e-01
4.740823963689438370e-01,4.955898747914399549e-01,5.164508317046333508e-01
5.096122386818364713e-01,5.106673366792799929e-01,5.254514198362081334e-01
4.853548460258076402e-01,4.912026523414413925e-01,5.565802419081867791e-01
4.904538539272317310e-01,5.148011085224212247e-01,5.240198901546628818e-01
5.133206597438921825e-01,4.501954719109181879e-01,4.816182590297394261e-01
5.092434610120225580e-01,5.430500362331596165e-01,4.081262994325933202e-01
5.232576087258820063e-01,4.955968568177291367e-01,5.059589456967644727e-01
4.653478013489223963e-01,4.756065640228807623e-01,4.563128840801161101e-01
5.180102640626529364e-01,4.509871265585462252e-01,5.128255474787919432e-01
4.818650036720976138e-01,5.219489268570677298e-01,4.913002131061045552e-01
5.172362526422519258e-01,5.870863309685165898e-01,4.897387656889277685e-01
5.494754756158080067e-01,5.414500652170932682e-01,4.646239010195225005e-01
4.813659613005502602e-01,5.926334726197280967e-01,5.404000476512751394e-01
4.600636610775892810e-01,5.482567228223323985e-01,5.671924439010116448e-01
4.956614542716869520e-01,5.658157096324276658e-01,4.682800839917575786e-01
5.083547150491213307e-01,4.995367090928390930e-01,4.785546834628393031e-01
5.552181837592350400e-01,4.928771206599122379e-01,5.352809009841543730e-01
5.378923542796587576e-01,4.520008799725572790e-01,3.950495112006313092e-01
4.132843703012233916e-01,5.025813541239450011e-01,5.205432214325601548e-01
3.897624283732226691e-01,4.135684248605351887e-01,5.273843985191408734e-01
5.106195429283869602e-01,5.572339192157145238e-01,4.710794428727023697e-01
5.381246089094635643e-01,4.440385489402186581e-01,4.143245724758869430e-01
5.364032828872766778e-01,5.829479224072923182e-01,5.109776050054216645e-01
4.398179910970749229e-01,5.100951354248273173e-01,4.618934435306271125e-01
5.208497769321158710e-01,4.553134576209592610e-01,5.434995489634854016e-01
5.024398249831510954e-01,4.832182677406695603e-01,5.204895600871782824e-01
5.946356001174827322e-01,5.319731077420146725e-01,5.382863964676409818e-01
5.403277684084256682e-01,5.249276250943741839e-01,5.115552957564872827e-01
4.595342277423755672e-01,5.529890278816672611e-01,4.951609915240141047e-01
5.020296388528623366e-01,4.983682133033696671e-01,4.410880149135718020e-01
4.613279432565075555e-01,4.704863765064446479e-01,4.937079715201101449e-01
4.065706959182937008e-01,5.669114964302826021e-01,5.492690773225196166e-01
4.837584532500220913e-01,4.716760756227802442e-01,4.586675309452807325e-01
4.502500722918987841e-01,4.635785751562404577e-01,5.011991708290486347e-01
4.993017346365295484e-01,5.440299256807452633e-01,4.964413884891366036e-01
5.680750972178937319e-01,5.361886278299432540e-01,4.264446774120408956e-01
4.381129472845404771e-01,4.934966921856672739e-01,4.939779384278766283e-01
4.865453133973183242e-01,5.282585920991279549e-01,4.798276194188207944e-01
4.717934032436708058e-01,5.007040694836857320e-01,5.538195329174666615e-01
5.221777893258818803e-01,5.137363214585679572e-01,4.658158666879718135e-01
5.023674429989719581e-01,4.414096930096021443e-01,5.293411398406573376e-01
5.653510528888663345e-01,5.305335262524741857e-01,5.133111424307709170e-01
4.680395547168759718e-01,4.818021216888387359e-01,5.490062818169261227e-01
4.831728335019772058e-01,5.266589313716570908e-01,5.359894396384253801e-01
4.799555480821436904e-01,5.784875348118442284e-01,5.405527882515189786e-01
4.682763016561834468e-01,5.435697900864682186e-01,5.771008962862286262e-01
5.237182260701790382e-01,4.956674532605467864e-01,5.634530143250290335e-01
5.104035113465933415e-01,4.606736933685528501e-01,5.438490996731975002e-01
5.323220803499885134e-01,4.943824227457309095e-01,4.635093436511837361e-01
4.857070050221922730e-01,5.737511793153947659e-01,4.881722810420374148e-01
4.640269368665698724e-01,5.359006538599537794e-01,4.867022871036920662e-01
5.683978368368658440e-01,4.950756789180707496e-01,4.536078275457025577e-01
5.175054039028316177e-01,4.939479779351783062e-01,5.510806832222732154e-01
4.989057047198409145e-01,5.559300361732725237e-01,5.277940517018298028e-01
4.723690683505169519e-01,5.480198535711082730e-01,4.790501827493828246e-01
4.210685150289856793e-01,4.938124439870684723e-01,4.634560366760456795e-01
4.554414372890226992e-01,4.825800280512501650e-01,5.146710420475636427e-01
4.787816800163810504e-01,4.600182232364126156e-01,4.708148267338265192e-01
5.460817838547525893e-01,5.648619148032002490e-01,4.695920305591794741e-01
4.701123474742367470e-01,4.999298756275813438e-01,4.340114772459801040e-01
5.754346105723888716e-01,4.561257234342050992e-01,5.298907474466889589e-01
4.773679746725498219e-01,4.510732628221408302e-01,4.401166866759451124e-01
5.250893339873283772e-01,5.231402333667671822e-01,4.529107741643237373e-01
4.909475564361364119e-01,4.099184379593064920e-01,5.135366404207857283e-01
4.265635962865964581e-01,4.847529343463226059e-01,4.895248930332232185e-01
4.766261340955978976e-01,5.202473584079672086e-01,4.909032097169170883e-01
4.198869905271720993e-01,5.225299584108082929e-01,4.831297781958577287e-01
4.887524265242560451e-01,5.381163920641047760e-01,4.879120764353889750e-01
5.400792389471553712e-01,4.934897937451066530e-01,4.934182310776846214e-01
5.286085037337338033e-01,4.673295921257689667e-01,4.969935698292370918e-01
5.212848238412116642e-01,4.237429943877567551e-01,5.342182419743942701e-01
5.256943021860629450e-01,4.927061710724514043e-01,5.300740670318914161e-01
4.721460749270660617e-01,5.076115891623503851e-01,3.877413826876169867e-01
4.993590171859366711e-01,4.537584521266656568e-01,4.441259482277248871e-01
5.322104040897033261e-01,4.067764573417675944e-01,4.470411711784202935e-01
5.392197702848269270e-01,4.763292307942528225e-01,5.081717546900821336e-01
6.058546908560278332e-01,5.689613760250844532e-01,5.406105850383943201e-01
4.901038250861621814e-01,5.040573307172033779e-01,4.465516436156887203e-01
5.031116227473853009e-01,4.565165700631356738e-01,4.920041642922859948e-01
4.490919762429868012e-01,5.700659804158586530e-01,5.059382089906417912e-01
4.923625515004635411e-01,4.588701495342496495e-01,5.390991455829527990e-01
4.925557142530989641e-01,4.726695613295309184e-01,5.285381465417148261e-01
5.481235574195698623e-01,5.206598209482898865e-01,5.515347874836808995e-01
4.534766923794584237e-01,3.969169469406085282e-01,4.468652672208030530e-01
4.507193685800314209e-01,5.480503292673372107e-01,5.860395676369942741e-01
4.622600296133819731e-01,5.104986934639148544e-01,4.241063808965450654e-01
4.275931408911446407e-01,5.351513278847254140e-01,5.893164661674918925e-01
4.547510910040405419e-01,5.195719009355055373e-01,5.074307610073331976e-01
4.764157901211458768e-01,5.181146183543570150e-01,5.021956567928416160e-01
5.080056068608157505e-01,5.569241879908745085e-01,4.979242963074022033e-01
4.485993438650158760e-01,5.038379771397939466e-01,5.172546076627709821e-01
5.225747878125716062e-01,5.021602956130125639e-01,4.607944641448844525e-01
5.220352664371860074e-01,5.463747782793270114e-01,4.975928805291908730e-01
4.998719630404255265e-01,4.665654301941279392e-01,4.359752895893240221e-01
4.498709156151348143e-01,4.623360359464165348e-01,5.263089355481092024e-01
4.910646636948206578e-01,4.857793073667709960e-01,5.533057979437887575e-01
5.069078743565775813e-01,4.836366539991553415e-01,5.288256693583912593e-01
4.700266344199699464e-01,5.294563976035322472e-01,5.314044994498228203e-01
5.174156391749669126e-01,5.377139340916932131e-01,4.536161491091687537e-01
5.529989806576455225e-01,4.144926478939278125e-01,4.160635484567842823e-01
4.272627912147367035e-01,5.611997475128250867e-01,4.951789578548048687e-01
4.761585056906708635e-01,4.724235135803667718e-01,4.793976106221314315e-01
5.255916455965307099e-01,4.816156554006785218e-01,5.326298852340894951e-01
5.274607206974890605e-01,4.900255099447901608e-01,4.563569919552488141e-01
5.466997515617105785e-01,4.878060615343341455e-01,4.944383284114317045e-01
5.891982328763264443e-01,4.745686760832469320e-01,5.494981949580682867e-01
5.797148835323893135e-01,4.970666276333164380e-01,5.151645046086462676e-01
4.691003103748053182e-01,5.244014008357534840e-01,5.560196605593862307e-01
5.079138489642985865e-01,4.485384001910982521e-01,4.204607123601719620e-01
4.671390157229249884e-01,4.349206165827030346e-01,4.460700755697639686e-01
4.460872553786405792e-01,4.456229762402820760e-01,5.704587249794159654e-01
4.667928978861656253e-01,4.358538581158112324e-01,4.838214612898609213e-01
5.418425189014577370e-01,5.427547003875486942e-01,4.928142995547918348e-01
4.620370828740549274e-01,5.388983585671774934e-01,5.218837135614389222e-01
4.659312623316135826e-01,5.311489229220422992e-01,5.492207593789056874e-01
5.047576874895233212e-01,5.151779881174322062e-01,5.268403283167171214e-01
5.362709783674313169e-01,5.081356772811272959e-01,4.842260982585663842e-01
5.267931542261551359e-01,5.714473296216480147e-01,4.524697710120426097e-01
4.498556113460445149e-01,4.716427411186001617e-01,4.873990485094643610e-01
5.249565174016316282e-01,5.255737494787871000e-01,4.682628823662918771e-01
4.602505071488914301e-01,5.307954768386330402e-01,5.372011877067510710e-01
4.613532667670307563e-01,5.157470197643961862e-01,4.725821848799489633e-01
5.316450444228300043e-01,5.393364665912941947e-01,5.671556610056472936e-01
4.504294079246173865e-01,3.825367975487053984e-01,5.234788373671069861e-01
4.675757947615497012e-01,5.270609641859773653e-01,5.694498112966465131e-01
4.843726358534835574e-01,4.386855564843613053e-01,5.165974536894224478e-01
4.798106092669512379e-01,4.756659180731743763e-01,4.690486911454492258e-01
5.627862367840171798e-01,4.729164801283837205e-01,5.770946917632749917e-01
5.099791389466433733e-01,4.995843796032577444e-01,5.035735544750912229e-01
4.442833659527000711e-01,4.812799949829180135e-01,4.721963124827284197e-01
5.458468138131911118e-01,4.450758260610399586e-01,5.493768528812799090e-01
4.984161490761728208e-01,4.623437716430913169e-01,4.469510991868182459e-01
4.995682562992967979e-01,4.726225198462115085e-01,5.318839191116211396e-01
5.060854591251837675e-01,4.950729164076267397e-01,5.407083078935623899e-01
5.531854758685584850e-01,4.275041222908789740e-01,4.373172206794323502e-01
4.456303465572683531e-01,5.397239963566856646e-01,5.158618244279514764e-01
5.249712640578445555e-01,5.140702036276083575e-01,4.706045757330422075e-01
5.033190927335849940e-01,4.721591910303597484e-01,5.712681653111153501e-01
5.222871174103506098e-01,4.959492459530300268e-01,5.352825742520659347e-01
4.633711086003353130e-01,5.069144950519782755e-01,4.873931527200618397e-01
5.116502194322081198e-01,5.324780309571404135e-01,5.356947281633048785e-01
5.290725718374306163e-01,4.609376138905312836e-01,4.779156455380668134e-01
4.956897572442933164e-01,5.118951445241215481e-01,5.034102779717427589e-01
4.682601489388117377e-01,4.510808986364948092e-01,4.919505163216204013e-01
4.952764968400138468e-01,5.167008721571945129e-01,4.558646747683409717e-01
5.322719626629738299e-01,5.756690691912266233e-01,5.015165883951543391e-01
4.618287585246309002e-01,5.413713754840834280e-01,5.403002764100786059e-01
4.409998072093016530e-01,5.150216142168327904e-01,5.553918327608635686e-01
4.907032611559266067e-01,4.742161769599199106e-01,4.699729698341012507e-01
4.799709316354919264e-01,4.839511716072626424e-01,4.500733934929907476e-01
4.983748767879517816e-01,5.460180779647554328e-01,5.031133805134799797e-01
5.140121469763848649e-01,4.475439466691952251e-01,5.267913069999305975e-01
4.747887407969111351e-01,4.941045204495813081e-01,4.849225927030854644e-01
5.470109794656786706e-01,5.678204731102911573e-01,4.978935303217728037e-01
4.987933132374415268e-01,5.147792800657509105e-01,4.692985997551658017e-01
5.573512443212530476e-01,5.831364986654333782e-01,3.943766988216636515e-01
5.121861481667516758e-01,4.512035286640905807e-01,4.545566261113775375e-01
5.073922816964354654e-01,4.823219313415337273e-01,4.831411385088827948e-01
4.412765085526436648e-01,5.407810584236921736e-01,4.644052938568683508e-01
4.716767200392094073e-01,4.709199743782999104e-01,4.895454998644909184e-01
5.073491432771985998e-01,4.079603776533318737e-01,4.576162748971529526e-01
4.253659598729245261e-01,4.667105084064225862e-01,6.188407400163046246e-01
4.994873890032688335e-01,5.243708688404873364e-01,4.936576256696840748e-01
4.887113834312838412e-01,5.463736994421608539e-01,4.456796129662970452e-01
5.460789311230728194e-01,4.759049314208755321e-01,3.994772590735716222e-01
4.855679125747580094e-01,6.043447811537890901e-01,4.860498514820491001e-01
4.867014997150900801e-01,4.697214270127522684e-01,4.788821973462576431e-01
5.092834051964265640e-01,5.187674775013273454e-01,5.054154064577157657e-01
4.932429810798656389e-01,4.784213051393943483e-01,5.327149632026162429e-01
5.059460816342885581e-01,5.847660511978006737e-01,4.491398158728496792e-01
4.866256973782733253e-01,4.528162845626098054e-01,4.887297990165855865e-01
4.627972180076978526e-01,5.346884247323382411e-01,5.323727868328429480e-01
4.183751133355397833e-01,4.389127177719091555e-01,4.098793100820724011e-01
5.929921746206885391e-01,3.998288865642566914e-01,4.921460257609233113e-01
4.873738573162250676e-01,4.851857779954519279e-01,5.266588741234969895e-01
5.017134118619867023e-01,4.869718860258513971e-01,4.513726912167243532e-01
5.596886120670844234e-01,5.481899509832095507e-01,5.475578509035810004e-01
5.777540887448742168e-01,4.847480840533623381e-01,5.504733659423324266e-01
4.499046930403671207e-01,5.364780312495670556e-01,5.004901711306123380e-01
4.964606999551970379e-01,4.423443120968784670e-01,4.954328921159115717e-01
5.063318709891770908e-01,5.491223361792150204e-01,4.613537258760972981e-01
5.915277909836342829e-01,5.199679631113593992e-01,4.727079733881679457e-01
4.804017193201264302e-01,4.637175697327007295e-01,5.479668701674276221e-01
4.641815833825586601e-01,4.545095649962431206e-01,5.567424357385266642e-01
5.720753901293311738e-01,4.793645842832888193e-01,5.037067262500203313e-01
4.319060304011481111e-01,4.790061386850089642e-01,4.775883967936209729e-01
4.616115596468564619e-01,4.162193462015795764e-01,4.736578161832298295e-01
5.088847311827843223e-01,4.967644107732638314e-01,5.518353523794169435e-01
5.098875858825345775e-01,5.609683004303245291e-01,4.800482168170481789e-01
5.127999622344198150e-01,4.934129979764329543e-01,5.125563402384755163e-01
5.659540910998838159e-01,4.287023842535760410e-01,5.121157914271168288e-01
4.904733391712148283e-01,4.810981834956281067e-01,4.578219594211562216e-01
4.942299140960661474e-01,4.712853209071998228e-01,5.426112460685288408e-01
5.387359640669446836e-01,4.594775616905566462e-01,4.534575607743754899e-01
4.292033224804847613e-01,5.329685873733985835e-01,5.377111878997304917e-01
4.892254820203119081e-01,5.398818989985633143e-01,4.336422792678515936e-01
4.858006994722780525e-01,4.943869996306172188e-01,5.687191933493788154e-01
5.626636286691708566e-01,4.280137290882117251e-01,4.884252242546511802e-01
4.666384967876042178e-01,5.348669947925247525e-01,4.324208275857718831e-01
4.714069188047005365e-01,4.652583192014236313e-01,4.389183491108329949e-01
4.751392336332981858e-01,3.920528751481615615e-01,5.265312638484631602e-01
4.981049952005480175e-01,5.040357767575331938e-01,5.440309810633265908e-01
4.301956933566670194e-01,5.157906680878944217e-01,5.094285676077086045e-01
4.905721947946526384e-01,4.659198226254328556e-01,4.928947239482066589e-01
4.396609226831706962e-01,4.448501121939349989e-01,4.553492327058186184e-01
5.420438355218418769e-01,5.236944769494975560e-01,4.617931357533269221e-01
4.895940489516145688e-01,4.736822606486630893e-01,4.959818362000452119e-01
5.355155993126613501e-01,5.497128584312469535e-01,5.015371581175287474e-01
4.615841125143579360e-01,4.470471962127021137e-01,4.869004426914175787e-01
5.574181198965098005e-01,5.311858447975782438e-01,5.397153833156652647e-01
6.149028709846365848e-01,4.532097976943401108e-01,4.331286959001853232e-01
4.551588746266621022e-01,4.754401125987277599e-01,4.616599718888386716e-01
5.026498864194522964e-01,5.835702775031749168e-01,4.831443874741607747e-01
4.811247815024827235e-01,5.033418412730886748e-01,4.635663677754787715e-01
4.972245231914454999e-01,5.038226993243858365e-01,4.232448788897668623e-01
5.312022450152537045e-01,5.317040603816017841e-01,4.341429466069881005e-01
5.037460503754473962e-01,4.998919410139741615e-01,4.540133954827660356e-01
4.690424029050686006e-01,5.242151316454523036e-01,4.698627506799978870e-01
5.014754528566734981e-01,4.788867736642356543e-01,5.424330797890910549e-01
4.878364549887844182e-01,4.657378247301038887e-01,5.126469144232256303e-01
5.579670064386538231e-01,5.897701657610271431e-01,4.679670908518558381e-01
4.934232047384891628e-01,4.516558996816664173e-01,5.176779570878632386e-01
4.378180318217851918e-01,5.045031869259876123e-01,5.314103877391272990e-01
5.018132725334711886e-01,4.798728698444124086e-01,4.485153180998615596e-01
5.125365460976697429e-01,5.036853611567277955e-01,5.553438136746796649e-01
4.662601107349006457e-01,4.659297087695195572e-01,5.119654238192923312e-01
5.381547343194343913e-01,5.135297736577152383e-01,4.831456917810469376e-01
5.268691074785609718e-01,5.131672284824898567e-01,4.490216340619242463e-01
5.208701949944589682e-01,4.850288141274678444e-01,4.666914799864784191e-01
5.779221683226763995e-01,4.758230580150489275e-01,4.732607040745243077e-01
5.200928138405895851e-01,4.870570883005717056e-01,4.713090917605915475e-01
4.954492807640624719e-01,5.158051763941687851e-01,5.006323267881501726e-01
4.533869616903549726e-01,4.706153472588598397e-01,5.526003004117362449e-01
5.733308648052715117e-01,5.239882256510539627e-01,4.866651254116752257e-01
4.575576966286946101e-01,5.183333910101811659e-01,4.932185418564680734e-01
5.971258936724953559e-01,5.364496605459343481e-01,5.011864526569832501e-01
5.098805338106781049e-01,4.755908414319726663e-01,5.416435599846909366e-01
5.001859106452216652e-01,5.006568568274261111e-01,5.274101350470750127e-01
4.043971181157091088e-01,5.193029191029988612e-01,5.001648779990310878e-01
5.145164378790954007e-01,4.921459603982776265e-01,5.198227208228162199e-01
4.771548994184302006e-01,5.673412210212129825e-01,5.881471621196872057e-01
5.022332515296736855e-01,5.315873689134227309e-01,5.202130903357955471e-01
4.813246222261651774e-01,4.880667517622555018e-01,5.119058178346528321e-01
4.952420229475072433e-01,3.992517764100166899e-01,4.973250615367751370e-01
4.587134817273711418e-01,4.410344283762326345e-01,4.902424359240740159e-01
5.109364020465295697e-01,4.645621879882914085e-01,4.726436876776056173e-01
5.130791807001493510e-01,4.824363264580829314e-01,5.537938948178915410e-01
5.181767798531540237e-01,4.502611316601787261e-01,5.161128131107831640e-01
5.634936894456745726e-01,5.006646990509187045e-01,4.474276648732681272e-01
5.587128048431838634e-01,4.628806785797671131e-01,4.322192609242984096e-01
4.690192597542675035e-01,5.442936942731116945e-01,5.530686193880581802e-01
4.733888822320839185e-01,5.342278121932769741e-01,4.723040939696473983e-01
4.450288392851293184e-01,4.494440888934467249e-01,5.580270384233469994e-01
5.389723679044587934e-01,4.563150927538929258e-01,4.400542695969446028e-01
4.793112341390020625e-01,4.503020135073186325e-01,5.980396329403524502e-01
5.511459388165185214e-01,3.760887768972733802e-01,4.737627598640594684e-01
4.554403117604062801e-01,5.274995015138025378e-01,5.150454532401433916e-01
4.809815071486284732e-01,4.823820199039121626e-01,4.779809220661532243e-01
4.423107585689493582e-01,4.688995307127814538e-01,4.157775657836189076e-01
4.764612441033296286e-01,4.624258584337268552e-01,5.328774875925877952e-01
4.798636717993094991e-01,4.594382034062579057e-01,5.235789013175234929e-01
4.694112043577163274e-01,4.743295468792733671e-01,5.690941605514215906e-01
4.722994330026313303e-01,4.903891371288284229e-01,4.220683511123294318e-01
5.653797261127450069e-01,5.006590049639239037e-01,4.829806615374801493e-01
4.800582939970311491e-01,5.257506193101078029e-01,5.497200089588084593e-01
4.356726518274882110e-01,5.006548999116798848e-01,5.228904111612310279e-01
5.045436005765728815e-01,5.176242495703322621e-01,5.177578570381430323e-01
4.696851148340543403e-01,5.590836633482056950e-01,4.797455916126371345e-01
5.557001868068982553e-01,4.618752543793138710e-01,4.134918166261981609e-01
4.676240031944836617e-01,5.524474580385381195e-01,5.543579837815432176e-01
4.542315182657482020e-01,4.571144671733647358e-01,5.245890913495495633e-01
5.762944568732052408e-01,4.820638954591096592e-01,4.773227464743480808e-01
5.407114593168174110e-01,4.603693358252636814e-01,6.104742229066612014e-01
4.889352277819721260e-01,5.378885533021555698e-01,5.062057260895217459e-01
5.306612478977734693e-01,4.616920166297049932e-01,5.275813147138956882e-01
5.259691217205175739e-01,5.185048272474799269e-01,4.796367929404489749e-01
4.534543486779550325e-01,5.078970597258544162e-01,4.941114805720512870e-01
4.830851819475298625e-01,5.580570847994267281e-01,4.463618994968663323e-01
4.847907724055170453e-01,5.031381896231800210e-01,4.877971233975992860e-01
4.843064444042672334e-01,5.241751314510805226e-01,5.112513693703928386e-01
4.491042627800968523e-01,4.790322811422257354e-01,5.144683435370998037e-01
4.796722753851200283e-01,4.847145136508220209e-01,5.239403458410181180e-01
4.820158158066221721e-01,4.831113108728321004e-01,4.793547648506277792e-01
4.833013258144002178e-01,4.441134917610207733e-01,5.795913764363159748e-01
5.138183606637641843e-01,4.864886715651496329e-01,4.808564712612345415e-01
5.124022309270614972e-01,5.023599404457941286e-01,5.141322595666735218e-01
4.986734411650606824e-01,4.751246873614890509e-01,4.658988560077536589e-01
4.404656383504221839e-01,4.700864486662238440e-01,5.054477107076374987e-01
5.668603881552513046e-01,5.286513362446714215e-01,5.368600464602837352e-01
4.930707196217515853e-01,5.063740303035918489e-01,5.000496452319387330e-01
5.347940342152440740e-01,4.647347316663764660e-01,4.695123481319009584e-01
4.514378963139910050e-01,5.831600953703500734e-01,4.938202147395349684e-01
5.196743175264576520e-01,5.497911863990354586e-01,5.080737867157504306e-01
4.711209539712208905e-01,5.250056180386885041e-01,4.979560692001775424e-01
4.663311198082042974e-01,5.948153177378510126e-01,4.569583563662365511e-01
5.272455651625210793e-01,4.688049789826417846e-01,4.703939876488895666e-01
4.593151519561808893e-01,4.409259060554308607e-01,4.694682827449260243e-01
5.314293705940406065e-01,5.084233583219273100e-01,5.377857494484786782e-01
5.082967643888580689e-01,4.977830701038316041e-01,5.009910634751849612e-01
5.725535462942966669e-01,4.880066119566165428e-01,4.919359935171616627e-01
4.955574890131743682e-01,4.943380442198904157e-01,4.839289772452368132e-01
5.266571798993262554e-01,4.934572597882909140e-01,4.938562620814322401e-01
4.938365080116330907e-01,5.167181310784337844e-01,5.007327575804529918e-01
4.744457078579275566e-01,5.121844914144813021e-01,5.281519271197477883e-01
5.078693754692437112e-01,5.422697554767974548e-01,4.874375235783353078e-01
4.856252889337809298e-01,4.972370572409554601e-01,5.326990573563862297e-01
5.171276805411145761e-01,4.604460127291963301e-01,5.047524481271263852e-01
4.782508444423809180e-01,5.162794147360115771e-01,4.377657425370201638e-01
5.460156389159338541e-01,4.577967445992656703e-01,4.201882588398213603e-01
5.168602771618303615e-01,5.122131191133847405e-01,4.383453476065188315e-01
5.301779376604804916e-01,5.048179420095402214e-01,4.215673146598679644e-01
4.763223962286703972e-01,5.839190203937539847e-01,4.521017910167191012e-01
4.769282236548103016e-01,5.330105977314741894e-01,4.842816862272701917e-01
5.084620475760930347e-01,5.799420778566309886e-01,5.536133819818683799e-01
5.207673812086013321e-01,5.033509791462863481e-01,5.848703044997722866e-01
4.402567540387126721e-01,4.755084152978041878e-01,5.891157674243973075e-01
4.465531932974105556e-01,4.984767701704906351e-01,4.596008001904458018e-01
4.638153086159964578e-01,5.736389520281200971e-01,3.901324765300195896e-01
5.107351678130773731e-01,4.446462775744269846e-01,5.669305405311448887e-01
4.967252101625539984e-01,5.431166393280252302e-01,4.946169824596178266e-01
5.025433898726078263e-01,4.905468741144975997e-01,5.304100428770700537e-01
4.873679888791789261e-01,4.658403473707239950e-01,4.681902249818531425e-01
4.636036862954794335e-01,4.731284096151495699e-01,4.553427793568288751e-01
4.269427590524614291e-01,4.966186756865783036e-01,4.788838665400699801e-01
5.286423219433936671e-01,5.115496695837481456e-01,4.800422175884215825e-01
4.613940180155918225e-01,5.070383880473190441e-01,4.645248472520767113e-01
4.164076182553587135e-01,4.975859209340828815e-01,5.427635597633279074e-01
5.166320681221781008e-01,4.869060606306144789e-01,5.395737804313831543e-01
4.892434098946811805e-01,4.881137581550140658e-01,4.657653558814506267e-01
4.297863143499410232e-01,5.188321620801464862e-01,6.043064503499342432e-01
5.425426565621063180e-01,4.441842728838427123e-01,4.420457969514965946e-01
4.301299440922942141e-01,5.378031916749288488e-01,5.493569970233340705e-01
5.431532763654237650e-01,5.508826065106333658e-01,4.325717075900892272e-01
4.941179937147642254e-01,4.357302318799919361e-01,5.168397611221899890e-01
5.122203843824348901e-01,4.621611997331588340e-01,5.021293207403361158e-01
5.436974936636073119e-01,4.935743671604330696e-01,4.724861316216901752e-01
4.591899308741286823e-01,5.356609522541802004e-01,4.119832627723830076e-01
4.759962997350842828e-01,4.553977208507618557e-01,5.416737238007357513e-01
5.163251277060009192e-01,4.797512808800144524e-01,5.087458221745333464e-01
5.367515213196053514e-01,5.236432673486910438e-01,3.745819055932452790e-01
5.421879100963775677e-01,4.929089952204481206e-01,5.364826311397091763e-01
5.120746988552989931e-01,4.971079944416084695e-01,4.813018050324033847e-01
4.560829789319648109e-01,5.414189121662249526e-01,4.733966776289506573e-01
4.092769813674523305e-01,5.874391987103881885e-01,5.082462643417163806e-01
4.665351616249774347e-01,4.866791045930718429e-01,4.604196691517864481e-01
4.804691246193091847e-01,5.192823032577934539e-01,5.147900779759326806e-01
4.868314712157368884e-01,5.270050510586976600e-01,4.579962637945923509e-01
5.074605851776355925e-01,4.154392230707747435e-01,5.366735234224867535e-01
4.533510258493110290e-01,5.402967724542742101e-01,5.436123977687706832e-01
4.658545018303979490e-01,5.142602983168101938e-01,5.490872775936159744e-01
5.265816992378768990e-01,3.901060762310340491e-01,5.041850764891356862e-01
5.092143240321498343e-01,5.155590810332296714e-01,5.008916152029394553e-01
5.349558030474271808e-01,5.645321833786532961e-01,5.292088591059873615e-01
4.272040705226307633e-01,4.983655376506366808e-01,4.902567645157199228e-01
5.881998058866040324e-01,5.235039160763776955e-01,5.602788340073548978e-01
5.706551588596264768e-01,4.230645056082465438e-01,4.560875573331532595e-01
4.574521231387974618e-01,5.193611113362869292e-01,5.463883606446915397e-01
5.021703153645568074e-01,4.812653750672740705e-01,4.670692267667369002e-01
4.782921631724040834e-01,5.388098721064060737e-01,5.241257025920378343e-01
5.020179277824570185e-01,4.971127808136378001e-01,4.812873360918325516e-01
4.770536390664428250e-01,5.247435122725322421e-01,4.648394829525279714e-01
5.407012256665462147e-01,4.492020138594494671e-01,4.329005870235839715e-01
5.259397741681626215e-01,5.536473322473756120e-01,4.599318421244957267e-01
5.128203205672644538e-01,5.025146482359051925e-01,5.302374529540828663e-01
4.913872112253110935e-01,5.364739419956527922e-01,5.596750528472180797e-01
5.332750849620504496e-01,4.966810368240259788e-01,5.772262893926156657e-01
5.514138322863516573e-01,5.067349010919509622e-01,4.959354840534543896e-01
4.828071168393955892e-01,5.482946051597529236e-01,5.018476335322445969e-01
5.418421976460685574e-01,4.175254741526838176e-01,5.664383088971930436e-01
4.742960888234383776e-01,4.476525790238879421e-01,5.218181465333487923e-01
5.203691797033946909e-01,4.891220027655612812e-01,5.706464744675773249e-01
5.039868226406664098e-01,5.789711393630025960e-01,5.518375917028454092e-01
5.448204898458237633e-01,5.329796599865477269e-01,4.436517653461559130e-01
4.630259692449232856e-01,5.245049928931357908e-01,4.807064622310058266e-01
4.780920842472935473e-01,5.749616086017370620e-01,4.675565281320008260e-01
4.455051963760296441e-01,5.946701208922111626e-01,5.474865244840992906e-01
4.922571417796823279e-01,5.795563401932302128e-01,4.355976741875554614e-01
5.578259735939019581e-01,5.104820116591082257e-01,4.705872519713029667e-01
5.245460813501199304e-01,4.827570818822816689e-01,4.661744151694313665e-01
5.469930436464286450e-01,4.278887622962788129e-01,4.628361639478431599e-01
5.843393308534129416e-01,4.103183030159370803e-01,5.933108531970429089e-01
5.216156622739323012e-01,4.372221904964923578e-01,4.880549216841556515e-01
4.742125540749024815e-01,5.562855916254103583e-01,4.905680677559040581e-01
5.773685009951100566e-01,4.612256373271764187e-01,4.197699493443370899e-01
5.321442015384023616e-01,4.380794686925189030e-01,5.372093935257179487e-01
4.791790080695711995e-01,4.786657944659700181e-01,5.202100957505751966e-01
4.933466027570103107e-01,5.635084953259660301e-01,4.954580611985595628e-01
5.419679718496339671e-01,5.200956441740599567e-01,4.662604799722545046e-01
4.883299885478699642e-01,4.943258563867823918e-01,5.064178043167502086e-01
4.873366305372332508e-01,4.686045680379589129e-01,4.607586905408517786e-01
5.459549026570965635e-01,4.384211107099716398e-01,4.994270073036350399e-01
4.663451174634086760e-01,4.971744410495300692e-01,4.666214040728631773e-01
3.957835716167684703e-01,4.036093625725647449e-01,4.718589123256405338e-01
5.274795140724772846e-01,4.668442095310886275e-01,4.746586830575642013e-01
5.050354971653723268e-01,5.375353507986557755e-01,4.716290785118738005e-01
4.861664026394516558e-01,4.978606577611066064e-01,5.308714772787705982e-01
5.156810290388956775e-01,5.580927008164705549e-01,5.205615468129729528e-01
4.869627367224574344e-01,5.301133468548842043e-01,5.623922189700907293e-01
5.591142490598390857e-01,4.440008033526811615e-01,4.747304237988581588e-01
4.862870633554147726e-01,5.285136592264477740e-01,4.167343928128664499e-01
4.701083226432082873e-01,5.250764151669220503e-01,5.149842816947994839e-01
5.306341960902131172e-01,5.029203638275514532e-01,4.874264789881737614e-01
5.513526437898133015e-01,4.237670862958488605e-01,5.684720514491523602e-01
4.769230038454175258e-01,5.555409001464425289e-01,4.877335617029407433e-01
5.211371219548289746e-01,4.438895489587167398e-01,4.661311064080323474e-01
4.628437169128266637e-01,4.720755025170632613e-01,5.189048140633713002e-01
5.473459478723640137e-01,5.375134261279684855e-01,4.861299251128647914e-01
5.369200295635560005e-01,4.951670162874777792e-01,5.091727586583508769e-01
4.791345497866812408e-01,5.112560733614021080e-01,5.447116738029740279e-01
4.672423620005358713e-01,5.828900801625721551e-01,4.908720749132813865e-01
4.855936365639225150e-01,5.037253324650435848e-01,5.287739475730627303e-01
5.290096335018625862e-01,4.285642235293596336e-01,5.149513658015670847e-01
4.955528524356793141e-01,4.772296280055395301e-01,4.556348752614047815e-01
4.520145593018325969e-01,5.394757597257765491e-01,5.138650895429350829e-01
5.155429839808487458e-01,4.743726572667631980e-01,5.116533707873062164e-01
5.142241037990109565e-01,4.809839438394262756e-01,4.924971232951135813e-01
5.459103408529224488e-01,5.334009845829492669e-01,6.031549090663378410e-01
5.656702016549122192e-01,5.103726789623447280e-01,4.722661946932630306e-01
5.330725762180951177e-01,4.273556275716985930e-01,4.600348207714343718e-01
5.838033144504527483e-01,5.245651368881746324e-01,4.747572801333079240e-01
3.562410248778261068e-01,4.013263764951650048e-01,4.090211376141332789e-01
5.446617665323313373e-01,4.356929497911602445e-01,5.431316741697113093e-01
4.244034310823031619e-01,5.205796452527338136e-01,5.246347084655732518e-01
5.612772740589234699e-01,5.001951677734882695e-01,5.323899425420071108e-01
5.079525668556035267e-01,4.641739000959260175e-01,4.874813777270486370e-01
5.879124737837863046e-01,4.861689127246815456e-01,5.018514879958347885e-01
4.922077707902269839e-01,4.357549904597971535e-01,5.317467176997225931e-01
5.141061450596908777e-01,4.188852910663614093e-01,5.183824134829947416e-01
5.171015445727977777e-01,4.774640502638029527e-01,4.372847624719930493e-01
5.564422806429495383e-01,5.180599792472400100e-01,5.421442869900117145e-01
5.507702377235229596e-01,6.470213013113323974e-01,5.211990605459564385e-01
5.315889342460353717e-01,4.784693612005792573e-01,4.695494722863681747e-01
4.673319310090192080e-01,5.369357943227957009e-01,5.852048640908845689e-01
4.407408289413728419e-01,4.284026498287532014e-01,5.308858763878175901e-01
5.497085668512995404e-01,5.319284605039226177e-01,4.930914574688277097e-01
4.708478665649175054e-01,4.930945424780093789e-01,5.257822391312729771e-01
5.317896881451963376e-01,5.359257325672881489e-01,5.168788711056555574e-01
4.871041773340098469e-01,5.466954264792647233e-01,5.005989239258071821e-01
5.103083461998531023e-01,5.479472146843693547e-01,4.323464233825151104e-01
5.645058141165387733e-01,5.075268952926448307e-01,5.701658445216150062e-01
5.484804542176593412e-01,4.878976958018070853e-01,5.133685202386067958e-01
6.200905008078353431e-01,5.154049408353996720e-01,5.428874616173766654e-01
5.241622924946014450e-01,5.015784135823406764e-01,4.290421186810787213e-01
4.954094895957097955e-01,4.875111411564277408e-01,5.007331259041829519e-01
4.833627875581121836e-01,4.746380891999160134e-01,5.055691886111377542e-01
4.786519798092881417e-01,4.976377195991346647e-01,5.348788904447631110e-01
4.833218187195845172e-01,5.208674679871396762e-01,5.697929953350250321e-01
4.441388461170981405e-01,4.893269248632261537e-01,5.063219554042647230e-01
4.826228847885130624e-01,4.381777789673142465e-01,4.925211126270044315e-01
5.240350310371515441e-01,5.229138380537401432e-01,4.927463649947984581e-01
5.213159401555907957e-01,4.385662776110337280e-01,4.638570998725892736e-01
4.778636911387419417e-01,5.301564727392730214e-01,5.030773856577921421e-01
4.479522645204999098e-01,4.861313289799692461e-01,5.205331583064644052e-01
4.803566600728347291e-01,5.151298729219254691e-01,5.392497772337081496e-01
5.517632138100311279e-01,5.028427268983983733e-01,5.056581571008296194e-01
5.038588948661038014e-01,5.425316748665355293e-01,5.378254934355944927e-01
5.232826109956401073e-01,4.443191747793816537e-01,5.732906217127670123e-01
5.386783572232085593e-01,5.196094650807291382e-01,4.746730286009169242e-01
5.260778015079498049e-01,5.337094414120268082e-01,4.918957400692420823e-01
4.908615859602487030e-01,4.623513522408447263e-01,4.776532759107822712e-01
4.549495027457681195e-01,5.006630447418375374e-01,5.094569671277985323e-01
4.452788795585596593e-01,5.251327789591608841e-01,5.098572959684420924e-01
4.615239318842749849e-01,4.225492044597416452e-01,4.694356394432626089e-01
4.883817172183250732e-01,4.987143349084318666e-01,4.984397754377063450e-01
4.555827180749336125e-01,5.332392653614860256e-01,4.917287317623592613e-01
4.750861887456485078e-01,5.452045357759326416e-01,5.344689443285552954e-01
5.600008906260592889e-01,4.411826386705798297e-01,4.555958796743409533e-01
5.117656740244680424e-01,4.813647017808961870e-01,4.856359305060104492e-01
4.772179571894681893e-01,4.443258721337654538e-01,3.471103852653479316e-01
5.110374105583161963e-01,4.361318668163197687e-01,5.595935026237289778e-01
5.642123838020834947e-01,4.562552189451782314e-01,5.635698394111972043e-01
5.107773003630523556e-01,4.803222688242688720e-01,6.219458296424389410e-01
5.474351723776521572e-01,4.671145183727074546e-01,4.838448256657306712e-01
4.595534110824983087e-01,5.469756788686372939e-01,5.167653329780722560e-01
4.897653081223479754e-01,4.776563909663457674e-01,5.455280942307866310e-01
4.835566212713486300e-01,5.698095805646447021e-01,4.471077991825373465e-01
4.938802533781209703e-01,5.615951379665792276e-01,5.061375814782891336e-01
5.256854592244809554e-01,5.796251207428526619e-01,5.232329689380319504e-01
5.119338683914731458e-01,5.342341696104481175e-01,5.014843563218216449e-01
5.329105124266234617e-01,4.865186583124476161e-01,4.664172988550497889e-01
5.045949745358001559e-01,4.401042329923087193e-01,4.504448184229888352e-01
5.326409902480472303e-01,5.101917138463151202e-01,4.414477767922537210e-01
4.547518241921054138e-01,5.099877277060401726e-01,4.163087177002175454e-01
5.067145122143696945e-01,4.804641860797732034e-01,5.077670416951850507e-01
4.974741414422362840e-01,4.943422805173709467e-01,4.772614679751557287e-01
4.798548196825239698e-01,5.321841524150169311e-01,5.256543335851161514e-01
4.715723976910644599e-01,5.322385860373674005e-01,4.981086661108106717e-01
4.964708131761127463e-01,5.219430815576312499e-01,5.069688402557106510e-01
4.424209964058231082e-01,5.715480717664752630e-01,5.221122371732531686e-01
4.496910687493706482e-01,4.394052873935954673e-01,4.708734775099892578e-01
5.485547482960784205e-01,4.679339787866754752e-01,4.383662765057254607e-01
4.820760930596210692e-01,4.964364586813849733e-01,4.661327991836104467e-01
4.592858448356129109e-01,5.109033519755016295e-01,5.925310862840209580e-01
5.271583689784156146e-01,4.932031559439333801e-01,4.675122436551620297e-01
5.138933785585469982e-01,5.100518016987863890e-01,4.628990610703390685e-01
5.752766130408628609e-01,5.295471142497595318e-01,4.484075317278587991e-01
4.982075919657432128e-01,5.279576301448127840e-01,5.352287229466514695e-01
5.565207531488202131e-01,5.446826626168056462e-01,4.870442987479180474e-01
4.776706924251999942e-01,4.707081035033434668e-01,4.831684059294949485e-01
4.587531920152296827e-01,5.598231136094753424e-01,4.773258766657803576e-01
5.095844048229155598e-01,4.966570595007218647e-01,4.821552700438045402e-01
4.783032352060757053e-01,5.218970831256861675e-01,5.549894134210806573e-01
5.118364058890539914e-01,4.793696950808883361e-01,5.741030688757479128e-01
5.010619703946406212e-01,5.005013547851095979e-01,4.948962433989525511e-01
5.093541655467196394e-01,5.291809556733289011e-01,5.409303395780376000e-01
5.392482041560218153e-01,4.675606912478952326e-01,5.092801313764628857e-01
6.437673191334142286e-01,5.484566826183018273e-01,4.943861760197727495e-01
4.754510182024841436e-01,4.544377206640212163e-01,4.704732806509461795e-01
5.492520192221859165e-01,4.449745277095304430e-01,5.652657182955861392e-01
5.249171754963960490e-01,5.693712479529473569e-01,4.474007668928289272e-01
5.469604033257224884e-01,4.919636806814318697e-01,4.890564445272739258e-01
4.542437319105049331e-01,5.564879225050561873e-01,4.671059505179082083e-01
3.853665737226900645e-01,5.196620554027234773e-01,5.551979599366996254e-01
4.484784481650027632e-01,5.055959644700214195e-01,4.956672003255087611e-01
4.925576756924078814e-01,5.242661517145510430e-01,5.373747229147973759e-01
4.226763638312517335e-01,4.863109347046169484e-01,6.337725001788605539e-01
4.883477134062846337e-01,5.353209861189256458e-01,4.948170151183123866e-01
4.906120108647710198e-01,4.747378657149455838e-01,4.994492884720423409e-01
5.792563060830125954e-01,4.918839712589216928e-01,5.384210056763769625e-01
5.454781507572584731e-01,4.718969241215199006e-01,4.584079755257020605e-01
6.026115605480959481e-01,4.523044702225698099e-01,5.808902705101099961e-01
4.209976530610613499e-01,4.948177017143325918e-01,4.441901196363430282e-01
4.595840693650836140e-01,5.252187007776397687e-01,4.540944035453050032e-01
4.558144367476176240e-01,5.660676152035906128e-01,4.728870719175600201e-01
5.098860210961271289e-01,4.363765386640292010e-01,5.462535406850198560e-01
5.212330160572031801e-01,4.815878791131906200e-01,5.232914880119804435e-01
5.726159729172365376e-01,5.007356636401925076e-01,4.617615836983232080e-01
5.266440934081683123e-01,5.079078623250453672e-01,5.119186323515387826e-01
4.135729428636492622e-01,4.873689035583997353e-01,5.297752349489298629e-01
5.087189282030090132e-01,4.971378915912989527e-01,5.072920293756488785e-01
4.664733015683265038e-01,4.726388232633909614e-01,4.262225710753159147e-01
5.042490490814999227e-01,4.959962930919613600e-01,5.064300191795346739e-01
5.302379752335685259e-01,4.496384601179836404e-01,5.483856313924035941e-01
5.540061694838409601e-01,4.301877403505744435e-01,4.877127419138405084e-01
4.680222582577676094e-01,5.342394021755587641e-01,5.051038913363160576e-01
5.258383928094911841e-01,5.279176603930320066e-01,5.100147863232200596e-01
5.267402078076628413e-01,4.534518310451530754e-01,4.433918813612324761e-01
4.197535203055894892e-01,5.140854501465553783e-01,4.896206856679514718e-01
5.296365534974507572e-01,5.417632658547885116e-01,5.143733205699817512e-01
5.239326788898807097e-01,4.347056306169254647e-01,5.394978040988979151e-01
4.693312722302408480e-01,5.124759444151726351e-01,4.987847751194998680e-01
4.674710288637344835e-01,4.926216290851500035e-01,4.324584181074607181e-01
5.180798065563037014e-01,4.910472331529662782e-01,5.291738650008003253e-01
5.495091976658970090e-01,6.104394548186631297e-01,4.737715748744198430e-01
5.084337451334727254e-01,5.230388125680962563e-01,4.339986821093435032e-01
4.896855280173338376e-01,5.555475376304779278e-01,5.068722744867091290e-01
5.551993317604454470e-01,4.573736652347476506e-01,4.704985432540370605e-01
4.630051133130598795e-01,4.719719518727480967e-01,4.995499449920347557e-01
4.520403161046227525e-01,4.697460166514217383e-01,5.161291246838050073e-01
5.264379586547039969e-01,4.814134358522179080e-01,5.667479550661999044e-01
4.157605872399862679e-01,4.717448054109361633e-01,5.053279459582201705e-01
5.085059722477053290e-01,4.974539432965808805e-01,5.426287600856953830e-01
5.233655900888467549e-01,4.724461733412474440e-01,5.067505717195510684e-01
5.298739897303138546e-01,5.358334608989502312e-01,5.537767969446290017e-01
5.783772945547834832e-01,4.707705885700785298e-01,4.760672334200927724e-01
4.495851734718225856e-01,5.111739439828848486e-01,4.867611705646191500e-01
5.357492688288828520e-01,5.315455445550451019e-01,3.835441600455230526e-01
5.233764123560571413e-01,5.062597771281386327e-01,5.179465313397392245e-01
5.542049663867056886e-01,4.539764308450111585e-01,4.868396790719360379e-01
5.133205311061872500e-01,5.390967460171143255e-01,4.796155455555783376e-01
5.110022808427580054e-01,5.137259586791570465e-01,5.402524700217602449e-01
4.827844872786558050e-01,4.508463079568963972e-01,5.022217536087992817e-01
4.451434490427266799e-01,5.400280720574027749e-01,5.106945830923026453e-01
4.770908803210271998e-01,5.247375292745800612e-01,4.556093016901434090e-01
4.564695817899935837e-01,5.184125250985378575e-01,4.815169452587582111e-01
4.604571135255513536e-01,4.520885095572640400e-01,4.733557433154957916e-01
4.890316477214959878e-01,4.827012491103795933e-01,5.017486746647890072e-01
5.183596485294355016e-01,4.945737128563139073e-01,4.646508117060633714e-01
5.244050153609010056e-01,4.827236928826915130e-01,5.694682335123103512e-01
4.472126431738744912e-01,4.764055248967652423e-01,4.870749305281669161e-01
4.637896409439485890e-01,5.134859477191873189e-01,4.830784016925123159e-01
5.292814049667744492e-01,5.679945051979485848e-01,4.782174524644295932e-01
4.997657767889737146e-01,4.692536567813220816e-01,4.795383625919484305e-01
5.159978158856459718e-01,4.127575846521328029e-01,5.260664839445606811e-01
5.210056783048925277e-01,5.408773038458067894e-01,4.801166959852711802e-01
4.922013883921821931e-01,4.684010164239748586e-01,5.192930568994678087e-01
5.061983611101834590e-01,4.450782888672331072e-01,5.133544452973666239e-01
3.970073707755211734e-01,4.817958245561552166e-01,5.147730689707721297e-01
4.634605362699283360e-01,4.166386757937228236e-01,5.326083121681424171e-01
4.509736722003960807e-01,5.180213281562285887e-01,4.652995763791791251e-01
5.736639462403044787e-01,4.123739426057905222e-01,4.956927172383903679e-01
4.849076217533117017e-01,4.575852390502114786e-01,4.292817054453278991e-01
5.489894519712944509e-01,4.973059516299508376e-01,4.927539603724508943e-01
4.934314332202564546e-01,3.826558294739813570e-01,5.538526640392371636e-01
4.670376733321899287e-01,5.067382650429050894e-01,4.320153556672196027e-01
4.943665274311052626e-01,4.995090419366097212e-01,5.034736016359697697e-01
5.641493901426598567e-01,6.010261787296710123e-01,4.302576184670221515e-01
5.390787924345308291e-01,5.248054880801892308e-01,4.871389251828009970e-01
4.502435993777967882e-01,4.897234156361081059e-01,4.972248111203835252e-01
5.178596437713479661e-01,5.061265093623493749e-01,4.830493039272087397e-01
5.262093548771937801e-01,5.523829253670345940e-01,4.777780234824413608e-01
4.159578488818859721e-01,4.863477569493487307e-01,4.867028975066508001e-01
5.216080123431698912e-01,5.158342996478129105e-01,5.266652082666051227e-01
5.213330175233713559e-01,4.590070337998973238e-01,4.969054189517554954e-01
5.113829574377503073e-01,4.971982049006705706e-01,5.246537856427103685e-01
5.170599176319893298e-01,4.986273088166652268e-01,5.008538953983431297e-01
5.071003573488557237e-01,5.027998307905966469e-01,5.957456355701432615e-01
4.950359657538005997e-01,4.950080611963534327e-01,5.649732530428949184e-01
5.168426371009661180e-01,5.120767647102330011e-01,5.627022211101249116e-01
5.289271011321581284e-01,6.161981676061872859e-01,4.620625370743218219e-01
5.901000905696519583e-01,5.147541113182856343e-01,4.674597512347532513e-01
5.413201733383968817e-01,4.888562786389155090e-01,5.389741515962230833e-01
5.232628987437001333e-01,4.920976807541603271e-01,5.430381072526804243e-01
5.187860807496729176e-01,3.991054896239999428e-01,5.390313026730443324e-01
4.763904786538000202e-01,4.975451666159978470e-01,5.374369917917600770e-01
5.239697459401466695e-01,5.376186702631067238e-01,4.182915836277007471e-01
5.564668218129135147e-01,4.570124377801972892e-01,4.419571263182742182e-01
4.423880497807716194e-01,4.714183959585056538e-01,5.224636828446967973e-01
4.578804801937374491e-01,4.629835876270593786e-01,5.118510523525272582e-01
4.845712689382695726e-01,5.041263517875809175e-01,5.034847959438989440e-01
5.046044413018948571e-01,5.286082290703515429e-01,5.367238740347443082e-01
5.465120356995142314e-01,4.504635872659479845e-01,4.854398924240870272e-01
5.235664438152842770e-01,4.355831780531823072e-01,4.949951316534682566e-01
5.040034545340394967e-01,5.137268401720539446e-01,4.819394703448477979e-01
4.733288097199007116e-01,4.441613717975427256e-01,4.223515647927699734e-01
4.872403352266632126e-01,4.802541592835948836e-01,5.037851847431464858e-01
5.101842190608123495e-01,4.393069012882697133e-01,5.490618627038212907e-01
5.651464537085387763e-01,4.752108646894596111e-01,5.246576724179122797e-01
4.882959506662036819e-01,5.895166511690921318e-01,5.482425971749268490e-01
5.000345547443758587e-01,5.619539881892010591e-01,4.671760350058836719e-01
5.198497806095270235e-01,5.431557015269264932e-01,4.830336542036538505e-01
4.803501616484545100e-01,4.959084573944320118e-01,5.318365218134045724e-01
4.549019224529592953e-01,5.403195620371464836e-01,5.696811243976864780e-01
5.360039370203206754e-01,4.873759205330531752e-01,5.661177289055692174e-01
5.331079024675163813e-01,5.188396494831880590e-01,4.911040246078589577e-01
4.777205625406297784e-01,5.712886652411357513e-01,5.024260819149911628e-01
5.277446909515569606e-01,4.968081455498991050e-01,4.450541400882414012e-01
5.192637798279163830e-01,5.096262191530400720e-01,4.575686723563612279e-01
4.791979693410007846e-01,4.836672048245203026e-01,4.023944201504793261e-01
5.358367123367607787e-01,4.722213989837047987e-01,4.556916119739418125e-01
4.468977764061068947e-01,5.039242521913359640e-01,5.057749016726171831e-01
5.455605688854755497e-01,4.914142645575803603e-01,5.557718698323254047e-01
4.295130594676869751e-01,4.916421335345289023e-01,5.569815996608631359e-01
5.189064192307094592e-01,4.402934840405768879e-01,5.657489732562044349e-01
5.483512719405763125e-01,4.306276330973169975e-01,4.203441096216109507e-01
5.039968941014218995e-01,4.784635275247030028e-01,5.031907299631970254e-01
3.895215115846133447e-01,4.863951181630779552e-01,4.505233209874646150e-01
4.518517093519260897e-01,4.332365436299407402e-01,4.998232364127118132e-01
5.038506928863826229e-01,4.987099805370829309e-01,4.897778273232896162e-01
5.245698941165161111e-01,5.345326060834726389e-01,5.431892627329956147e-01
4.553702251145192448e-01,4.548105247426123543e-01,3.843882870814557817e-01
4.196866765647710440e-01,4.908574889797808760e-01,4.787747954730446898e-01
5.712772598071287344e-01,4.987831705107471647e-01,4.120571455888036305e-01
4.950893942009814697e-01,4.400465995749442416e-01,5.278002836541598741e-01
4.933070516792911198e-01,5.275944527011142693e-01,4.914000843330235124e-01
5.569791363371817683e-01,5.738926368402070821e-01,4.986944656456277492e-01
5.056483865917709153e-01,5.516849622315556090e-01,5.512012639648528056e-01
5.246187390760052027e-01,3.955405300251459422e-01,5.054837534917795416e-01
4.572877764248598487e-01,4.905879024990060233e-01,5.447158365545139436e-01
5.360346192390840203e-01,5.379681350698207742e-01,4.973744714096612896e-01
4.316914697412816415e-01,5.263201347515973350e-01,5.182194319289789020e-01
3.770986144296104570e-01,4.725978185892893424e-01,5.112804421638841301e-01
5.611235890250599878e-01,5.047211289277949708e-01,4.957852085630626848e-01
5.098132627588546351e-01,4.935419989074575353e-01,4.309911123689896262e-01
4.832526553014871440e-01,4.953628051174500668e-01,5.396476372960822276e-01
5.386465905019721667e-01,4.528601107191681518e-01,5.112774555863864867e-01
5.501183563272298294e-01,5.663308425980638772e-01,4.266385858800564868e-01
5.867391670298911510e-01,4.897943066623045572e-01,5.268450037360257188e-01
4.905703577378089930e-01,5.139807494385089104e-01,5.999809816940849805e-01
5.074705925443216969e-01,5.841937682556702649e-01,5.614514695109577014e-01
4.925957903272020766e-01,4.717912547543565704e-01,4.786102774657768344e-01
4.842793929414368481e-01,5.174230804679671447e-01,5.162139766779690886e-01
5.438588452873679424e-01,5.414018913783184006e-01,5.604085418552390285e-01
5.003496237459557072e-01,4.208867192736940321e-01,4.816551796305056921e-01
4.565636577255208772e-01,4.905136369495988191e-01,5.267958244003366763e-01
5.673277187405780797e-01,5.287530143025596097e-01,4.502009104553451047e-01
4.918554466290566696e-01,4.712726356172058928e-01,5.072499272914738899e-01
4.980836764104106806e-01,5.597173851183214754e-01,4.686254686319949458e-01
5.115761314413855843e-01,4.633733166362664635e-01,4.841983867054630020e-01
4.639346550883091114e-01,4.483590815918102046e-01,5.227851793504038058e-01
4.922407353507703975e-01,5.060267536437690339e-01,4.678767088220274761e-01
5.603034472073546990e-01,5.522412806415347708e-01,5.037355938585655890e-01
4.876084235084770513e-01,4.406861600153419434e-01,4.654151725278489193e-01
4.795408392361894534e-01,5.401403476877230103e-01,4.826049817839249134e-01
4.803618314692235103e-01,5.056061760926403581e-01,4.794372008140952990e-01
5.237389881581777651e-01,5.151326943718286255e-01,4.749978505164249576e-01
4.534971913412808031e-01,5.210096082516049165e-01,4.867489868161752331e-01
4.870107043354032772e-01,5.480899188965839830e-01,4.965211680732265487e-01
5.019422898989940318e-01,5.254444214643547717e-01,4.694546099200320177e-01
5.330431843096854472e-01,4.751775514433775882e-01,4.531601007322358377e-01
4.766834246195736924e-01,4.606440823543231922e-01,4.974784609148992787e-01
5.423751981956310697e-01,5.282553068470929869e-01,4.800465209955627754e-01
4.642036195004535792e-01,5.304145599986129778e-01,4.601642776603879770e-01
4.506843429469530316e-01,4.695955418700822337e-01,5.419899703281914061e-01
5.131381575560154396e-01,4.943027762489229926e-01,4.824238231763307017e-01
5.181470654560700329e-01,4.712562538828623526e-01,5.222057041518192166e-01
5.067873647143628091e-01,5.669598324168453329e-01,5.318117416502122774e-01
4.976817676666400736e-01,4.941284529677741899e-01,5.366650874344017774e-01
5.267809831671721454e-01,5.323952924873990300e-01,5.012948401241131835e-01
4.947376668704034919e-01,5.125167849256067054e-01,5.398639356217159735e-01
4.656125840320174403e-01,5.112410931362220134e-01,5.606603213876041325e-01
4.957427104178682709e-01,5.625404874152294399e-01,4.659058052891649759e-01
5.247520190524065375e-01,4.992291591746714774e-01,5.356942103506570074e-01
4.717571970301148165e-01,4.719638022783563258e-01,4.889081334922594779e-01
4.871459657627570383e-01,4.405683085262577792e-01,6.194089385896107691e-01
4.904650476500440059e-01,5.316804273421575910e-01,4.158229885097161627e-01
4.795974896701932777e-01,4.961069020287063869e-01,4.685061492193567378e-01
4.892739007305164090e-01,5.131829670645295938e-01,4.700019485396304542e-01
5.120258725493650465e-01,4.499940842192918233e-01,4.822119137103438868e-01
5.009430594707626749e-01,4.056261042747282275e-01,5.537813411312316747e-01
5.740975305711569776e-01,4.367716541547595477e-01,5.095830324737274930e-01
4.841246217530528750e-01,5.520636831343028739e-01,5.830628036199724251e-01
5.485023255399564812e-01,5.610949398004096977e-01,5.641622383219209169e-01
4.683901427215158009e-01,4.483003678981069551e-01,5.612959212712557155e-01
5.359537212071832091e-01,5.102899730628649433e-01,5.338305977449164796e-01
4.807430908733565933e-01,5.252803375741673664e-01,4.973485841002872054e-01
5.441029218490975872e-01,5.806866979029556841e-01,4.989921782274630013e-01
4.997302471351856568e-01,5.506831041245908720e-01,5.955289809038714077e-01
4.691577366889211342e-01,4.864734386421941670e-01,5.290222072463125480e-01
4.266417009676933825e-01,5.369290672703811440e-01,4.475451730965838704e-01
5.381102416365555197e-01,5.117481204104182835e-01,4.470219280946887697e-01
4.881109939974458412e-01,4.464553988689500819e-01,4.439849815412395539e-01
4.384259261172319122e-01,5.406298970134327808e-01,5.529732498066881607e-01
5.022266257805788614e-01,5.487507805236260250e-01,5.108912998546312201e-01
5.320488257060658199e-01,5.083211173999894195e-01,5.854812023796304166e-01
5.587116947378280019e-01,4.403901777987419552e-01,4.918772566548942904e-01
5.895686760992679964e-01,5.321462843673431253e-01,4.792570322919801340e-01
5.738307976621227491e-01,5.528744359149651011e-01,5.689559752149032645e-01
5.067292267820789897e-01,5.129076139783885768e-01,5.007286169705505996e-01
4.799187360384205014e-01,5.534898960416115843e-01,5.151175470889974850e-01
4.904152599303690518e-01,5.009350226410647089e-01,4.460835740854946496e-01
5.436974375800657233e-01,4.975240670441862800e-01,4.904601387406183344e-01
4.819461019312198391e-01,5.691207329013002747e-01,4.440788820027596895e-01
5.276279033473620927e-01,5.712388392384357694e-01,5.673164740343394907e-01
5.069364239791789295e-01,4.713891169037565110e-01,5.357691651072382655e-01
4.983015959194326272e-01,4.071172011541938085e-01,5.115640315360467927e-01
4.442957204697502993e-01,5.119279562554969187e-01,5.358630477964323457e-01
4.857167640961151944e-01,4.641784943480125047e-01,5.133741220224401491e-01
4.603825241650774669e-01,4.956821220436429254e-01,5.391795265933773118e-01
5.152955715491890354e-01,4.886037226893039098e-01,5.413209565784505850e-01
4.847257027668345764e-01,5.510106470329038109e-01,4.361739673506798143e-01
4.906921745121107237e-01,4.959128548058980845e-01,4.940914677214232609e-01
5.161161980478788935e-01,5.442649366282359402e-01,4.963054302283579355e-01
5.128094650439245505e-01,5.257848549364014801e-01,5.128984441448424247e-01
4.711498345532960097e-01,6.004196134925111616e-01,5.419121711773928762e-01
4.393751246399487109e-01,5.243741526297018840e-01,4.548809630339125110e-01
5.859150435586497618e-01,5.279354634999730012e-01,5.397308431362229930e-01
5.120999570941635604e-01,5.050948533395914763e-01,5.161033341899150528e-01
5.037788880859005447e-01,5.365330252760444063e-01,5.107263448753582846e-01
4.720033904801237967e-01,5.047536900257314496e-01,5.546142614608676746e-01
4.525349850282854858e-01,6.061888232792749243e-01,4.575668718185719741e-01
4.881773179232726800e-01,4.662040547095194221e-01,5.490845564780647559e-01
5.262915596260254736e-01,4.489182166728817314e-01,5.231285815279482776e-01
4.980654871379329163e-01,4.453827410690665567e-01,4.869560205764698613e-01
4.723193493495387307e-01,4.320427248390631969e-01,5.088564791742871130e-01
4.260141740858850445e-01,4.606929143062582499e-01,4.784900558207073051e-01
5.130016902378209398e-01,5.121484883100320129e-01,4.834861905198247767e-01
5.839199508643591052e-01,5.053001895266306942e-01,4.828203671740970426e-01
5.530860218086677271e-01,5.360156669670615992e-01,4.674606877180862985e-01
4.182858034412226256e-01,4.947878926215752982e-01,5.192881337258981045e-01
5.281155010549922757e-01,4.358571988434858380e-01,4.948066231024070838e-01
4.893605832581097159e-01,5.117319857888684709e-01,5.410824395155180433e-01
4.861181735612756794e-01,5.014024691468873529e-01,5.749000941909425677e-01
4.912057868209716571e-01,4.223153862324430796e-01,4.528012110957776448e-01
5.142262306658629267e-01,5.266304450390715264e-01,4.632394811923094546e-01
4.932311339178688248e-01,5.224149238489796954e-01,5.473957301742005122e-01
4.201322017828194033e-01,5.397313753543435677e-01,4.792589155030502202e-01
4.989935826531121665e-01,4.579217771794662495e-01,5.589737259088057852e-01
5.427702723664010742e-01,4.766796614614657313e-01,4.847869927470671025e-01
5.186798509083980768e-01,4.649616827455986812e-01,5.784416463793308205e-01
5.074771493081098317e-01,5.704326052735058106e-01,5.382290515102877704e-01
5.510780015475437166e-01,5.001958324133137790e-01,4.751667301525593912e-01
5.199433825911528029e-01,4.740932179124338619e-01,5.276016016764052408e-01
5.321188280519631997e-01,5.335232204790874011e-01,5.145956336297276001e-01
5.394773502541827526e-01,4.225753640759996044e-01,5.449823897354529878e-01
5.186482795559578252e-01,4.350276016292564663e-01,4.988199925310309313e-01
6.229299352469528372e-01,5.088581236431103383e-01,4.953316776478582928e-01
4.440644505197817726e-01,4.896588630485143590e-01,4.769739328369788089e-01
5.684235698546180604e-01,5.086648165770778496e-01,5.083909801908158554e-01
4.998923766971525851e-01,5.386477859991701811e-01,4.368677114532080741e-01
5.018343149470979592e-01,5.520638301624148925e-01,4.791919426604276389e-01
4.800793044970456669e-01,5.607924946339689631e-01,5.014775262228905461e-01
5.457907295280797211e-01,4.632572233586766397e-01,5.340564674591566918e-01
4.915493823390296724e-01,4.650357895014269327e-01,5.070815532032536543e-01
4.498372850113204757e-01,4.725869749807232179e-01,5.315370800759603442e-01
4.464149158494236103e-01,5.271171304790730483e-01,4.782080613068089847e-01
6.079914990359448490e-01,5.124727820577307247e-01,5.118261812031961178e-01
4.700499392794802445e-01,4.623693395315666144e-01,5.115970948346135749e-01
5.247414739837601427e-01,4.973230839840969142e-01,4.557533943781478247e-01
5.144108652113771329e-01,5.382693351153513550e-01,5.243689316995024940e-01
4.940223785115049893e-01,4.978270264968834291e-01,4.992796832202563428e-01
4.282940733498753483e-01,5.331896194681777779e-01,4.474213445540788370e-01
4.590845059069663114e-01,5.064887445590491311e-01,5.548128575654176498e-01
5.110056667399905939e-01,5.168911049029611959e-01,5.211107101353622539e-01
5.638097591560066180e-01,4.801791113259289978e-01,5.596484912563323144e-01
4.752747943678432563e-01,5.541665956658811121e-01,4.738571476714799058e-01
4.961614784533153744e-01,5.194041802663554863e-01,4.917369614034457492e-01
5.631141971033517546e-01,4.608927855201517265e-01,5.206077898704708495e-01
4.470812061641929458e-01,5.377438227889895783e-01,5.020817834520225897e-01
4.544873205283622708e-01,5.492603149182774258e-01,4.779266758017645111e-01
5.664338178233651044e-01,5.151960647634262758e-01,4.829675155002914333e-01
5.440919323008239772e-01,5.003084122795412592e-01,4.827096862243507869e-01
5.356932447118232243e-01,5.052465721520474906e-01,4.055326424803369356e-01
5.768410861461985562e-01,4.695339124457673097e-01,4.259319491545321967e-01
4.558961228816061362e-01,4.417792541658561167e-01,5.410094326899131945e-01
4.813588295200379452e-01,4.794749532080498922e-01,5.287227167753786317e-01
4.898923139493033818e-01,4.975636228718123277e-01,4.353922506132110737e-01
4.775171445161062178e-01,5.076277499207102473e-01,5.199022019640526793e-01
4.264038298901576263e-01,5.437974369541166419e-01,6.148878255808706284e-01
5.221438447573296671e-01,5.836932072548012274e-01,4.123202041790712258e-01
5.319823155196734543e-01,4.977540950742272985e-01,4.710451125303021791e-01
5.152016701386520348e-01,5.425265315837576319e-01,4.396013867488182680e-01
5.139557719965635041e-01,5.494426790927233739e-01,4.822571530187290123e-01
5.256495410684494107e-01,5.971286625027386608e-01,5.334945539662085956e-01
4.301378599183935392e-01,5.585503553915213137e-01,4.934712796149230418e-01
5.278261963784175448e-01,5.027721884677386344e-01,4.856005884855419397e-01
4.501451951422430486e-01,4.360456835298867628e-01,4.755784942223993395e-01
