accel_x (m/s^2),accel_y (m/s^2),accel_z (m/s^2)
-3.558407961528914625e-03,3.045530920852351255e-03,-9.799029243515990473e+00
4.110672635846833629e-03,-2.965714190001673186e-03,-9.801786014096066424e+00
-1.225371739643235473e-02,-7.165612298058504984e-03,-9.793515257668778062e+00
-1.843271260531201923e-03,-4.801234855421196261e-03,-9.792463400201949497e+00
-3.845987911387501422e-03,-5.400849369602543984e-03,-9.794009643241343710e+00
-5.444165063728360909e-05,-3.313275374937991753e-03,-9.787918202710985227e+00
3.440197089217130518e-03,8.462022599653069854e-03,-9.799074747780164074e+00
-3.075829837434141865e-04,-4.640467264520976636e-04,-9.791656949290896250e+00
-3.464110019363215737e-03,6.017313054481866980e-05,-9.794788550819095718e+00
5.161411919364742619e-03,6.608347005810173182e-03,-9.795914748596931787e+00
3.220752740380212337e-03,7.138693048000899037e-04,-9.796981481300742090e+00
4.817429337673780456e-04,6.603786996752224539e-03,-9.800058082935985126e+00
-1.520957436548233625e-03,-2.982957929675316821e-03,-9.784231698983610670e+00
-2.599526111902693715e-03,-2.626242419718320849e-03,-9.803448070550246030e+00
-4.609886703741625409e-03,1.140533617157112089e-03,-9.786004193355234193e+00
-3.940713261449502874e-03,3.938716736786363783e-03,-9.778109689063747112e+00
-5.879508708628939685e-03,2.548392287263281757e-03,-9.790951654944194615e+00
1.912151201668410442e-03,-5.683872415034226140e-03,-9.783793661271536379e+00
8.088546953015973706e-03,-3.632085236307730069e-03,-9.782248931951004423e+00
-9.175588978174449573e-03,-1.903094682142744123e-03,-9.798526467068356283e+00
-5.790121894610878069e-03,-1.005263773763772489e-02,-9.783846106571777668e+00
3.329129009682554353e-03,-6.916474192471096065e-03,-9.794719902521514143e+00
2.533716888090363495e-03,7.511049697981167332e-03,-9.794618884568725647e+00
2.172533665047462993e-04,5.746744992801939428e-03,-9.805345052079708523e+00
6.282460212282872832e-03,2.862079128801220569e-03,-9.791266666006364972e+00
3.652093929692231105e-03,-8.433128948902509107e-04,-9.780281706627135918e+00
-1.186564306074481406e-02,-3.513194223103192036e-03,-9.801016844490016311e+00
-1.217954678944129475e-02,1.149798702405845129e-03,-9.795904879558152700e+00
-5.413722443359022390e-03,-2.332384995079849963e-03,-9.783457431699742912e+00
-5.975208248660155048e-03,-1.322934681877004082e-03,-9.797800476452646734e+00
-2.245079799410786784e-03,2.063960298201667452e-03,-9.805149017372796649e+00
6.376247093221656774e-03,1.615518028008672020e-03,-9.799752064332089674e+00
1.307493915599427506e-03,-3.480587209596188326e-03,-9.789354899740706273e+00
-1.449008200597958059e-03,1.509423823949287459e-03,-9.796342053200485012e+00
7.300211530286842242e-03,1.089419285252758718e-02,-9.789201298702707277e+00
-5.598095537775988652e-03,-3.905186246063207297e-04,-9.787618191166606252e+00
2.265301459817950155e-03,4.474202192125207277e-03,-9.789592435805777981e+00
-6.938247723100380605e-03,-1.869416950442420126e-03,-9.785863233563977914e+00
-9.303117336689983473e-04,-1.269834283942082912e-04,-9.800750790638380394e+00
-2.723896936943133711e-03,1.163658154673048598e-03,-9.793222113099220749e+00
-6.672167314602673455e-03,-4.385489469794594947e-03,-9.782278487468497374e+00
4.070743540588364802e-03,-6.565136959337316029e-04,-9.803550610764927953e+00
4.112842389386953471e-03,5.671543806730952250e-03,-9.800017918744499568e+00
-7.147279700464314895e-04,9.389857074373920422e-05,-9.788735059731823895e+00
-4.995393921783934004e-04,-4.076500658440730153e-03,-9.786448919563017768e+00
4.825104173232151045e-03,4.196000290564242665e-04,-9.803173942590724721e+00
3.513334362475770654e-03,-8.929285801771338904e-03,-9.796277248751099620e+00
-1.496286047001390510e-03,-4.723530511629876576e-03,-9.799988204661346458e+00
-1.188812321921943992e-02,1.279814282364098027e-03,-9.794769545441216252e+00
-5.006078940096660851e-03,-3.894471460304114313e-03,-9.801565519189521680e+00
-8.792340826027189409e-05,3.535961205971984052e-03,-9.802578802975743244e+00
1.184300288805000684e-02,6.538961050154317584e-03,-9.794528460964647465e+00
6.729381999450854100e-03,-9.385244274638887205e-03,-9.801111239829204180e+00
-9.247708838131657710e-04,6.003132218274429346e-03,-9.777157397174807585e+00
9.974869233711227377e-04,-1.150970287716626857e-03,-9.795663472386118897e+00
7.084353097145818130e-03,8.015829550552528836e-04,-9.794272975015477556e+00
6.099931081564401560e-04,5.133032832254442925e-04,-9.783451540034068472e+00
8.467556996968621155e-04,-4.874244982389897528e-03,-9.792801392747929157e+00
1.022727428710984085e-02,5.481237216830389496e-03,-9.788711930568702257e+00
5.783245240974344871e-03,3.025135634507025457e-03,-9.792522762785239365e+00
9.381511705854753483e-03,-4.259463709819486833e-03,-9.780439757353207142e+00
-4.862580527338952914e-03,-2.769451075971484776e-03,-9.805838979996044813e+00
-7.086400127067296432e-03,3.685700858260358703e-03,-9.798722451389727084e+00
-1.985039732993761248e-03,1.180980824078737418e-03,-9.791478649183362748e+00
9.071176753643186508e-04,1.596693097747689440e-03,-9.797592662145381937e+00
6.264316496055217544e-03,-1.733798166207272491e-03,-9.787360569836785373e+00
-5.849394701711377320e-03,-1.152396666535030053e-03,-9.797157501610396224e+00
3.637643422441902939e-03,-6.480300427693101023e-03,-9.800208909979815530e+00
-8.243429198370887567e-05,4.170144466144914963e-03,-9.792733399409790707e+00
1.739114108512175311e-03,1.458605926596132259e-03,-9.792128236522595230e+00
2.044902467444177033e-03,7.111560352280291587e-04,-9.792007580482927409e+00
4.718526924185655752e-03,-6.787859986373809870e-05,-9.796657223015168725e+00
2.849095402125114296e-03,7.149930199862356353e-03,-9.791073834878275761e+00
4.735267401711856956e-03,9.372710256903857371e-04,-9.783963620866622080e+00
3.473673623356776392e-03,3.541214442118061773e-03,-9.799802647619513252e+00
-3.933397468487302706e-03,-5.771834330907112467e-03,-9.798353109021622487e+00
2.886056993151227615e-03,-2.494950047673622547e-03,-9.791982537860532076e+00
6.449820163093878019e-03,-4.111028185123630262e-04,-9.813545685179613898e+00
7.011961207763069484e-03,3.879294175712268665e-03,-9.789718356772606711e+00
-3.237306685510706050e-03,2.605791055558282789e-04,-9.791905627285839131e+00
-3.499110506972138903e-03,4.320011094408030342e-03,-9.798518308878373162e+00
-4.104145278800347733e-04,-5.663438579767172444e-03,-9.798591428936658687e+00
-2.142566089811911642e-03,-2.476061477301903183e-03,-9.801065273312461912e+00
6.330138990234305922e-03,-3.438437842654784842e-03,-9.802114257033299083e+00
7.558047587572163696e-03,-6.608243712205505698e-04,-9.791772299586124717e+00
-1.967925141585974425e-03,6.329884319815961939e-03,-9.796948990495229381e+00
-6.390589216158799532e-03,6.711371536704265062e-03,-9.802708301605274954e+00
-3.900901856986395064e-03,2.485133466702765456e-03,-9.800266260875639901e+00
1.017304721450678316e-02,5.058542724916213068e-03,-9.788639757912781292e+00
-2.547005373784390131e-04,3.286236348618876927e-03,-9.792941762400635852e+00
-3.628413073239856491e-03,1.255793956171090409e-02,-9.800629507222886616e+00
-8.575202390115719761e-03,9.584151450054897168e-04,-9.803596841608969825e+00
2.758561592469040168e-04,-1.048612819648092262e-02,-9.799532503241387360e+00
1.760243425034504539e-04,-7.514003984024336842e-03,-9.799315455822991794e+00
-8.675900929878318721e-03,-5.080311354012012962e-03,-9.796435829956031682e+00
1.393592418486282441e-03,-1.932809500418082582e-03,-9.784108313221546283e+00
-3.418977145405888412e-03,4.621139631986441280e-03,-9.784074438303859367e+00
-3.554561965892194270e-03,-1.674433050872150414e-02,-9.786967256638451573e+00
7.265049037916074129e-04,1.162671242423598227e-03,-9.780510283062945120e+00
-6.491707052739291439e-03,-2.333191592276542131e-03,-9.795385232252250773e+00
-3.190108742930132871e-03,-4.013630208311849343e-03,-9.797326576695855493e+00
-1.417073997273452868e-03,8.744255146735839881e-03,-9.795004595839225559e+00
1.666398858921370584e-03,7.991196328908800259e-03,-9.790591135436036652e+00
-1.366595890525577287e-03,-6.960729282595859609e-03,-9.790867365050932136e+00
-1.257732418832572911e-03,-1.486083160717358064e-03,-9.799871059148768992e+00
1.907452092522726262e-03,1.313891020031937020e-03,-9.791425908727212857e+00
6.315052792463414152e-04,-1.099026859791800382e-03,-9.798950910953816873e+00
7.452079082928775300e-03,4.435945499075763521e-04,-9.784474802500605861e+00
-5.161662161274363676e-03,5.554008115265782197e-03,-9.785264357540395252e+00
1.411724262487416837e-03,1.561773348806107936e-03,-9.801621973181532610e+00
-3.596283061545471008e-03,3.908651375370950434e-03,-9.805784433567746206e+00
-6.006847187469990974e-03,-4.042165311933935620e-03,-9.785607356617708419e+00
2.342321186902645560e-04,4.762558571613692213e-03,-9.787576394489141407e+00
9.846557225873069086e-03,2.824820976736248002e-04,-9.801495694005872394e+00
4.370667944528402495e-03,5.793434703565802056e-03,-9.792569578560803123e+00
-8.085674606259063077e-03,7.419206304469182743e-04,-9.806887376130239531e+00
4.276409856459081719e-03,-5.080014499869913575e-03,-9.780721500039227578e+00
-3.893755053638154294e-03,3.094046449155241681e-03,-9.791778336301327101e+00
1.204224344596606724e-03,-9.825202747293410206e-04,-9.789468453325838482e+00
-3.586685556826147304e-03,-2.425703432995016551e-03,-9.794595842450950940e+00
7.480449719153349844e-03,-4.261350171580438780e-04,-9.794778207773333634e+00
6.041746414558568645e-03,-7.459873108058618155e-03,-9.791659929201991019e+00
-4.843703838366121735e-03,-4.839633356581178516e-04,-9.800903653699416296e+00
2.637550656770655446e-03,4.815672303010111802e-03,-9.780966199496857527e+00
4.786402821186500241e-03,4.634088190720906698e-03,-9.791902123577514772e+00
-7.591115638775484606e-03,-4.208121543764707629e-04,-9.796013369166564289e+00
-1.151943873218319809e-03,1.977023454609731865e-03,-9.787815172121025142e+00
-5.427420585904952233e-04,2.036194545323423422e-03,-9.805268744146392379e+00
5.446218004355030291e-03,3.072042693765674338e-03,-9.801549380247767118e+00
-3.505537563573080540e-03,7.451177460095266699e-05,-9.799726905824218903e+00
2.533887734187457649e-03,-4.806529216353752978e-03,-9.792942365717124176e+00
1.015720625331194629e-02,3.319142327227121454e-03,-9.797184728558496758e+00
3.340251128300555320e-03,3.646517347186367924e-03,-9.790986894755919323e+00
-1.549691999966483665e-02,2.487236952901806381e-03,-9.789395829310807429e+00
-6.477491692524143217e-03,-6.541353807737684649e-03,-9.792736303779751239e+00
2.638166661929842050e-03,8.203781822300451956e-03,-9.795984120166036035e+00
-1.304910212083373053e-03,-7.235686466638794083e-04,-9.797766292400988064e+00
5.765088351108349669e-03,1.194686266106294694e-03,-9.795941602974950868e+00
-8.206286015765502429e-05,6.022068568266475755e-03,-9.807638875181014626e+00
7.104063984158428234e-03,1.028236894715001647e-02,-9.792703935031537910e+00
-8.053139115329166042e-05,-2.815315182107058257e-03,-9.804326858031775060e+00
-2.191707636016306231e-03,-4.248338549072591154e-03,-9.800958553245063598e+00
8.811158128175831201e-04,2.546203678827853225e-03,-9.800409530715333162e+00
-4.237486546320646218e-03,-1.083844148279081328e-03,-9.768392305783418550e+00
-1.211057456092248796e-03,4.319507876773403220e-03,-9.808075577337875828e+00
1.984303276210781872e-03,5.624501932514447237e-04,-9.781876589666056887e+00
8.579260174167461714e-03,2.934871869845686476e-05,-9.798217974787531759e+00
7.244720501764407867e-04,5.321102043443958797e-03,-9.801318305261133901e+00
-5.689300857458329599e-03,1.175316938705252886e-03,-9.792995813188266396e+00
2.416832152746653268e-03,-2.700551922381443505e-04,-9.783266795276878369e+00
6.029173441675832711e-03,1.131813242302775677e-03,-9.786919608754560684e+00
-1.337808256301050108e-04,1.014704887851865765e-03,-9.786728796240616646e+00
3.763143951468211554e-03,-8.061650876590220616e-03,-9.799816906568944219e+00
2.023938898198242211e-03,-6.481474939336880937e-03,-9.806437328099049111e+00
-6.736897703538522082e-03,-9.934094330510213899e-03,-9.796642739856814330e+00
-4.393168914745699573e-03,-2.828076337468044942e-03,-9.792781828066523531e+00
-1.095532191471097934e-02,6.450902131984923536e-03,-9.783979961941994929e+00
-7.877220297435793758e-03,-7.758956879039267604e-03,-9.795589632686819925e+00
-7.361478825333308065e-03,-3.537947814230955283e-03,-9.796974348722093495e+00
-1.175142614476478060e-03,-7.561483990497205009e-03,-9.787771778418360213e+00
8.982212757344995146e-04,4.936236119101875160e-03,-9.806139822711276821e+00
1.198776478445468495e-02,-2.034665746178428570e-04,-9.797079475931921522e+00
7.922230173650240178e-04,-2.611497158628509150e-03,-9.810666024101415417e+00
7.738309549449260034e-03,2.519071012110486122e-03,-9.803524897259968895e+00
-1.940048902658373221e-04,1.440604061377987388e-03,-9.801295411573706318e+00
3.868064314276966047e-03,5.625052210009403274e-03,-9.790176018197824348e+00
1.002049428458842532e-02,2.862063862946394007e-04,-9.786438649862420291e+00
-1.509639395221520734e-02,-3.378080825864130006e-03,-9.788001652750340398e+00
-1.583081815499433245e-03,3.943723392445876684e-03,-9.781847026096642139e+00
-1.912912074116254919e-03,2.020346388980533668e-03,-9.797641247524760288e+00
1.160859993130493838e-02,-2.167784414890562301e-03,-9.794489489400666216e+00
-7.034260016977358400e-03,-6.826942914650750011e-03,-9.781639077557533923e+00
2.427429267244337815e-03,4.072379185793708646e-03,-9.794512001034691551e+00
7.833394222641013732e-03,-3.569114667333390554e-04,-9.790600195303147402e+00
3.412302440504264012e-03,2.518296785494697661e-03,-9.784566873234510354e+00
6.282847321322890428e-04,-3.075489126815078664e-03,-9.807604948488229724e+00
4.323320687243884918e-04,6.013991776408969666e-04,-9.805772268107459055e+00
-8.489588497139701970e-03,1.629960507681295400e-03,-9.796175759657710813e+00
1.972649927164891234e-03,-5.697558497546544899e-03,-9.779184651374427162e+00
6.449457922664167744e-03,-4.316296645986168919e-03,-9.795568396007027445e+00
1.722905330125569295e-03,-4.444057111241285669e-03,-9.804760529365646349e+00
-1.293327324984373762e-03,1.897823981785909169e-03,-9.778022669181794413e+00
-1.080593367227238033e-02,1.066550596670525451e-02,-9.793349091002108153e+00
-1.175366355377198326e-03,5.324363851947311668e-03,-9.800269543487997836e+00
-3.398617796433824750e-03,1.680121765943644796e-03,-9.788514065018878441e+00
8.671927773018827182e-03,-1.224126125008550680e-03,-9.801491151983121597e+00
-1.628489929904391011e-03,-5.793315269917784574e-03,-9.794384913666437598e+00
-6.061771033574680882e-03,-3.041110412604200453e-03,-9.796648949912245996e+00
8.325160196209673361e-03,-8.599240967942390484e-03,-9.779793880176699261e+00
2.278935548233116618e-03,2.271212272383869683e-03,-9.807204826307556189e+00
-9.960954240032732568e-03,-3.891261362180696050e-03,-9.787574801249229850e+00
-4.901747380578490298e-03,-2.228154936858005222e-03,-9.788347285778266738e+00
-6.516701993375171795e-03,2.587763436078356453e-03,-9.796526334785211176e+00
4.542772292318154534e-03,1.659803435613771080e-04,-9.788355719740737371e+00
5.260593266985732173e-03,-1.384363828005932264e-03,-9.796819859577944101e+00
-8.033482285090560310e-03,-3.304408703429492170e-03,-9.800208431755471850e+00
-2.249441422447118547e-03,-5.310011848886742915e-03,-9.798422129017126281e+00
5.063883907699866585e-03,2.852524596956465975e-03,-9.797128190452758290e+00
3.333591431103588056e-03,1.320479203531575545e-03,-9.776900426509460118e+00
6.359631465044163039e-03,5.222982800305495631e-03,-9.782435109780664106e+00
9.316495536485523699e-03,3.917477634289635510e-03,-9.783376981176175491e+00
6.098592224853090693e-04,-4.803977224061229713e-03,-9.800804742784517742e+00
-3.146865413948028625e-03,3.860927880875029278e-03,-9.786228842479731682e+00
6.998555235069525097e-04,4.068190791798150657e-03,-9.801875363004839414e+00
-4.381398284556546618e-03,7.488366710722870953e-03,-9.784652179213395584e+00
-1.414023606533087356e-03,3.538160421815152406e-05,-9.786735920031969016e+00
7.625174730831671410e-03,-3.254881240805918875e-03,-9.805504057376422722e+00
-4.292693672986575525e-03,2.005391052929286419e-03,-9.797943114799698705e+00
3.990439279462881794e-03,1.446754203521228264e-03,-9.800337800959290746e+00
-4.131640463586257715e-03,-5.086299134748645256e-03,-9.793220157722952735e+00
-3.188229900353319567e-03,-1.476583531524179550e-03,-9.794060606456664431e+00
1.657254386843030197e-03,1.082244585978231650e-03,-9.796525828169238892e+00
-3.213593105584936025e-03,9.857871582905686214e-03,-9.791956815882672416e+00
-1.011603680495150055e-03,-5.223759557003232294e-03,-9.781215236689478232e+00
-9.041221204570520356e-04,2.633488357545441839e-03,-9.780639821640045639e+00
-7.063071101745753075e-03,3.438819257908024007e-03,-9.781388125592238580e+00
-1.280825112178730473e-03,1.314613231713258890e-02,-9.802217129898483705e+00
-3.896684734580055723e-03,-2.910773490421083697e-03,-9.801199404022094441e+00
-1.340932438965807688e-03,1.049544847542589190e-03,-9.798211561893793942e+00
-1.402842576844349045e-03,7.611333158381456895e-03,-9.774303014801404288e+00
3.663029802070796002e-03,6.820445382639779086e-04,-9.811834604700578666e+00
1.279826140439600237e-03,1.200368611881455277e-03,-9.792006962067892673e+00
-4.295535023381123925e-03,1.341286146211799740e-03,-9.792808243598589257e+00
-5.341449247226451834e-03,-3.938424966701502966e-03,-9.801551335772787255e+00
-1.589788209385872104e-03,-5.053162496366898036e-04,-9.794137416611027547e+00
-7.308012130903966501e-03,-1.295307391670335153e-03,-9.790419858775937456e+00
-2.910996390031290581e-03,-8.012362317997285058e-03,-9.796623531261767326e+00
3.598910073529968875e-03,2.702105348443719409e-03,-9.793649633312096370e+00
1.751974431886764959e-03,-1.136709619858812005e-02,-9.808843990178539585e+00
-3.469341389473004546e-03,-9.527385499211024275e-03,-9.802440934142117257e+00
1.987834904934221696e-03,1.465449894915659551e-03,-9.787884435518121151e+00
-1.222894019406318110e-03,3.159996150080857016e-03,-9.790643028630814371e+00
-1.317407484211771196e-04,-5.675760794576853278e-03,-9.800038459972041593e+00
-9.132374385637958593e-04,2.442699696439772604e-03,-9.789224593446315126e+00
3.048619594176438762e-03,-1.524215884457553842e-03,-9.814259051403251277e+00
-7.268096169520910262e-03,-1.186093660168266450e-03,-9.790437767342115905e+00
5.268752456321774448e-03,-8.114218937322833797e-04,-9.804640686922299508e+00
1.199873028445014485e-02,1.686550318370868065e-03,-9.793554105154495204e+00
1.867057710393160621e-04,-3.143880775916287323e-03,-9.791399622310585471e+00
-5.160476754954794638e-03,1.427557114338039342e-03,-9.792737089734842471e+00
1.193482532672258609e-02,-4.059244523814692189e-03,-9.799224119682111933e+00
-1.228296906961819047e-03,2.321051933262378592e-03,-9.788133629830870319e+00
6.250466100018185235e-03,2.025991541218509669e-03,-9.785350447535654084e+00
1.780520388103775309e-03,7.096303240846288211e-03,-9.796508481709517824e+00
-9.708226932880766047e-03,3.655830084495666210e-04,-9.806327607748716702e+00
-3.653957226424763699e-04,-8.776689478926131020e-04,-9.796067742179994653e+00
-1.978339047481771085e-03,-1.992097850504773778e-03,-9.802729448249911215e+00
1.708572513574779447e-02,4.076062362700006076e-04,-9.777787773579312613e+00
-4.213427057699683522e-04,2.349746161820859009e-03,-9.795441079484788816e+00
5.401747319568582246e-04,6.127426592525645789e-03,-9.803956754751455449e+00
-1.093016925981438485e-03,4.524625661348185418e-03,-9.790588291355149408e+00
-5.583506976349099024e-03,2.464248718291060791e-03,-9.787437120954729508e+00
-6.894745940787658147e-04,-8.532097516351339062e-03,-9.801376137057912885e+00
2.698758247105283170e-03,-1.368756447529209924e-03,-9.804036167530027157e+00
-4.304188280351661615e-03,4.956576354126026110e-03,-9.781098644532077557e+00
1.435458992507544166e-03,7.245385244305162058e-03,-9.792623877801956311e+00
8.348653048350950998e-03,-6.999248734364454244e-03,-9.797107874783300474e+00
1.035665700389210540e-02,5.294711482551713554e-03,-9.787473708813386963e+00
-4.626704605734676540e-03,5.356569161438028788e-04,-9.789882842771026716e+00
-8.767143453219470445e-03,3.621495064176129437e-03,-9.809345138118706231e+00
-5.405399167596698640e-03,4.086450604971057776e-03,-9.790850304817126926e+00
-9.483281633927631777e-05,4.348778379569613779e-03,-9.796936964694523908e+00
-2.346528245553766191e-03,-6.983410675859932047e-03,-9.799618587000443526e+00
-8.531899589758364447e-03,9.613912001096219101e-03,-9.806001535336717367e+00
-5.677571894834556460e-03,-1.173882314289206343e-02,-9.812015212560135424e+00
-9.238160978168815946e-04,-1.887686986246825925e-03,-9.776879448552229235e+00
1.227023094992620543e-02,-6.608195268885837942e-03,-9.792625020997606455e+00
-3.560505684071772151e-03,1.778342276827955121e-03,-9.796675244295466101e+00
4.628195326551356147e-03,2.658272165426039772e-03,-9.798338687038109285e+00
1.521356372548738570e-03,-3.712457288415182532e-03,-9.799867447971195134e+00
-2.034427681509092488e-04,6.165230570124530761e-03,-9.805988863797814759e+00
6.924488907791533261e-03,-4.127445001051469227e-03,-9.795671799114005651e+00
8.064655901505351707e-03,2.796033830635862461e-03,-9.796165632059215866e+00
-9.854272949083990943e-03,7.320090300013300244e-03,-9.787402630625622990e+00
3.529417847027968569e-03,4.540433447309655431e-03,-9.796879724289908609e+00
9.325363043739746775e-04,-1.556869696969260305e-03,-9.794969605113571731e+00
-6.675423725210727181e-03,3.398588256416171520e-04,-9.798997726260509467e+00
1.642800330607750844e-03,-5.094925739095972940e-03,-9.779961057585378370e+00
-1.557812284214395236e-04,9.243475510669899725e-03,-9.790584593631370680e+00
-2.495286403609417794e-03,-7.569532689041267963e-03,-9.796505653634183020e+00
1.287428431063973415e-02,6.631032786034203250e-03,-9.789941286111639940e+00
-2.111681874328778449e-03,-2.493338238126656305e-03,-9.818086071942845550e+00
-4.371481639977047896e-03,1.083413495894704724e-02,-9.785207124132700329e+00
1.087517397412753571e-02,1.669974238862520759e-03,-9.795742644469479288e+00
-7.453092756616400963e-04,-1.432488120812668887e-03,-9.789435206469752515e+00
4.525758916364059671e-03,4.804321540263362979e-03,-9.792394384963696297e+00
1.084416171400193456e-03,5.249303992447041517e-03,-9.795518436520493921e+00
5.946644107569642491e-03,-4.058181946917868883e-03,-9.788747176371767722e+00
6.534595451243171982e-03,-1.565487751130082783e-03,-9.794198064727810404e+00
9.208231688568682964e-05,4.026588928002485836e-03,-9.806631577480116491e+00
6.852388760612318193e-04,-5.808580970712062634e-03,-9.794366753696147399e+00
2.014273161525259766e-03,-5.041565151112000973e-03,-9.796131986567877092e+00
1.435263542734739953e-03,4.304975743132736718e-03,-9.797118397966396941e+00
-3.514898993007743982e-03,-7.870355819922229823e-03,-9.792935584914927105e+00
-2.894252167016747265e-04,-4.380072332299691064e-04,-9.791181518498330405e+00
3.311704267635223395e-03,1.350878113872361168e-02,-9.792258546963459764e+00
1.300679872653782900e-03,-2.699236583185098994e-03,-9.791271486570712668e+00
9.483100017515158761e-04,-3.715595686097341189e-03,-9.788783690224317269e+00
-6.396381469619282943e-04,2.841189542802749404e-03,-9.782589885419465503e+00
-8.356242216770741818e-03,-6.984530051173268826e-03,-9.785690682969741871e+00
-4.742981399302574792e-03,4.507351530111380618e-04,-9.804538645693865462e+00
6.952111347037498966e-03,2.664441918655279483e-03,-9.801562972570428300e+00
2.609221735738458114e-03,-2.361097451847487313e-03,-9.792088719167844957e+00
3.120546697437491090e-03,-4.253347232071844584e-03,-9.798920100454118653e+00
1.347244497564335786e-02,-1.212734030917853286e-05,-9.789206213365607923e+00
6.196067642250610314e-04,-5.066735174116532119e-03,-9.801275519753261278e+00
6.220001506241088288e-03,8.367637387489264235e-04,-9.787963633758826276e+00
-6.805656715659227180e-04,8.224760927042452582e-03,-9.799907060547251803e+00
-8.335890878777856353e-03,4.853311236551555163e-03,-9.786327370443681062e+00
5.260297468811427762e-03,-1.124148787596856471e-02,-9.794134945425284400e+00
-3.214526858831536372e-03,-5.988011866680854368e-03,-9.793240908599228689e+00
8.579501039802775453e-03,-3.374894044501114410e-03,-9.794672250307483452e+00
-1.043343883346954139e-02,-9.408199397977467723e-03,-9.783007213669147717e+00
-2.304508264163532012e-03,-1.198366756410016625e-03,-9.790884085702449724e+00
8.254794949300335583e-03,5.014786227270248871e-03,-9.790213310649859224e+00
8.531091350037692386e-04,-6.508268594432629200e-03,-9.798909340418898495e+00
6.387694745943028884e-03,-2.876560371316562795e-03,-9.801610964909682977e+00
-7.524243518139074084e-03,4.762541032569902848e-03,-9.788512165115335506e+00
6.756208312553706533e-03,5.425638517035932286e-03,-9.797989350450777124e+00
-1.350810361598775910e-03,-1.122578099905842874e-03,-9.797994474106625162e+00
6.981430563833292396e-04,5.518153141354063471e-03,-9.781726651839505848e+00
2.211039997413516076e-03,-3.348881721330108224e-03,-9.794461228518834162e+00
-2.746426713668055370e-03,-7.497332812197925883e-03,-9.781921341204366627e+00
1.715197273996052528e-03,5.302741476792000551e-03,-9.786381880198547378e+00
3.240861940996437717e-03,-2.935919259865734721e-05,-9.786839024327775860e+00
1.054396270207404391e-03,6.026391230067031264e-03,-9.791371747727943387e+00
5.166799760824967828e-03,-1.750827529716254415e-04,-9.819493691455740247e+00
3.711303708858717815e-03,2.755968952989996078e-03,-9.804611506949891364e+00
-3.361886959998409887e-03,4.266103849342040531e-03,-9.797359261360952587e+00
1.122009705820550124e-02,-5.318593940958407477e-03,-9.787228116925403398e+00
5.662472496549819483e-03,2.844704181253124688e-04,-9.795189613119529071e+00
-1.876913212885909007e-03,3.932515067290720881e-03,-9.782275886151667876e+00
-2.989937314692332759e-03,-5.464070792829818198e-04,-9.792837321080085644e+00
6.748118833983612203e-03,2.232799662210626333e-03,-9.789463958213712402e+00
8.251311743725009201e-04,3.537865081987388079e-03,-9.796459366301858651e+00
5.653186084160141678e-03,4.400042027392058082e-03,-9.797578496205543885e+00
8.938524141603568273e-04,1.200848026375064262e-03,-9.788404358262370764e+00
1.001438889698022614e-03,-1.535917879600657210e-03,-9.797548211685690234e+00
2.373044421624870368e-03,7.992463107450749685e-03,-9.800824034931460815e+00
4.325823251152075173e-03,-9.347667205714204448e-06,-9.782160560609394651e+00
1.862811059998542400e-03,-3.530898303427751871e-03,-9.801500735366980521e+00
-1.408149352577877300e-03,1.097762324865078588e-03,-9.800101450600786634e+00
3.134998225881919023e-03,-7.812798899554471849e-03,-9.788689677321642080e+00
1.285568916514426372e-03,-2.028668258954262945e-03,-9.795248450136371687e+00
1.235812537396605276e-03,4.177199985330350661e-03,-9.791139742546162594e+00
6.724420289084336380e-03,4.015695355008308564e-04,-9.791331602372077114e+00
-2.650987832638810812e-03,7.245791827669557580e-03,-9.802857932573139976e+00
5.219673366830848878e-03,7.181152269225545177e-03,-9.793162230613392083e+00
4.319281437105438985e-03,-6.552753005051107672e-03,-9.800390912042212577e+00
1.471222386341738877e-03,1.309217487115269451e-03,-9.793748114385286030e+00
-7.597147408203418391e-03,-5.226603247659068622e-04,-9.795244498892598628e+00
5.291307991917982081e-03,1.310761319270855110e-02,-9.799652962324314487e+00
1.186466928911714293e-04,7.711837549024059754e-03,-9.780488507228593420e+00
3.218026639924141587e-03,8.317247661305796416e-03,-9.789880320629317012e+00
1.025118550775724370e-02,-2.427692174672182925e-03,-9.800130361555856595e+00
7.491059546954482139e-03,-1.043180330395225390e-02,-9.794735093142060478e+00
-7.808835598199856268e-04,-9.822203190606390317e-04,-9.793077403124906155e+00
-2.323000998494035262e-03,-2.542486953355181092e-04,-9.789285225285102143e+00
6.963429356801470460e-04,7.433420606013340683e-03,-9.795698728603470684e+00
-5.095708986603640807e-03,3.189832913391437222e-03,-9.809935670564607690e+00
1.278622654637296286e-03,-3.058469032406856136e-03,-9.792265855797817053e+00
5.200989202324432861e-03,-6.678166530286128513e-03,-9.788353555332795608e+00
-1.207062333452052494e-03,-5.203200750599638706e-03,-9.778459982004944706e+00
-2.238185699134721211e-03,2.212155747132576664e-03,-9.787056069967349003e+00
-4.578725654430445234e-03,6.027978854719766126e-03,-9.789286240611064116e+00
1.490008253220192775e-03,5.321003738435749544e-03,-9.804469268079875732e+00
2.785154642465554470e-03,-5.545041001498959496e-03,-9.789389063611078967e+00
-9.223771967248609732e-03,2.998695671623309925e-03,-9.794470315897694235e+00
5.182656381597713392e-03,-4.855677481871775204e-03,-9.783398948955726482e+00
5.941491127676104197e-03,-4.593395015653578377e-03,-9.799795667143865074e+00
1.096751204283795064e-02,8.174408849797582324e-03,-9.791831787623536343e+00
4.412963921098882712e-03,-1.716102149058041249e-03,-9.796461038687807488e+00
-1.046405559920185122e-02,4.883620296633361078e-03,-9.795062242313681722e+00
1.693167011238952240e-03,-8.429935675698742997e-03,-9.787498284327474707e+00
-1.911384481798433961e-03,9.124318856350659406e-04,-9.782733201857922722e+00
-2.007618238333939466e-03,1.699726096145297164e-03,-9.784090428143910501e+00
-4.653971547179107382e-03,5.590061797300158522e-03,-9.791402700745299725e+00
7.222897099842018158e-03,1.896560762302748745e-03,-9.809721625718315963e+00
1.395873386400276524e-03,5.241352945974009532e-03,-9.793742566005407824e+00
-1.192575179831716547e-03,1.112464408296289647e-03,-9.797909395880576966e+00
2.550922632520633698e-03,6.443303004138368519e-03,-9.794368486329954493e+00
-5.926140522973914054e-03,-2.959199685112286812e-03,-9.802377620322616281e+00
-4.496666483209945872e-03,-1.188136533583692431e-03,-9.790166454322941192e+00
2.235392297447459566e-03,-6.214223095343654468e-03,-9.800966486448718484e+00
-2.606053307654242028e-03,3.153017017906722258e-03,-9.791459635841720299e+00
-1.536898286737579293e-03,-3.440938262873884058e-04,-9.799644090539503694e+00
-6.539610018457720983e-03,-1.633547349687247859e-03,-9.801719126673249960e+00
-1.585240185123176467e-03,-6.490702242767718358e-03,-9.796037758258037798e+00
-4.961766527254744472e-03,4.576307464002716619e-04,-9.796062979361504830e+00
2.083330566255934494e-03,-3.902150626196057310e-03,-9.797123360469871756e+00
7.095074447589015156e-03,2.233776842583523169e-03,-9.783407236217492198e+00
2.497227782957394667e-05,-1.673085828089373485e-03,-9.802074294576959446e+00
-6.749092979310939572e-03,1.801801417689486849e-04,-9.795855870964016887e+00
2.780589549257588607e-03,2.451173719691531264e-03,-9.795046705522464592e+00
1.956341809551627887e-03,-2.000942599658767865e-04,-9.798348944211308975e+00
-6.725131424117317298e-03,-6.395088563823723982e-03,-9.800751155668191217e+00
6.411721470503456075e-04,-7.238259849356872520e-03,-9.797464397132090497e+00
5.353951959292743354e-03,-3.533852845517885394e-03,-9.803563860818412579e+00
-7.487834350943402446e-03,5.319941361427067000e-03,-9.788219366850730907e+00
-5.291300058059320889e-03,-5.919560875089865948e-03,-9.805637963994954021e+00
-1.354803671279942306e-02,-2.219493465760866407e-03,-9.802968698708744100e+00
-4.081671754083843369e-03,-1.469899414069194502e-03,-9.808162764899730490e+00
7.533331731985169408e-03,1.107592088597638379e-02,-9.791190634118580149e+00
3.045609903683680307e-03,1.120045763609997351e-02,-9.798151988714606020e+00
-3.501363619456660838e-03,-4.826752398117991824e-03,-9.795567682554235489e+00
-5.235159661842376556e-03,-1.195105704106222411e-02,-9.784876951965070901e+00
-8.368626652990774836e-03,-3.980361235803578021e-03,-9.790529883146607659e+00
-4.588946008075380639e-03,5.750341432755681076e-03,-9.792521709761937032e+00
-2.507556027348248427e-03,7.651006203987431240e-03,-9.791118892646601068e+00
9.118389772954935482e-04,-3.218748740938514544e-03,-9.802431797532468849e+00
-4.525148201122575729e-03,-1.294294699049618538e-02,-9.790102618277208180e+00
-1.593793252686697120e-03,-3.623426651624910618e-03,-9.789072395398642712e+00
-4.734009971015831937e-03,2.137785081951514270e-03,-9.808880175371246679e+00
3.829655869508315560e-03,-2.620066536751664704e-03,-9.801225832852841435e+00
1.117712881365031936e-04,-4.972885140419723397e-03,-9.800763870600146532e+00
-3.644699488446148487e-03,1.604780859748431831e-03,-9.791334386835519155e+00
-3.785547815522949302e-03,-4.749221210043727721e-03,-9.801410358079692742e+00
-2.558092278692055202e-03,-3.018708447322241036e-03,-9.795295888350990410e+00
1.829087298170574893e-03,-8.685927120136580776e-03,-9.807024513185348624e+00
-2.431164027513989332e-03,-7.713502403380058207e-03,-9.793472121977099931e+00
-6.226026043478982523e-03,2.950804638006184356e-04,-9.783686509023638678e+00
3.655423188523534333e-04,2.157743463315125250e-04,-9.795416411071157015e+00
-4.173489938966265696e-03,7.554139646398671431e-04,-9.805773946953260989e+00
-2.693441820479116483e-03,3.083969816525976813e-03,-9.773225967998879327e+00
-1.656115398829527668e-03,-5.080893854836634159e-03,-9.803136547861793559e+00
-4.844995368778882809e-03,6.349919909070914775e-03,-9.791898536502806394e+00
-1.016760506949584801e-02,3.026554680225195491e-03,-9.798462059775340904e+00
6.348264052732943176e-03,-1.889462000909014139e-03,-9.804052028079185632e+00
3.046578724672643814e-03,-1.139430664692913210e-03,-9.795246355636159308e+00
2.601217178330963347e-04,-6.943185223238098301e-04,-9.796255916453068480e+00
5.158245825419716622e-03,-4.433648949423002125e-03,-9.801400263889158637e+00
-1.824999625335138869e-04,1.570971737469043297e-02,-9.784322261140069088e+00
4.671031327787238292e-03,-1.809651830975840883e-03,-9.794754038366612292e+00
-3.482352203105041222e-04,1.020928476303850901e-03,-9.792277613767144118e+00
-1.061807885915036498e-02,-4.596759458632400028e-03,-9.805957332835873785e+00
5.104773263991510893e-03,6.617515364060257664e-03,-9.794421634819792999e+00
4.586781477118172072e-03,-6.256409040073606861e-03,-9.785391145337234420e+00
2.559291751036789613e-03,-1.618981475177730736e-03,-9.802996444116704566e+00
1.832699262804408577e-03,6.226532266085701983e-03,-9.787344426201190828e+00
8.187608273426483577e-04,1.504509468957863872e-03,-9.803764028375770323e+00
6.063033205579596539e-03,4.160002534627648026e-03,-9.805816325617811913e+00
8.053405275893030235e-03,-1.489503503005409034e-02,-9.781060266152399763e+00
-4.536779440396884223e-03,-5.585525657580586376e-03,-9.800767856733516581e+00
2.477206787731798274e-05,-4.695656143469522162e-03,-9.788766707504764852e+00
-4.237312280793317440e-03,-1.977099828073615277e-03,-9.802907571343896009e+00
-1.053938924033292080e-03,1.118330402813259372e-03,-9.781723068712421920e+00
1.255889036008043906e-02,-5.504133287264282269e-03,-9.800755816748180749e+00
-2.173038980414355135e-03,5.451194522813927919e-03,-9.804402189771430187e+00
3.677656550005577174e-03,3.567495873942993882e-04,-9.785906726530097188e+00
-2.564210704040062721e-03,3.338223859460095837e-04,-9.785962839347723374e+00
-5.701048855562577608e-03,-6.833724501013148725e-03,-9.793174101855418812e+00
7.000707309712740807e-03,-5.512668282392145340e-04,-9.775400659944530446e+00
1.162367180989001651e-02,2.664874522135421506e-03,-9.797649766591895570e+00
-5.273042300019855667e-03,2.155049937783426895e-03,-9.790680527092412433e+00
8.303062514233924482e-03,2.403671056112091121e-03,-9.788201374587918835e+00
-2.532671098142078459e-03,4.508958697986768620e-03,-9.801227104990916317e+00
7.244859271773634174e-03,-3.163341214885118016e-03,-9.790728923154306429e+00
-4.747765395074404760e-03,2.611868675720432562e-03,-9.803282292456321656e+00
9.241600698701356309e-03,-2.804195630569614964e-03,-9.807226500519572454e+00
6.485354456539850661e-03,4.308233358246330025e-03,-9.798089093446080255e+00
6.663457314301514736e-03,-1.370264072850292860e-05,-9.809760128803935331e+00
9.734931619199912751e-04,2.719921310683768353e-03,-9.803303859322241465e+00
-1.346786723556481040e-02,-4.847616208234506799e-03,-9.801275153648735028e+00
6.941182736744570467e-03,5.267363317960441563e-03,-9.798139920991420837e+00
3.295414823667888217e-03,1.438565157675733043e-02,-9.785335817227958088e+00
6.014594178826879363e-03,9.299913759111362105e-06,-9.798396424084231171e+00
7.480689382823734086e-03,-7.138766353575928467e-03,-9.809666110779639681e+00
-3.399469836287811152e-03,1.384724385205089118e-03,-9.795674866653619972e+00
-6.104485179660293359e-03,-3.327252649821221733e-03,-9.795679867739675473e+00
-3.279142195602324349e-03,1.753396419501470835e-03,-9.785347024789185610e+00
-3.817972649281472976e-03,7.283226154474076609e-04,-9.784525544258224627e+00
6.209567368364367693e-03,1.848182460083759799e-03,-9.798893959096155015e+00
-1.796753706851313267e-03,-5.653978276796743987e-03,-9.809241536465165723e+00
2.857181966745653452e-03,-1.201825962895013188e-03,-9.788860929787624343e+00
-8.868484306662887404e-04,1.781415374065507037e-03,-9.793756897932087924e+00
2.740626419771086727e-03,-7.897623933566857166e-04,-9.789543393483537415e+00
4.957816332261987327e-03,-1.484965518031822933e-03,-9.778781955064921760e+00
-3.559932324692291743e-03,7.486453193367171785e-03,-9.803110331196178251e+00
-2.010426962341964417e-03,-6.193333339295756940e-03,-9.797142578626701237e+00
-7.382414415272257023e-03,-3.320324688752597422e-03,-9.797052583551893790e+00
-6.837162457107041381e-03,-1.901321531905921089e-03,-9.803858644317227089e+00
4.224850869255320114e-03,-5.121650725015491380e-03,-9.787965632362791268e+00
8.992930766500177239e-03,9.989373551197644127e-03,-9.789316403467164918e+00
4.235313655921532465e-03,-1.675449905704391338e-03,-9.795289358984266670e+00
2.781524485655926995e-03,-6.419444878167953998e-04,-9.804957498996818899e+00
1.764729537947776422e-03,2.602307994220154873e-03,-9.792964252398439484e+00
-1.468348007459043545e-03,4.766896587391175263e-03,-9.805823665129755895e+00
-4.023718227444045281e-03,3.450251418859010943e-03,-9.785244452958242078e+00
-9.357208868094142248e-03,-2.879222602688323151e-03,-9.800501523328017939e+00
-1.829976533513620737e-03,7.560830381606686943e-04,-9.793650020241452481e+00
-1.555224689245813434e-03,-3.651316356799060286e-03,-9.799187496021128041e+00
2.731096395377240627e-03,-8.576693120267601467e-04,-9.797287906053625761e+00
-3.481384536915366895e-03,-5.350655856741871191e-03,-9.802341748572425573e+00
-4.686510263473811846e-03,-3.743199519671902738e-03,-9.794483982299199809e+00
-3.607085862715958893e-03,6.771798981754292976e-04,-9.803724928220425738e+00
-6.639457276983366449e-03,3.221584421086166362e-03,-9.790536835705440311e+00
-8.376716926662312402e-04,-1.031865497289313240e-02,-9.792828265285111300e+00
2.348956096224866317e-03,-5.867737167605024083e-03,-9.797195494394612680e+00
-1.341028304712780714e-02,-1.882838678518012135e-03,-9.800595081864779345e+00
-1.401742579652706568e-03,2.960010326931854317e-03,-9.803091571909050117e+00
1.424828736287920552e-03,-7.669562757443705407e-03,-9.804600937178271636e+00
-4.018128893837072326e-04,9.999027639264341724e-03,-9.789961697495881410e+00
-2.720318542302224609e-03,4.516012064891615323e-03,-9.807655580859153233e+00
-3.931854864684899455e-03,4.559625040273089860e-03,-9.804108169378650928e+00
5.677672421258802074e-03,7.121104521261598184e-04,-9.776487946382543370e+00
-4.705450002412873631e-03,3.586238938471455334e-03,-9.789244748477894831e+00
5.739015357599323505e-03,8.081129911525509199e-04,-9.796347090966067483e+00
4.736138846813130882e-03,-3.437507335976906688e-03,-9.796182857221500839e+00
3.380793350087367075e-03,-4.496707092649935211e-04,-9.788363544211378553e+00
2.162659653230964048e-03,-1.674130519779480598e-04,-9.776591840720497473e+00
-3.986491633651148905e-03,-9.482347576805442296e-04,-9.796107878703368854e+00
9.051750523943592405e-03,6.284065552943678612e-04,-9.794246113704460299e+00
-5.197763059196304318e-03,2.030963733457760560e-04,-9.808958460998141504e+00
2.755364662565067645e-04,-3.731531016916700850e-03,-9.786301922491118077e+00
-6.589398025416341557e-04,-5.074232167307497418e-03,-9.779283514727820759e+00
3.822851638404733965e-03,-3.553509144693840511e-03,-9.778639103642777997e+00
3.993665402851460065e-03,4.760559146746081577e-03,-9.800007208829157435e+00
-4.920742777280431510e-03,8.462181104449285202e-03,-9.800827070168017130e+00
-6.683423448418655474e-03,-2.349433104277192513e-03,-9.791007598901478204e+00
-1.709170543347430940e-03,-3.702803353653649071e-03,-9.799605647191121705e+00
-6.744916216087660241e-04,-2.234425645001252882e-03,-9.803051692578508280e+00
1.029218255042922909e-03,-3.530989173956196347e-04,-9.787601491962110600e+00
-3.431659774838955249e-03,-4.906650797325134115e-03,-9.788472393799871440e+00
3.891005699365709990e-05,-1.711123511932343246e-03,-9.797014019724038292e+00
1.111438428747201120e-02,-2.011721117830146850e-03,-9.786837184093725384e+00
4.027763620481121520e-03,-5.088651709463829290e-03,-9.798141391533158995e+00
-1.540359070747844474e-03,5.097210528325335326e-03,-9.797253037559235267e+00
5.583866659533665358e-03,-3.571188063074224109e-03,-9.773397282645733597e+00
9.544894391304617129e-03,-3.337672120991355684e-03,-9.797175205142110599e+00
4.971457677303348262e-03,8.060009552379118064e-03,-9.800849481860405277e+00
-3.803968789813367939e-03,-6.477136340167324521e-03,-9.802501836885131326e+00
5.809035797698132095e-03,6.417049256934723687e-03,-9.791701297197908715e+00
-1.866979796170661248e-03,3.680053764642061877e-04,-9.796241766596896383e+00
1.037505438342070305e-02,5.549034982014852679e-03,-9.800619307440770811e+00
-2.903077733629485721e-03,2.790199281930953127e-03,-9.807031077031920674e+00
-1.909146325910761072e-03,-4.474194678895137937e-03,-9.793818064836457893e+00
-1.341953984352859753e-03,-1.674012593684793930e-03,-9.796189145526831510e+00
3.145142186254296351e-03,7.240537511893095418e-04,-9.803479776702257453e+00
5.429719895777598317e-03,6.897550550218530148e-03,-9.793719104637466089e+00
-1.885748924350021680e-03,1.101714441208683122e-02,-9.787274694919721796e+00
1.006015110529077938e-02,-6.343671304593710009e-04,-9.784122470563314522e+00
5.293051032461431119e-03,-1.100668967386522409e-02,-9.789931539401010241e+00
-3.886274511589819444e-03,-6.329015215813809866e-03,-9.797828452414178102e+00
-1.106623334392680368e-03,-4.521395745444040798e-03,-9.807341266809567415e+00
-1.164396110752627216e-02,1.824584569858492397e-03,-9.811600542063654729e+00
1.463401190139076383e-03,-4.520071265616964909e-04,-9.802796177642221664e+00
-3.098561278546007550e-03,6.397754345779131310e-03,-9.809776984604480887e+00
4.924480459494352466e-03,-1.484628890696510460e-03,-9.795766161532087679e+00
-5.619115888201190595e-03,-2.081469510538420421e-03,-9.786022306899608836e+00
2.597235014110804794e-03,-4.495552037797587858e-03,-9.786106834555212686e+00
4.366450097606118519e-03,-2.277328455742942855e-03,-9.788378343616633614e+00
2.066379264149386524e-03,3.183144595436667151e-03,-9.792629892491616417e+00
-7.160268697203627311e-03,1.779466743012338018e-03,-9.806769772423480802e+00
2.461801878612272787e-03,-1.999597251956375995e-03,-9.783002265320305924e+00
-9.427138573280846243e-03,1.335428949781756677e-02,-9.787611986878369308e+00
-4.050820861211132037e-03,-1.259947686810067996e-03,-9.784093340875601896e+00
3.472844015781758817e-04,-3.508015510860329044e-03,-9.797759926784854301e+00
2.141283539999260920e-03,3.697438400424695511e-03,-9.799784028603369279e+00
1.054571086410964302e-02,4.210382193829028926e-04,-9.802452956181562982e+00
5.754600937860646255e-03,-2.153382908959135950e-03,-9.792289378281669343e+00
-2.449923786524646745e-03,1.239465191938820925e-02,-9.787244359292017748e+00
-1.147970665388084802e-03,-4.792674860816630023e-03,-9.791425940797591210e+00
2.474224439649631065e-03,2.072988162466475603e-03,-9.783784502092295554e+00
1.878706940016730261e-04,5.013879873825815257e-03,-9.800133782115105774e+00
1.366473185000789507e-02,-2.382046756426853089e-03,-9.803667410279347294e+00
7.459943173118003569e-03,-4.907150369324622848e-03,-9.799814419376081887e+00
7.311175699033264919e-03,3.977781288632892330e-04,-9.789401721637620568e+00
1.459682122392865118e-04,-3.270097852946876778e-03,-9.785065860346746192e+00
5.718937315592918444e-03,3.545552733328207612e-03,-9.797304864951042802e+00
1.191591356801040280e-02,-6.085240740929989678e-03,-9.783689568131501701e+00
2.502345326063339526e-03,-7.892732526979286123e-03,-9.796694639424863738e+00
-1.106126673770257106e-02,-2.607737825396361665e-03,-9.794258740160477927e+00
1.409613501843244034e-04,4.341902072216604139e-03,-9.801019570370625544e+00
1.434024008120972967e-03,8.889066737430375599e-04,-9.788533700693767159e+00
-1.391302908029369871e-03,-2.085056555428497962e-03,-9.783515708241239395e+00
6.839296223880710762e-03,-2.476364440274072837e-03,-9.799629488125823684e+00
5.074822888056460500e-03,3.926568859165839240e-03,-9.800154586743317964e+00
3.892478298405253195e-03,-8.243762334008526097e-04,-9.798554218658509285e+00
-3.200887566567073121e-03,1.219536330479179843e-02,-9.797143631727450952e+00
-3.146975902559961871e-03,8.707873858005850051e-03,-9.796858881748624626e+00
1.185668146545041475e-03,1.048649239644027648e-02,-9.780833549529774018e+00
3.356769354727335512e-03,1.027640651658870983e-03,-9.800080176158132872e+00
-6.121605580440744529e-03,5.054984659906477116e-04,-9.791738881532133121e+00
3.848262551736507473e-03,5.118115888422903291e-03,-9.788279066025427966e+00
-6.306206638505756912e-03,-4.138175826137894218e-03,-9.795084931279804508e+00
-3.888088244715347860e-03,2.257263110371261847e-03,-9.801144898100000447e+00
1.100923401879833757e-02,4.563843182941272093e-03,-9.795638408232880678e+00
3.442755948659978731e-03,1.301720627257886825e-03,-9.787864295586604868e+00
5.237417018496734814e-03,-3.379477291008586674e-03,-9.789734911852264077e+00
1.944738952542297752e-03,-1.472937827708335366e-03,-9.785535064601878830e+00
-1.122101850587526109e-03,2.156208160826585888e-04,-9.794279021149135289e+00
-4.769048152087383501e-04,-6.260877602573618368e-03,-9.794663132504634717e+00
2.825707657864149659e-03,1.866709551237056034e-03,-9.794048623258099440e+00
2.535368688074815090e-03,-4.235192192730284459e-03,-9.790928473414224342e+00
-6.016973429597718623e-03,8.263388581330866458e-04,-9.796591835346495358e+00
-4.303152810080314652e-03,-6.669657660315179114e-03,-9.779740750765611779e+00
-2.551578213759940397e-03,7.651134781021981003e-03,-9.795911952870088868e+00
-4.989347797828298965e-03,-8.225629779105045163e-04,-9.796365964239271307e+00
-4.570829953494986303e-03,3.194612318374717968e-03,-9.782058194984562860e+00
5.671455011314923550e-03,8.943296742279232756e-03,-9.784383122964625201e+00
1.373704477259133586e-03,3.012852905100182627e-03,-9.798560687667757563e+00
3.653941182483444114e-03,-4.674150282627987166e-03,-9.782932527880641160e+00
-6.070746409422446595e-03,1.238384822399558535e-03,-9.787420887853924611e+00
1.147636351495550169e-03,-3.156848092318818681e-03,-9.793073691869446762e+00
1.176856252447144174e-02,-3.049295773869716182e-03,-9.795758707975213753e+00
-1.686993046879549200e-03,3.055749337434135286e-03,-9.794448299856060913e+00
-2.910222914123500489e-03,-4.151844112515107495e-03,-9.797962639058832579e+00
4.535909464423560668e-03,-2.528968722212349748e-03,-9.793889200859537070e+00
-3.880784153201341340e-03,-3.126148585271692690e-03,-9.800267165432616778e+00
-3.454769146779278731e-03,4.968489847630378625e-03,-9.804992171862961570e+00
-3.183281830284323977e-03,-3.735700814359968567e-03,-9.798791190185900390e+00
5.836334087534721105e-04,-4.161012690598783412e-03,-9.801399376592755175e+00
1.150176590451163590e-03,9.296792613605931593e-03,-9.780099045122968349e+00
2.502883630948135471e-05,-3.395407782415465559e-04,-9.797632847187351501e+00
4.827470765062143350e-03,4.771879028738391579e-03,-9.807223897317983941e+00
-4.312572469206040968e-03,5.167929763656497338e-03,-9.800642606021709113e+00
7.202601648402938862e-04,-5.645976859710153577e-04,-9.801887046201207099e+00
3.144775013219697733e-03,3.308093095895963710e-03,-9.775140381434145098e+00
4.479221585742247484e-03,-1.132873163590445613e-03,-9.795583935535962183e+00
1.107649746922071765e-03,-3.980083119406247405e-04,-9.800359424728766200e+00
-8.120020699690097890e-04,3.277547102259272243e-03,-9.791195844279075189e+00
6.476044585494477798e-03,1.665943045849596713e-03,-9.800960986828107124e+00
1.232425978680033816e-03,-5.275203580937007711e-03,-9.802176049949292036e+00
-1.873958534845168158e-03,-2.028907658506336198e-03,-9.814180984116031681e+00
-4.815988582704887160e-04,2.434592645433928271e-03,-9.777958401092782026e+00
1.486503877588934118e-02,3.469019134795343559e-03,-9.783139198400068182e+00
-1.937920435001159970e-03,-1.372742542924261901e-03,-9.798247808160914119e+00
4.293208545066516842e-03,-8.263733910399261723e-03,-9.803040096287681138e+00
-6.636978462622930390e-03,-7.989500391622016140e-03,-9.790161357644816320e+00
4.351356298851733091e-03,1.680807914946119393e-03,-9.797641027527570046e+00
1.104788233802841231e-03,4.298712891525625565e-03,-9.802243603298149921e+00
6.750846853723141243e-03,-9.376017772727462582e-05,-9.796815620877540098e+00
6.260909861230842116e-03,1.483772898022358037e-03,-9.791195530444525730e+00
6.284813645317506234e-03,-5.626564374689186493e-03,-9.794752097100158039e+00
-1.725314519038673297e-03,7.480999647718099103e-03,-9.788329765640318314e+00
-5.454445644907061387e-03,5.021940114096033747e-03,-9.794420284262406184e+00
4.406280035243566144e-03,-9.565975999309375049e-04,-9.789685250831313468e+00
7.260464304658530502e-03,9.088475369918054677e-04,-9.784663186192538831e+00
9.258285603952405227e-03,-2.659863958269849046e-03,-9.793569953600025357e+00
-2.929068109778927217e-03,7.389650272029247430e-03,-9.786599257914565086e+00
2.279492353721421661e-03,4.765906937782601015e-03,-9.795751689535032725e+00
-1.758347375719391311e-03,-1.518379263049102939e-03,-9.799283810234181047e+00
5.315755963177998429e-03,1.100896824482983094e-02,-9.785467092982839787e+00
-1.073230309022757747e-02,-1.075812983522679307e-03,-9.793623184873608167e+00
-6.161201740968347274e-03,2.509433780786145957e-03,-9.802607385245408977e+00
-3.652224263784286003e-03,5.663076854718538528e-03,-9.807303321875460611e+00
-6.466365737356644669e-04,7.159319205708032131e-03,-9.799222352093959643e+00
9.746117067531378381e-03,-8.533756255197943487e-04,-9.777716904324526226e+00
-1.174469166162548858e-02,6.483992326543906552e-03,-9.784761426125978545e+00
4.486031887228568416e-04,4.360215913340490662e-03,-9.790234324324089243e+00
3.555588438732421638e-03,-4.261206668785532184e-03,-9.794134710527989895e+00
-4.765213553733386315e-03,-5.967837479747558444e-04,-9.788667855497916293e+00
-8.982219084522040028e-03,1.995190985765772987e-02,-9.782410651646319621e+00
1.089029668316622134e-03,-1.190504925608251068e-03,-9.794619879418746677e+00
-5.151212930326637407e-03,-2.903835232994110560e-03,-9.780779239069005371e+00
1.460026866383070331e-04,-1.825495831082525611e-03,-9.795834608320030057e+00
-2.938072369168280486e-03,-3.995889585699494845e-03,-9.799984542597833581e+00
-1.214541928374482079e-03,-1.306613362387606340e-03,-9.781712093586108381e+00
-8.062558586827540605e-03,1.197669250753630047e-03,-9.803217951207800596e+00
-1.092020199805924813e-03,1.680293593037220914e-03,-9.781326499555806464e+00
3.309308418628503778e-03,1.101976532641762638e-02,-9.795926471962237869e+00
-3.949091401329801808e-04,1.108416449520810941e-02,-9.797990446141504606e+00
-6.319594876511527848e-03,5.202694097103266295e-03,-9.790520560620564083e+00
3.432737708090420874e-03,4.344073978880289922e-04,-9.781312171091583352e+00
1.622460440002584329e-03,-1.015692677289893554e-03,-9.785570282592196634e+00
-5.592092435854002959e-03,-4.187325875354313870e-04,-9.785770771111989674e+00
9.548489559409661237e-03,-3.853202771322342384e-03,-9.788587650489548153e+00
4.192020273636363863e-03,-8.149111056489431737e-03,-9.795702516960323791e+00
-1.129602609462243036e-02,-4.722452202226093756e-03,-9.785929360709069158e+00
5.372447775065516788e-03,-8.364511733175497565e-03,-9.790700891491924907e+00
1.042749587460402739e-03,-6.455314161193831043e-03,-9.795244840315097790e+00
1.036475223659456650e-02,-1.870305791401818268e-03,-9.808154289651858093e+00
1.198089931285197668e-02,-2.265310466320518204e-04,-9.793163348945288504e+00
-1.275958360405454045e-02,-2.654965986397231706e-03,-9.788387796864247647e+00
-1.630124254162834598e-03,-6.685870164132817588e-03,-9.800826205521730117e+00
4.893485362475314890e-03,-5.597688651931150526e-03,-9.794640765243292080e+00
-5.600089096626291105e-03,-7.984606533577621752e-04,-9.805409959876657311e+00
3.718538636135581676e-03,1.576774466886113725e-03,-9.791304555872123672e+00
-3.082702301480958677e-04,5.912708986932719603e-03,-9.793058440106687357e+00
3.245538183917821579e-03,-8.034511270591236307e-03,-9.803379780683320277e+00
-9.837518664441512184e-03,1.011864841874346400e-03,-9.790682824520724026e+00
3.614501170098542021e-03,1.822558841287126932e-03,-9.793919528530251384e+00
-2.826845790102225538e-03,-5.369287265911720092e-03,-9.785655322587894389e+00
-4.516353510986738026e-03,-1.641072984840158844e-04,-9.812340686716012783e+00
6.675447196510636040e-03,-7.402960870304732023e-03,-9.790189702439878516e+00
2.658151697469144162e-03,2.941137246514148856e-03,-9.788021193616241789e+00
-6.859672414215675250e-04,-5.603896373896983391e-03,-9.785507329234985008e+00
-1.424430482419048571e-05,6.749913449331525726e-03,-9.786733764841644145e+00
3.915878163009571360e-03,-1.397094685423321599e-03,-9.792448133248942810e+00
-5.983779792598757511e-04,3.763180569401447951e-03,-9.792770166992726288e+00
-4.469305894259701685e-04,-2.318583171135207063e-03,-9.803715225953341772e+00
-1.769511749608957242e-03,-2.442134240524880713e-03,-9.797000061352914457e+00
1.137460089287469119e-02,-2.347924333256231136e-03,-9.775275391702290761e+00
-2.129577288697229003e-03,-4.050606738766377064e-03,-9.796578108012328201e+00
-1.147792033966087664e-02,-7.168471635932057058e-03,-9.806030698134122758e+00
2.114739635550573027e-04,2.169426362980732617e-03,-9.801740845399766755e+00
-4.687464489205980973e-04,1.055030874920334519e-03,-9.793788408192963146e+00
-6.725376782295805315e-03,-1.601951579475653989e-03,-9.790892346319310491e+00
-1.690417454351494193e-03,7.794825673608095536e-03,-9.797302604747642363e+00
-3.067791393936096685e-03,2.723762277103094175e-03,-9.785865633339069447e+00
-5.971747218730797703e-03,-2.562569015518390610e-03,-9.785325976734315034e+00
6.462275442241953091e-03,2.340492992820616090e-03,-9.793385599719135470e+00
-3.419810158928875393e-03,6.701702632916034172e-03,-9.774617522189348762e+00
-2.378205829616650106e-03,-1.033586048266624605e-02,-9.803710228095813051e+00
2.863375328986297874e-03,9.243123913253102055e-04,-9.778806344521481009e+00
-6.853845791865305868e-03,-2.512467511050970638e-03,-9.807172405922210956e+00
1.283022739754445356e-02,-4.479456609388353730e-03,-9.785962781358117368e+00
1.911957037268439844e-04,-6.245610900351633923e-03,-9.792240559524589827e+00
-1.080915982010544930e-03,-8.118408037094920586e-04,-9.798206798882230117e+00
-2.354383670430194257e-03,6.062099476754857427e-03,-9.797896322193009766e+00
-8.885407824707096999e-04,3.984590847308867693e-03,-9.799691814764129205e+00
1.049523353786168669e-03,-4.544713923278530590e-03,-9.783325365226879455e+00
4.303779267094510010e-04,6.643699605419700789e-03,-9.807473305869965685e+00
5.503716021040314750e-04,2.523654675286951749e-04,-9.810452043067865446e+00
5.621040555459803911e-03,7.949571153866445737e-04,-9.794524154077894451e+00
6.753524686449528629e-03,-4.529412902504227623e-03,-9.800336615757641923e+00
-3.918470299561317011e-03,5.352790128971182324e-03,-9.779772796980793714e+00
-7.974637157996941617e-03,7.646444157354497992e-03,-9.789954237398118764e+00
5.689263514157661718e-03,2.685613367213199841e-03,-9.775544686524584748e+00
-2.872996193386787977e-03,-8.845221737165289214e-03,-9.796470752691964989e+00
1.100200308022565533e-03,2.185099215809011095e-03,-9.791760788995532039e+00
5.874710177847224796e-03,4.826324001026434038e-03,-9.789245139961602504e+00
-1.299342684953264018e-03,4.373132135187684025e-03,-9.805950405317213736e+00
-2.966728517263512478e-03,-1.590467155804333116e-03,-9.795221665541706813e+00
1.264478460362045175e-04,-5.650163416549869831e-03,-9.779367624383029423e+00
8.073027647341093904e-03,1.576146600367380000e-03,-9.803115137671662538e+00
-8.859820988915998591e-03,-9.891896301300813141e-03,-9.786615013128036722e+00
3.937344220165847099e-03,2.999900024826980104e-03,-9.796492993793703974e+00
1.227335832931838490e-02,-6.728307905377831077e-03,-9.807312578860369001e+00
4.393816110083651437e-03,8.789036126249942862e-03,-9.801214506544967620e+00
3.194081909309339287e-03,1.794043803468035967e-03,-9.783143438807222481e+00
-2.686758226602775201e-03,-3.924257308387055915e-03,-9.789643145944332048e+00
-3.077689471004916265e-03,-4.278888594658492375e-03,-9.793986285641148370e+00
2.699596612383136241e-03,2.636152631900468262e-03,-9.807458807262783296e+00
-2.439755078425021734e-03,-5.579389030345494917e-04,-9.800524840576917640e+00
-6.293710187210472921e-03,3.785431564763325641e-03,-9.792660059177238807e+00
-5.033201198141959605e-03,-3.887514475570308728e-03,-9.791223420366410579e+00
-4.696118323647675494e-03,6.455065707849161512e-03,-9.798089054936445663e+00
-4.988421473861267760e-03,-5.032328398680410708e-03,-9.809573994539659836e+00
-1.018845862409075050e-02,-9.816797249179779177e-04,-9.795847638385847489e+00
3.328017519716737049e-03,-1.060326671011841554e-02,-9.790149401423864362e+00
-3.130183195888048761e-03,-7.848641492017643592e-03,-9.791236168123997885e+00
3.040264968903335155e-03,-4.777291823286185235e-03,-9.779776821870525438e+00
-9.069729914583697303e-03,1.299745703418351715e-03,-9.794308029023417461e+00
-5.299610666989721004e-03,7.985520235855936635e-03,-9.791636166784945416e+00
-3.108799836021750723e-03,-4.610039406819975080e-03,-9.784434474751208199e+00
2.062019327129454118e-04,-1.132190287375466889e-03,-9.808622162825825441e+00
-7.771781143901563150e-04,-3.368616109079963002e-03,-9.787778284280070906e+00
-5.224435308229511722e-03,-2.154141683043124707e-03,-9.802939776016540208e+00
-2.828003877274927122e-03,-7.193304465612582535e-03,-9.789413497911711559e+00
2.496170700070890827e-03,-1.834909465428519963e-03,-9.802573785961653741e+00
1.532962085996736551e-03,-6.616755761251810058e-03,-9.792760680927804273e+00
-6.779446713907317547e-03,-5.458820469087604342e-04,-9.804478855568694584e+00
-4.699871372168588045e-03,-1.577608294180085548e-03,-9.792213745327250862e+00
1.116257026148485820e-02,3.352413187885321718e-03,-9.805291997430407136e+00
-6.667342854409855947e-03,1.314314993323356098e-03,-9.804656570177829877e+00
5.759194392693488436e-03,-6.027746214414722147e-04,-9.804386184943552962e+00
-3.342775180165940847e-03,-1.933701739814616162e-03,-9.799434504221704145e+00
5.009710525235213513e-03,1.074256148215116174e-03,-9.818161195510082706e+00
-2.975385715086563843e-03,8.088741722953637914e-03,-9.813128914111693746e+00
-1.656271499830486204e-03,3.829420941618688016e-03,-9.791391896523744975e+00
3.190730666856036665e-03,9.835039722354575742e-03,-9.787002764507176877e+00
-4.507457770028303577e-03,4.109619607316723940e-03,-9.803065150813285555e+00
-6.337092964643174266e-03,8.513311830558721593e-03,-9.790469219201806794e+00
1.956485035122694244e-03,-6.371467142786224266e-03,-9.799127526972768010e+00
-5.010086289382788965e-04,5.206144479584277028e-04,-9.778419398569859311e+00
2.064326916969499905e-03,-1.303775546831330984e-02,-9.797883992906536221e+00
-9.463416435583493422e-03,-2.429710702592513104e-03,-9.810452575502763395e+00
-3.642961112240310911e-03,-7.917763257878307438e-04,-9.793044925923345190e+00
4.911398901133175003e-03,-7.113887525348649076e-05,-9.801213138693050553e+00
3.890026847742710219e-03,-3.000906473344722592e-03,-9.789485454716251311e+00
-6.198551369470766109e-04,-4.233393308182461763e-06,-9.807244448727976405e+00
4.962192396970750360e-03,4.257856175434532320e-03,-9.791916811762387596e+00
9.375337903883974693e-04,8.762278346687172106e-04,-9.801546635311812139e+00
-3.299864358132793395e-03,1.228438002393692809e-02,-9.788611249688102589e+00
9.444996084149248974e-04,4.133549185490306525e-03,-9.795120969576950998e+00
-7.824063517247025618e-03,-1.266982488887117425e-02,-9.800286875989172586e+00
9.084863691673608676e-04,-1.745039090220856272e-03,-9.806257292850494522e+00
-1.357459316397306075e-04,-1.411830123443848879e-03,-9.787639149320005671e+00
-4.253735387533020239e-03,-6.864572770583960565e-03,-9.787967605859513753e+00
4.055488376376001868e-03,5.001618604558366252e-03,-9.797824605502700734e+00
-1.917160494358040182e-03,2.727463074007286043e-04,-9.785312629040420873e+00
4.786891976211479424e-03,8.141506236855444723e-03,-9.802570432425266489e+00
-5.439215676855083982e-03,3.699457887060167254e-03,-9.796524878770769718e+00
-3.629482949384558229e-03,2.294851631969334164e-03,-9.804959723826568663e+00
-3.381248924683928278e-03,4.384437235684639049e-03,-9.800635006443965125e+00
-4.927945723630148406e-03,-2.353974755352121560e-03,-9.791970717525270373e+00
-6.224541813547381256e-04,-4.379946989588256838e-03,-9.801087971344742300e+00
-2.685872585663231626e-03,-5.536283432339288851e-03,-9.780465059309866760e+00
1.381350315631618654e-03,2.047571129933520306e-03,-9.797607788114778060e+00
1.030599827736556305e-02,4.696490884455147355e-03,-9.790547286189092091e+00
5.349011131718200453e-03,4.103955096269133566e-03,-9.785683681241570397e+00
3.712964414131898934e-03,7.801990636042932482e-04,-9.804990177532170392e+00
-1.559440542686884841e-03,5.354281047598856945e-03,-9.785482489206895451e+00
5.226043705000413611e-03,-6.421725793489879361e-03,-9.787222098972248929e+00
1.139415675905635890e-03,8.277834390042088444e-03,-9.800524381900256543e+00
-1.559251894142312975e-04,-2.776796328961793348e-03,-9.795163567560306817e+00
3.524590788643457151e-03,8.371769878439657211e-04,-9.785276256082980240e+00
-1.203752735424677310e-03,9.395320558499436342e-03,-9.793446286523106892e+00
6.609681419071232640e-05,-6.024302398345077886e-03,-9.790953418782393669e+00
3.237780877125417869e-03,1.286671268511403558e-02,-9.799763230462607666e+00
1.365640237810607357e-03,-9.943297908364203547e-03,-9.793340511437707008e+00
6.145557617903939229e-04,2.255224573848403700e-04,-9.795122859503946344e+00
-6.281568061133841439e-03,-3.576400733483651399e-03,-9.793230528118014533e+00
-9.929189806096958004e-03,1.691262964742544766e-03,-9.795632960125599809e+00
1.479179964348365222e-03,1.646275920959285391e-03,-9.796861158545253190e+00
4.807556047797292322e-03,-5.332120725941701805e-03,-9.794592321081951880e+00
5.805277590107265316e-03,-2.180482574226887040e-03,-9.805658435038976606e+00
-2.702729145915442558e-03,1.052078814271780989e-03,-9.804649821302112045e+00
5.538278930243938081e-03,8.489698688277716454e-03,-9.802475931243703755e+00
6.655971697115691020e-04,6.179902742716391999e-03,-9.798041277848696495e+00
-4.243799804862803497e-03,-8.582654727672965611e-03,-9.788614221185635955e+00
-8.538261524731702648e-03,-8.363648416251358254e-04,-9.800680682530472865e+00
1.367934059343924643e-03,5.406210296675128743e-03,-9.801448921976579243e+00
-4.858634351078161898e-03,4.058911700123712593e-03,-9.796123256711789296e+00
-3.451178394711999472e-04,-2.524717285568244506e-03,-9.795313208077255140e+00
8.751860875919113478e-03,-1.381930549942089444e-03,-9.799557637081244721e+00
-7.737822830407137904e-04,-6.875019729071886639e-03,-9.789786972431191003e+00
1.036646710074551900e-03,-1.272446157579430184e-03,-9.794616119185452163e+00
-1.548523524384343023e-03,3.441021617861628017e-03,-9.786109300728027094e+00
-6.145250319682616855e-03,-2.874232428830696216e-03,-9.799417514777491789e+00
-4.352799775477061441e-05,7.313381038445395180e-03,-9.802428306755524900e+00
4.220584353080301422e-03,-4.023607050057127939e-03,-9.789881136213100632e+00
2.789165956459693264e-03,-3.386762872208229445e-03,-9.787132579962811718e+00
3.644833558946973442e-03,1.041741173951253900e-03,-9.778865157385787654e+00
1.998206661908362523e-03,1.562285161903986753e-04,-9.802913667975042600e+00
-1.525933758529852795e-03,2.489179419322640630e-03,-9.779012131624980952e+00
1.223529713844718038e-03,-3.884930966322712800e-03,-9.799704687512532431e+00
-8.824112964423135377e-03,2.895058634979614728e-03,-9.796821424820215896e+00
5.324110141608723399e-04,3.016692432883168618e-03,-9.798360207321499260e+00
-4.514227061409358498e-03,1.040444617031386666e-03,-9.781156775915107460e+00
7.508127477350782022e-03,1.042329866255621573e-02,-9.793919613577790173e+00
-3.460488174882650741e-03,2.883201075825107210e-03,-9.790483703466705379e+00
1.042717099155158686e-02,3.343395105532208714e-03,-9.801500713092801575e+00
4.020190134337896584e-03,-5.961991477871592809e-03,-9.798336620940284902e+00
4.096215240129037587e-03,-3.204217930552247760e-04,-9.794993568985844945e+00
-7.880832504812357656e-04,-3.416424181340463849e-03,-9.778965789287479282e+00
-1.995821409974067335e-03,4.425157850594201286e-04,-9.783415445312726888e+00
-2.330458092398271855e-03,5.597585085526433565e-03,-9.805189602915493907e+00
-2.268372714508837783e-03,-4.388290659874779370e-03,-9.798789070549732472e+00
5.700359240975300806e-03,4.826002957361098626e-03,-9.795269420881657751e+00
-8.893062937072453459e-04,-8.830060673305538746e-04,-9.798166412105247858e+00
1.059694630169975144e-03,-5.589777280408869502e-03,-9.794829656836485654e+00
-4.229420022858870732e-04,-4.484565266914007642e-03,-9.779888859262500844e+00
3.889748855822020186e-04,-2.608432101852564949e-03,-9.790977357463846786e+00
-3.785164502101355435e-03,6.608329705286938686e-03,-9.783712319111572242e+00
3.490668364232805965e-03,6.388538821134381006e-03,-9.791533426365292669e+00
4.880362424008951282e-03,9.973874456104226197e-03,-9.778144040910961010e+00
8.954851955011356888e-04,1.854727665591260517e-03,-9.796574992083145972e+00
-2.804409376398424910e-03,6.094583733865580055e-03,-9.802665459525190528e+00
4.324130374664095569e-03,3.570190436364553428e-03,-9.797082174264573950e+00
9.560708457174309921e-03,-7.535952998032965575e-03,-9.803540016312380700e+00
-1.842740099078866902e-03,-9.263463487535724891e-03,-9.784657970935203508e+00
-1.093179488309239700e-04,-9.581867566709355646e-03,-9.805527893770651815e+00
-4.180454250395982708e-03,1.146321007378035481e-02,-9.798107765309339356e+00
1.512545491209266527e-03,3.333312075182383056e-03,-9.794138153032882599e+00
-1.267400032112398368e-03,8.271943888868341479e-04,-9.788181905303222408e+00
-6.267336261699703174e-05,-1.401799453265273202e-03,-9.784648467736667854e+00
4.467162023986726883e-03,5.081720238459178259e-03,-9.796954291061954478e+00
1.029394156485934249e-02,-6.774347684923513312e-04,-9.793980555467864946e+00
6.320964327297639608e-03,4.162585845842120200e-03,-9.791897179541436458e+00
-5.504254112659869372e-03,-6.613842259628301481e-03,-9.798573289784677343e+00
-5.923418711206914281e-03,-6.083830536086169954e-04,-9.783426103868839263e+00
-1.168937136821436009e-03,-1.722663264908545116e-03,-9.796975128158365465e+00
1.226353139051169355e-02,-1.653951298250510779e-02,-9.792114713405821291e+00
-4.857388436313091694e-04,2.430841504352413557e-03,-9.793402734113904273e+00
5.076165250519133754e-03,1.977285477457943041e-03,-9.809872525100329810e+00
4.052994747641589131e-03,-5.688309067914070101e-03,-9.791774314597189388e+00
5.920615790513041911e-03,-7.182919397795865975e-03,-9.786200950517876862e+00
-6.456336128223472658e-03,1.961398182190406472e-03,-9.795769214908622402e+00
3.745653595658210953e-03,1.743596597188721686e-03,-9.806643648583333928e+00
-3.242050418764722778e-03,8.855610936069967937e-03,-9.795004071929762191e+00
1.563505408150803536e-02,-4.828516902027796785e-03,-9.800564000307939949e+00
6.754206229154183921e-03,6.235377693154641604e-03,-9.788901558813011050e+00
-2.245230941278754128e-03,1.844873703882069947e-03,-9.778691347624306474e+00
4.431400015578320153e-03,4.529892825990952492e-03,-9.779675352855306869e+00
-6.347371826380805888e-03,-8.802269411412088143e-03,-9.791600427379693272e+00
-2.567848998663982852e-03,-3.317495112751444523e-04,-9.781996989508783713e+00
3.421310069783520865e-03,-8.868367223880303449e-03,-9.807622453868264145e+00
-7.240017417888855097e-03,-6.055526122262261824e-04,-9.795725020356019996e+00
-2.080323037258759254e-03,-3.693242588970083434e-03,-9.783207127590864971e+00
-1.436893410397976044e-02,6.208223526546167038e-04,-9.796592207369700489e+00
5.828832378463385134e-04,3.552735807282386346e-04,-9.786169900173739222e+00
-6.368114180094808230e-03,3.856328391793768014e-03,-9.802337695183375388e+00
-1.918889622875086156e-03,2.576095589067147959e-03,-9.788022216404590026e+00
8.786936803972199977e-03,2.372065235652139319e-03,-9.797013452095088226e+00
3.307480425991036511e-03,-3.080718716379066829e-03,-9.789720376811390068e+00
-3.603541696339328682e-03,3.700332696952429983e-03,-9.779258522983564461e+00
4.261823148459433636e-03,1.034008569487704062e-03,-9.793227525146068757e+00
-8.195271715945773219e-04,-2.132295978776701378e-03,-9.801631357612313522e+00
3.017388333863206800e-03,-4.876326812506132091e-03,-9.800629499904168540e+00
5.286268349560321878e-03,-2.725888360053565183e-03,-9.800810293022610864e+00
-8.411280463771521332e-03,-1.766679829538332505e-03,-9.782273025636747832e+00
3.824043582672615078e-03,4.121590705014248866e-03,-9.799156328382579773e+00
9.750021482642054135e-03,3.200066342906280302e-03,-9.794809988117897603e+00
-4.879552257464342922e-03,2.471532999993063858e-03,-9.794015701479247937e+00
1.462837738380120699e-05,-3.231588308548563517e-03,-9.794341302834972396e+00
1.077671837235932373e-03,-2.960303452691654628e-03,-9.800443454706064372e+00
2.662390057702314437e-03,-5.111093632797786106e-03,-9.796349241861420865e+00
-3.416803487988642057e-03,3.238699892867907913e-04,-9.790166727275654068e+00
-4.141417747756690436e-03,3.324972786979780645e-03,-9.805855857379381035e+00
1.726098859600551838e-04,-6.272562755250079246e-03,-9.789487841011711211e+00
4.149370708469648388e-04,2.067383641461603781e-03,-9.790647850217954584e+00
7.948097052635962750e-03,-8.588583440441957539e-03,-9.784473984768961685e+00
-6.569140975491743160e-03,1.284954924138935299e-02,-9.789969151499279931e+00
4.391252957649798006e-03,-4.216941866747849800e-03,-9.788255194386222158e+00
7.820574040074100564e-03,3.782439641263415919e-05,-9.793510098017392806e+00
-3.465307633719268404e-03,-1.093823370248040404e-02,-9.804440245736744330e+00
-2.204459896760383592e-03,-8.587917784955883746e-03,-9.790941395537414493e+00
6.712849652799952882e-03,4.231551451726003020e-03,-9.804588025080379410e+00
6.401219042316219632e-03,7.697854027569860091e-03,-9.781038498773302337e+00
6.871503360316165952e-03,-4.469200062445870952e-03,-9.798269018350872273e+00
2.253100279912042831e-03,-1.144670200464134634e-03,-9.800142554504750692e+00
-8.433266312808694121e-04,-6.216265771058771851e-03,-9.813289050896148780e+00
3.371516372801789188e-03,3.361739072883558437e-03,-9.809125776134425934e+00
5.177658963386292529e-03,-5.075606597925513656e-03,-9.801450697666203027e+00
9.399869805885027046e-03,5.363581053711362692e-03,-9.797249701251143250e+00
4.394397118704586498e-03,-1.089692722523409769e-02,-9.797134248884390217e+00
-4.770796214116801437e-03,8.005766143057087975e-03,-9.788822933007779170e+00
-3.218650979803616696e-03,6.782578029417289829e-03,-9.794364245913598666e+00
1.640755457831904963e-04,-6.165907839296265285e-03,-9.791543182062547146e+00
1.215475055686175525e-02,-5.254590035882732504e-03,-9.800265230537052119e+00
-9.389960474470785941e-04,-4.628393722083921046e-03,-9.791946561621324818e+00
-4.176426629284197244e-03,6.954800044187057356e-03,-9.802589194198711553e+00
5.366462707973948358e-03,-3.591320139637175796e-03,-9.792184468063954483e+00
-3.715294770444443114e-04,4.399237224763347109e-03,-9.799868634073973794e+00
2.149216289739797059e-03,-2.064595287757390631e-03,-9.783910092303157668e+00
-7.604204873393707008e-03,1.693440342893605052e-03,-9.816265850047866337e+00
8.405970767395283191e-03,-9.887486301816628131e-03,-9.799028896240594477e+00
-8.753026960817460872e-03,7.619958741174562289e-03,-9.790176731591502701e+00
1.376706311161742143e-02,2.050082805543873739e-03,-9.790004886970621101e+00
-6.553310754453545335e-03,-1.805854787689315432e-03,-9.800825259669467826e+00
1.851862089958698169e-03,3.665253560971122680e-03,-9.788386857950730047e+00
-1.058546928884462239e-03,2.276529196268145191e-03,-9.791930737106222082e+00
-2.813813469802232893e-04,2.328493230218715241e-03,-9.794213713673730837e+00
1.011654067332574090e-02,-7.156643275919188397e-04,-9.791891685443673055e+00
-2.555532647629471434e-03,3.046239914111527423e-03,-9.793684261010650260e+00
1.471253610288208373e-04,6.170503014366633459e-04,-9.787402674602766695e+00
-1.332978949118538044e-02,-1.291300154388207297e-03,-9.806814324458303034e+00
1.198707975790706077e-04,-5.485253194679689734e-03,-9.785423791885284217e+00
7.121594971975992068e-03,9.418496525065730637e-03,-9.788821617229181982e+00
-9.000078736568125834e-03,-3.304482337817099893e-03,-9.804980832415846947e+00
-3.129327448423101492e-03,4.725887700164382865e-03,-9.791032061057551417e+00
3.589722468240657237e-03,7.231244234026417556e-03,-9.805177546231364616e+00
3.617144700119064374e-03,-3.617819528778035555e-04,-9.782517396246722896e+00
1.451959596985349238e-03,-3.992329014063725201e-03,-9.792965010540683579e+00
-9.386313339191598715e-03,6.114794543672259775e-03,-9.800259081602188616e+00
2.587060516169625672e-03,1.722780932459469592e-03,-9.799202920542837703e+00
7.243879070058109430e-03,-6.872737875241559206e-03,-9.800786931332487129e+00
-7.111696025184910397e-03,-8.765711236557028121e-03,-9.799882182756014970e+00
-3.810857207726542524e-03,5.012793680929938933e-03,-9.787923232654588190e+00
-6.740490480864141064e-03,-2.263259642160105143e-03,-9.788145944750137772e+00
-5.407740381882714976e-03,-4.122016028779705230e-03,-9.798206867518620911e+00
9.565474202610380755e-04,1.003161862271483842e-03,-9.793570815064112978e+00
7.107938800338486733e-03,1.604610828131713127e-04,-9.792026982724717499e+00
1.514040585557641788e-03,-4.277927224061550508e-04,-9.797813275900512764e+00
-1.012899804071933259e-02,-5.634633922526339177e-03,-9.798732618294186736e+00
-2.531064285219393646e-03,-2.142976397067195959e-03,-9.797975552029820179e+00
-3.930464249126033871e-03,-5.183308808659982912e-03,-9.802130982923229041e+00
1.209192569094326777e-03,-4.253380005001798636e-03,-9.792160866320203993e+00
2.078076600576848117e-03,1.562835831051007139e-03,-9.790663139677986848e+00
3.440136072729791262e-03,4.185869969235470577e-03,-9.789388705483256459e+00
-1.693322845500350214e-03,-1.067773945207477117e-03,-9.797183246757960262e+00
-1.717665895434102464e-03,4.991791848200905976e-03,-9.801801838072996986e+00
3.696459545280723815e-03,-7.909237535422641938e-04,-9.796557024487244192e+00
8.558877352337677588e-03,-1.483214269327705814e-03,-9.785506336212433709e+00
1.826966400682471974e-04,6.479598834090835938e-03,-9.796633369318442419e+00
3.062295848983986879e-03,-4.760514899725468152e-04,-9.796553541779999819e+00
1.151203383394413388e-03,-3.065292758542840362e-03,-9.789843917231294768e+00
8.305831900565746606e-03,4.516347187038759030e-03,-9.797353224066325694e+00
-4.515446546779985112e-04,-2.978932958372825651e-03,-9.784943628769040558e+00
-4.143036147044574548e-03,-1.845443336391248620e-03,-9.789332586574312600e+00
-1.123919498138000080e-02,-4.677029669746830993e-03,-9.798599369386328917e+00
1.838747201550559179e-03,-1.942787080828100796e-03,-9.800585742405283796e+00
7.134311113730129649e-04,1.174229469738288789e-03,-9.787351707133639778e+00
3.909112946467985759e-04,3.535646742745892062e-03,-9.791620852284511400e+00
1.193501229798954281e-02,4.345613986987211484e-03,-9.796046256531715457e+00
-9.126609424052380820e-03,-1.413850753701027666e-04,-9.791338338336583291e+00
1.861559199294762160e-03,-3.590119097425782842e-03,-9.786867551406791321e+00
4.105127301402046631e-03,-3.804139934736944424e-04,-9.798448788970150147e+00
2.743305624448472233e-03,-1.283027025032549119e-03,-9.774559273277924731e+00
3.141347694522175077e-03,3.584586179656003898e-03,-9.786649132166234111e+00
3.367861360100554615e-03,6.465640875817209483e-03,-9.781817202588856119e+00
5.959581636275109907e-06,1.904325832859037710e-03,-9.792347033857968341e+00
-3.181710861468091660e-03,7.437480974783384005e-03,-9.800651298288491020e+00
1.201421913416737298e-02,-2.085487554098868369e-03,-9.784933385181032506e+00
-1.172085235327048440e-03,1.771812016061072390e-03,-9.789991901353550574e+00
6.105666599704166579e-03,5.027001581740447173e-03,-9.795066576676187964e+00
-2.122976993224241510e-03,3.893521159420926595e-03,-9.799382417170596327e+00
-1.085796771682016014e-02,-9.217333072009177997e-04,-9.793647447683992979e+00
-5.416087050788040425e-03,-1.108548230369455281e-03,-9.796818857793999413e+00
-6.924356532399730639e-03,-7.882443309937256027e-04,-9.797481840970378997e+00
-2.956183412987463486e-03,-7.023344831293651044e-03,-9.774326653370302154e+00
1.847417411513151532e-03,4.484770237363021501e-03,-9.799247673733791686e+00
2.240272887155118214e-03,7.503789882947661458e-03,-9.781348718411722487e+00
-9.206194042979896561e-03,8.608179210761399960e-04,-9.787254451671913102e+00
-1.604172290580005000e-03,8.874619997160416995e-03,-9.800497343846656051e+00
-9.575655495107918830e-03,3.491071535292103716e-03,-9.786602464461864770e+00
2.811099586813112054e-03,1.218024565623985426e-03,-9.797334084928758458e+00
-9.046899329217027511e-03,-3.590012919596696165e-03,-9.784898134462249430e+00
1.010117905550203865e+00,1.787075725192542900e-04,-9.802810510241290132e+00
9.981512120377328268e-01,-4.075130303271068573e-03,-9.800090907042005028e+00
1.001679914509687075e+00,-2.795183972073718090e-03,-9.793478251848421579e+00
1.005077724409248141e+00,-8.223145539000279586e-03,-9.805265920868773577e+00
1.000042473396002940e+00,-1.103000514030263481e-03,-9.799264486742050195e+00
1.003882764174891529e+00,-5.031892915835032426e-03,-9.787557843905290156e+00
1.002463481624459973e+00,-8.984595036361408410e-03,-9.816710930855629513e+00
1.004030054724188714e+00,-1.026412100779691434e-03,-9.798779107566302216e+00
1.006699657785940616e+00,-7.443726002290152778e-03,-9.792308536232273042e+00
9.993656859889267219e-01,-1.397506571271115014e-03,-9.793911349702639768e+00
9.993693278964516091e-01,8.039871999469533695e-03,-9.794876479086465082e+00
9.996093322857871888e-01,7.612561555933944823e-04,-9.785644648278267965e+00
9.947848308553408625e-01,-5.022933964112416029e-03,-9.788696671026386298e+00
9.974490988017984394e-01,8.608089794753460283e-03,-9.811334480642171840e+00
1.008442376874006285e+00,-3.245171510862693547e-03,-9.788915251354406877e+00
1.014754962385068904e+00,5.012219544410383143e-03,-9.791098214738813255e+00
1.000535341601877848e+00,3.377004761118318835e-03,-9.807413357956113131e+00
9.930425567778031759e-01,1.757786180910893151e-03,-9.783672285285319958e+00
1.000403782358550098e+00,7.159001904597059492e-03,-9.790602483347235818e+00
1.003233494818585481e+00,3.669729207828099828e-03,-9.790792806135387494e+00
1.005242709212903929e+00,-6.653515195689856283e-03,-9.786536212275233737e+00
1.001887433972238117e+00,6.305194206619212267e-03,-9.787876316506185503e+00
1.008333967411942922e+00,-4.636837977606648835e-03,-9.791388437956607405e+00
1.004435643163505976e+00,5.795547367967645788e-03,-9.795715599443509447e+00
9.977850047325386162e-01,7.876503367096911873e-03,-9.810947779230684063e+00
9.935979455388588288e-01,-1.413503445969039240e-03,-9.798151414381100821e+00
1.007074430306080126e+00,8.112670299135962956e-04,-9.782897141926857998e+00
9.986574374661951747e-01,-7.802393038419812602e-04,-9.794125402501144606e+00
9.926280087998912149e-01,-4.653050464703123792e-03,-9.797961049616745299e+00
1.001626198703185366e+00,4.162008541311710760e-03,-9.787545846718112230e+00
1.009286461810070978e+00,-2.941985805332451593e-03,-9.807229456021644864e+00
1.007888254530864725e+00,-3.347875226833972335e-03,-9.796157221949341576e+00
9.988146600072044246e-01,4.886057058014953158e-03,-9.790419568478787582e+00
1.005252609827676391e+00,-1.744934977339717688e-03,-9.804249484012816040e+00
1.002935337526309478e+00,-9.069150260735838950e-03,-9.793383265649222125e+00
1.001859300447620615e+00,-4.444644246552380273e-03,-9.786383245121394125e+00
1.000549920577069152e+00,2.111134120447658979e-03,-9.784993071774289675e+00
9.940188418481258337e-01,-5.152592493026336880e-03,-9.784182914891632166e+00
1.002026431324578581e+00,-9.061474285370839344e-05,-9.788713912591978428e+00
1.001349218720053447e+00,-7.683498644535723815e-03,-9.807109691453366196e+00
9.946197183477412107e-01,4.130513351957906115e-03,-9.796972988462858467e+00
1.003304758947173747e+00,-2.805529227465662374e-03,-9.789329237096541902e+00
9.996482803331634415e-01,-2.435020766234342882e-03,-9.793449413105665968e+00
1.001499321871324844e+00,-7.496009965778519316e-04,-9.805603211589463797e+00
9.956215674510862090e-01,4.422840754996592086e-03,-9.800785347955653037e+00
9.951811251888289522e-01,6.532081192553399352e-04,-9.793537114807827848e+00
9.921280294875358674e-01,-1.780211024938828206e-03,-9.784356922950168567e+00
9.964069020751153971e-01,-4.422289378038874114e-04,-9.802892811105396120e+00
1.003803186307655082e+00,-1.331254825991909233e-03,-9.797830561225547186e+00
1.008353465437729746e+00,7.766006683044633652e-03,-9.785466159688470000e+00
1.007024608832213231e+00,5.329091030538354173e-03,-9.771813187493048503e+00
1.005671794088891513e+00,-8.565524078400535771e-03,-9.770931659174388884e+00
1.006493011018704697e+00,-2.503786001902261801e-03,-9.788615175697017889e+00
9.923105953773021515e-01,-1.610720438838345939e-05,-9.795833644988315214e+00
1.000438931272049858e+00,3.096388055340803494e-04,-9.791129943560585858e+00
9.904888363568713494e-01,-9.930271585290081221e-04,-9.793140382305416836e+00
1.005955722390099005e+00,-5.285862241872536435e-03,-9.800548854873101234e+00
9.996857358501196611e-01,-5.003254464583847469e-03,-9.789709428304735894e+00
9.942680763525542087e-01,3.891889616193740502e-03,-9.789637651850943811e+00
1.004509106806446006e+00,7.113359967387466662e-03,-9.800940064102348970e+00
1.000709851863090583e+00,-8.265804866479709023e-03,-9.798662054794714749e+00
9.968734203499485247e-01,5.382743211684019218e-04,-9.795132905370643073e+00
1.002418817979765286e+00,4.853932116015572187e-03,-9.789591810358940549e+00
1.006611484638450849e+00,2.300261734237028007e-03,-9.791158275749511475e+00
9.998827756762364016e-01,5.691120732679209003e-03,-9.807915472275496427e+00
1.000102593110282712e+00,-1.217268436453796190e-02,-9.793715647917505152e+00
1.005058824643764614e+00,-7.309148706068503698e-03,-9.793466689806251679e+00
9.944583307138445960e-01,-2.225010755639613737e-03,-9.795079650135466665e+00
1.003402615255225783e+00,-2.395997627861630279e-03,-9.812004929450958812e+00
9.948449846112954464e-01,-2.826760162920009724e-03,-9.792303107443666832e+00
9.985148282973033140e-01,-1.282293273893370328e-03,-9.779123902087603071e+00
9.958690973461101770e-01,1.820572758694185720e-04,-9.798254873366211370e+00
1.005220657600943701e+00,-9.004944472142329542e-03,-9.792576127638721317e+00
9.898781116807101599e-01,3.087403848957694791e-03,-9.787346841792036400e+00
1.001476601481860795e+00,-5.911593702463345014e-03,-9.796703507867762895e+00
1.001935773001661145e+00,4.241031207971026826e-03,-9.793529674150317277e+00
9.950071697812307159e-01,-1.896842939274478220e-03,-9.788170538206031779e+00
9.968639476433287516e-01,4.467913263465568378e-03,-9.794333537851933613e+00
9.986801996862486597e-01,2.385960900514701340e-03,-9.800306851108731010e+00
1.002206059998499432e+00,-5.021705499976019576e-04,-9.800871136667513639e+00
9.882267320884560169e-01,2.222974719408972455e-03,-9.802012662331451409e+00
9.974276998733657695e-01,-1.214670539538977457e-03,-9.799669030352433197e+00
9.901553141553188775e-01,-5.634656788721317464e-03,-9.787753034309355726e+00
1.000935640039813945e+00,1.227219638056177868e-03,-9.774540967624007592e+00
9.869116217501344712e-01,-5.352117862330352076e-03,-9.793427401554195555e+00
9.938779741476544416e-01,-2.234104743513959813e-03,-9.796208899729846209e+00
1.003941845509402908e+00,1.845289281718791308e-02,-9.800772294352464442e+00
1.009911863040357627e+00,1.341965925840107573e-03,-9.789521369275650642e+00
1.003863216568956052e+00,-2.202390570591422018e-03,-9.784315649979374641e+00
9.955531968672149956e-01,-7.881747766828262058e-03,-9.795746522933599820e+00
1.003384053639227336e+00,-5.409011404759869746e-03,-9.789749300320607972e+00
1.003402157561813501e+00,1.432047933712716613e-03,-9.799308225952735540e+00
1.005948481469488565e+00,-6.518783821383367788e-03,-9.816709848274530970e+00
1.009139332301272063e+00,-3.898670930801536889e-03,-9.784565504687364523e+00
1.001629776542378503e+00,7.994067291822061841e-03,-9.796498433603405331e+00
1.003186283908925169e+00,2.939067482622529683e-03,-9.796322403315787852e+00
9.897271898258536149e-01,7.192503326229212311e-03,-9.778837102756634536e+00
9.940153017545700909e-01,-9.192223548231649114e-04,-9.783561070130023296e+00
1.000758242493581029e+00,-8.080430032393386358e-04,-9.793666614742731369e+00
9.991264327890601038e-01,-5.445545442474239092e-03,-9.785014022080829932e+00
1.001701150476797419e+00,1.909904395464439002e-03,-9.799492718376731304e+00
1.005998314173606634e+00,4.431156370100408984e-03,-9.798667874820697676e+00
1.001841142847679889e+00,3.772159608745444866e-03,-9.800954884010284474e+00
9.965745785270274659e-01,6.531672106522389519e-03,-9.791169404675594379e+00
1.004284760249920971e+00,-7.563201843987528601e-03,-9.801969137780284669e+00
9.988861635084067547e-01,2.808459938315529571e-03,-9.787923025755167927e+00
9.994340044909940657e-01,-3.046510497392025240e-03,-9.794885121139449424e+00
1.006550299663042436e+00,-7.524428835433377531e-03,-9.806794773834784706e+00
1.006419832076753451e+00,-3.514776514843089440e-03,-9.795069176875864869e+00
9.986559287709081412e-01,-1.877607569165966198e-03,-9.784011964609485190e+00
9.992721932336114943e-01,-4.046009723869150101e-03,-9.799006977810256203e+00
1.005031115556837218e+00,-1.988316533598972688e-03,-9.800205286419199524e+00
9.917508175072983212e-01,6.379113083538117887e-03,-9.809238337536600127e+00
9.922447500080908700e-01,-4.165953811496571224e-06,-9.788319519963401660e+00
1.006744886414365547e+00,3.661948077265123926e-03,-9.788814981636699386e+00
1.002312758279092497e+00,-6.965116304379178258e-04,-9.786211048480168984e+00
9.953510339795493822e-01,-3.300505477304115521e-03,-9.795312644224413390e+00
1.003944253651840146e+00,1.220613386078246362e-03,-9.805648578633519463e+00
9.968781633226997396e-01,1.378672679670348532e-02,-9.802133279863051385e+00
9.961318176125057988e-01,4.002560750064994982e-03,-9.791824462863296219e+00
1.003598715428161370e+00,2.023894879032737699e-03,-9.797046454410731187e+00
9.935197349941690126e-01,1.197391794263497978e-03,-9.809103860333559410e+00
1.003551978009498580e+00,3.619705634760204006e-03,-9.790250601326823343e+00
1.007791378054423648e+00,5.354821065841171767e-04,-9.787904640077695007e+00
9.967198359223459203e-01,8.837221269780331026e-03,-9.792619393694995011e+00
1.011592066114614719e+00,-5.399984081167793874e-03,-9.793116363054309659e+00
1.003125309471514015e+00,-1.143878653934001649e-03,-9.802701392424832960e+00
9.922273079792374162e-01,-7.006335959360328845e-03,-9.794574104735287889e+00
1.012159051431093193e+00,4.015852737902559678e-04,-9.797071570226853154e+00
9.889124766084439466e-01,-1.315518387712988563e-03,-9.782687045333133824e+00
1.008399468819331402e+00,-6.889134359815318916e-04,-9.779624156166434545e+00
9.959184384755255248e-01,6.200900666916313916e-04,-9.789982467987467629e+00
1.002878731412106594e+00,2.513977341761768763e-03,-9.796759116098410658e+00
9.971133014635042979e-01,1.751425371011172552e-03,-9.802969843619345980e+00
1.000237577741586170e+00,1.081291362968986661e-02,-9.800500770240880399e+00
1.009189373538885715e+00,-3.021188493316970345e-03,-9.792308313544426213e+00
1.002803410984572485e+00,6.754612223786213634e-03,-9.786652068759709167e+00
9.996033788866816039e-01,-2.677986104348673187e-03,-9.794889882455157348e+00
1.005581711218029195e+00,2.838460630109896667e-03,-9.794997147189134168e+00
1.004693242416761390e+00,8.697037439852314854e-04,-9.788053638169607495e+00
1.006247266740650570e+00,1.196600539889326742e-03,-9.787037579356844930e+00
1.001939695963586452e+00,6.900519409109598552e-03,-9.800651344361531514e+00
1.009680701202140485e+00,1.391219701597567983e-03,-9.805734052509327725e+00
9.975469831928672759e-01,4.339688092512160658e-03,-9.789372297545765989e+00
1.006154095184974340e+00,5.329249423582576445e-03,-9.798850987106368038e+00
9.996464497788031256e-01,-4.132703706277536179e-03,-9.795690636502802917e+00
1.010493736450690072e+00,-8.834901101970264736e-03,-9.786092531526653815e+00
1.001141318554065851e+00,2.777483258036290981e-03,-9.802016352033042779e+00
9.932713645745913089e-01,-2.963889843914360093e-04,-9.789621532018623284e+00
9.964278138411096775e-01,-1.617947491359115943e-03,-9.803853502054494129e+00
9.977485938820548350e-01,5.196985140295928406e-04,-9.783240929235153871e+00
1.005909243160618693e+00,6.677672592135423107e-03,-9.795879278136286672e+00
9.983106495282387804e-01,1.213296528415968120e-04,-9.806323359441849519e+00
9.998341261680544489e-01,1.478121735832853192e-03,-9.812930634908600069e+00
9.973644875301236334e-01,-4.288917543387796294e-04,-9.791770450417510929e+00
1.000844121124364383e+00,-3.859248156456577747e-03,-9.797586001628317831e+00
9.924902190375837208e-01,-5.194708241751402888e-03,-9.779592680016044426e+00
9.977009678865967901e-01,-3.213124040414302475e-03,-9.793804476985730645e+00
1.010345459230304055e+00,-3.896904360189805145e-04,-9.797828220872506932e+00
9.961046083002553786e-01,-6.565407760485268175e-03,-9.790971769439957839e+00
1.003312149420889421e+00,-7.553667486810778341e-03,-9.800967742855439369e+00
9.953629191364489204e-01,-3.027653503789160070e-03,-9.791302038463070900e+00
1.002872284001610215e+00,4.110803870250748747e-03,-9.790070686568784097e+00
1.006053673380254976e+00,-1.534604230575438693e-03,-9.789401594314584898e+00
1.001940310565241132e+00,6.597863073209080977e-03,-9.790707087246863338e+00
1.005091384465352178e+00,-2.965423287649353572e-03,-9.791253173122804299e+00
1.008241600625642054e+00,-1.830181957448179068e-03,-9.789558404844896700e+00
9.991694821037083729e-01,6.501450107073540770e-03,-9.803798261322764773e+00
1.003083729845892336e+00,4.420012192081552993e-03,-9.806246276874396983e+00
9.987239913304140071e-01,5.715831028209483571e-03,-9.788578826180406978e+00
1.005142029429150874e+00,1.470828379668867722e-03,-9.793106869631106548e+00
1.004772553114605893e+00,2.415511599837269225e-03,-9.784812007657274435e+00
9.998400040525307064e-01,-8.362070145626062734e-04,-9.775441797990577442e+00
9.962943909772710160e-01,5.231165599249481928e-03,-9.793958233785941658e+00
9.984189630474590293e-01,-6.945348777724486868e-03,-9.795335679159153486e+00
1.000592462331041155e+00,7.993537460947003001e-03,-9.788417358477374819e+00
9.925744124463322660e-01,4.828459102093624576e-03,-9.794021589535935490e+00
9.973966193112311363e-01,9.719193225747107742e-03,-9.792078576780980370e+00
9.873671953672839008e-01,-4.560059756754306776e-03,-9.803098483223354975e+00
1.005025655108041871e+00,8.717251130623267057e-04,-9.789340950999527280e+00
9.962811566169408328e-01,4.726582160352960083e-03,-9.797499220649349638e+00
1.003545161837869459e+00,-2.301661956369543006e-03,-9.781766554980206863e+00
1.006138433444701663e+00,-5.403594855527913549e-03,-9.803150141764472636e+00
1.000204982327756120e+00,-5.121224884123573573e-03,-9.804410609764673268e+00
9.986108885905949917e-01,-4.660219671328317756e-04,-9.810596672411650232e+00
1.000675646934788832e+00,-9.112529958305018093e-03,-9.788490393312290649e+00
9.986545326530901212e-01,-6.834017665336168494e-03,-9.797807169112765280e+00
1.011084515513420934e+00,4.857815777744169984e-03,-9.788479710169065484e+00
1.004087892630072032e+00,-3.137421587600134829e-03,-9.788742343763589204e+00
1.004252368447889232e+00,-2.719295863019473639e-03,-9.791453892026169115e+00
1.004926937994273128e+00,-3.064759673826820095e-03,-9.781179504368248345e+00
1.000675015854948668e+00,-2.472812254573836241e-05,-9.794149038184663425e+00
9.964536806767997357e-01,8.719964567382235132e-03,-9.801638373040651331e+00
1.001248063035106384e+00,5.537858473585289577e-03,-9.787812652044125983e+00
9.902220137999376837e-01,-9.194794692342639006e-03,-9.813347060577136460e+00
9.969861484030450027e-01,6.723666877677086928e-03,-9.794999970689284297e+00
1.004236674799111828e+00,-9.252937526634317893e-04,-9.790282422192010614e+00
1.000033589686769364e+00,-7.653175122412424723e-03,-9.805720058114131277e+00
1.004942542325146571e+00,-7.408209534319349634e-04,-9.797861966534421541e+00
9.987123427999838876e-01,8.528233029556380644e-04,-9.801455536810319558e+00
9.988157653312789153e-01,-4.909299863184014498e-03,-9.806255061289373742e+00
9.895014780391372389e-01,-2.529632236983981024e-03,-9.793812146127445217e+00
1.000318426452348364e+00,1.466121790888255845e-02,-9.795605537375983829e+00
9.988978434518496208e-01,7.199428884218940158e-03,-9.789432405030117579e+00
9.936581281003309396e-01,7.757262606003349076e-03,-9.791561183099464216e+00
1.005309138628533994e+00,-4.564435744687199425e-03,-9.800672155645122174e+00
1.004207322224640597e+00,5.776558284487133717e-03,-9.798182162079806190e+00
1.008404963618708239e+00,5.944365065266465041e-03,-9.782665944434347338e+00
9.971021025653276082e-01,-1.483324224205985215e-03,-9.796144234024012576e+00
9.956538506769079255e-01,4.284856252533465575e-03,-9.780729988622345772e+00
9.961606469655004403e-01,-2.832829728769047095e-03,-9.802623726972097273e+00
1.000945814767743025e+00,4.338723672292055418e-03,-9.797284055226588961e+00
1.002903395492554806e+00,3.780622088356565529e-03,-9.782286608076935508e+00
1.011052187201456176e+00,-6.189757958873670944e-04,-9.794185104963784028e+00
9.997220361435065206e-01,-9.930755806141513230e-04,-9.798769718578707710e+00
9.926171685683948809e-01,-4.442499983659136710e-03,-9.800220251306038577e+00
1.005915092173069736e+00,2.164689824905789735e-05,-9.792455624341052101e+00
1.005044993270748588e+00,8.774541097595634767e-04,-9.788844751769536501e+00
1.003004458464764825e+00,-2.639920351484524022e-04,-9.790262601634294626e+00
1.002127013061535843e+00,1.771844609307937721e-03,-9.802251674247512980e+00
9.976783894828959998e-01,2.398299103170046078e-04,-9.786468984451673236e+00
1.000780707631266475e+00,1.683933804077957733e-03,-9.784489725463366483e+00
9.982725615161018862e-01,-2.982920538455419157e-03,-9.813926497633618240e+00
9.969750134199267810e-01,1.078270872797207867e-03,-9.805358296851684585e+00
1.000386418319325177e+00,-4.344308268857600963e-03,-9.787008874495656485e+00
1.000697841057315740e+00,-1.233441718622150336e-03,-9.790542434864407895e+00
9.936699475225052591e-01,6.045992577393387041e-04,-9.785834484833236147e+00
9.933537826875777910e-01,-4.406799925946894118e-03,-9.783749979619393855e+00
9.988548418805910378e-01,-4.018036636616143485e-03,-9.788526022820914108e+00
1.007081396624807335e+00,6.519283400248737648e-03,-9.806703988351150869e+00
9.979930267333568805e-01,-5.581072544367049991e-03,-9.801963076281349885e+00
1.004749424569847394e+00,3.587218831262188080e-03,-9.787738712644339145e+00
1.004340637354534271e+00,3.729980035355773358e-03,-9.805911776289184090e+00
9.942162071650285649e-01,-6.915488071312910021e-04,-9.786446426424763700e+00
9.917290098900066742e-01,1.080094052908650397e-02,-9.797125415440213203e+00
9.941330940907655567e-01,-6.550444630192961935e-03,-9.795244839409612325e+00
1.002129639689988805e+00,-3.500924235849873795e-04,-9.804273808577825378e+00
9.964384087529466472e-01,5.868747408441677728e-03,-9.802958020077614520e+00
9.989697131508108452e-01,-3.934498670320725824e-03,-9.799614086433091842e+00
1.007844387902429473e+00,2.270106635996878893e-03,-9.795723785978280418e+00
1.014429821713954238e+00,1.363427723939879569e-03,-9.803960310169024694e+00
9.963075993442707112e-01,3.848842093814184174e-03,-9.804099800560326372e+00
9.957971080382064244e-01,-2.751292860923911822e-03,-9.809200253936689151e+00
9.969096261404490900e-01,-3.871827729787848636e-03,-9.784058325877449391e+00
1.015452641796241284e+00,-3.234805241446830730e-03,-9.788934845656175554e+00
1.002991513392490930e+00,-4.240750774365195826e-03,-9.795450316620996745e+00
9.939993687618181584e-01,7.740805904807217339e-04,-9.801367349176716814e+00
1.003135515884324702e+00,-9.061459226732558950e-03,-9.804363283100490989e+00
1.005349292105547354e+00,-3.049695358989067476e-03,-9.786186262124532576e+00
9.958406980762763983e-01,-5.840056722825220405e-03,-9.795923772869231883e+00
9.961087520252845939e-01,-1.375679006933762253e-03,-9.793513120467816080e+00
1.006259223559768268e+00,6.685886030238764877e-03,-9.801050340206089118e+00
1.004598683045128560e+00,-1.004049307025171476e-03,-9.813375502054247690e+00
1.011041323181395724e+00,-4.433014530071134325e-04,-9.797439472835970165e+00
1.000916141303655360e+00,-8.674651921143014532e-03,-9.793402163972606544e+00
1.002673750972802313e+00,1.467318087822624181e-03,-9.788040593312691939e+00
1.010129822094720797e+00,3.806971832894601518e-03,-9.781019717089426635e+00
1.002813300709121780e+00,3.271131676628294231e-03,-9.797355860305927422e+00
1.006069060000513327e+00,-1.161371752933978421e-03,-9.796064162464718450e+00
1.008358526853861736e+00,7.667993494111259838e-04,-9.796311356861178155e+00
9.992794704028346020e-01,-8.512050058962954482e-03,-9.781945667726368754e+00
1.009483015859070631e+00,8.632797794676714404e-03,-9.807374571932594876e+00
1.002415924342381803e+00,-9.987016260961411370e-04,-9.805365498759794463e+00
1.001018742202585798e+00,1.099084280353518003e-02,-9.794693710813488607e+00
9.995202562185145911e-01,-3.385668597148542083e-03,-9.802349776090311551e+00
9.971072950680126556e-01,-6.224598549514226246e-03,-9.791907342468419984e+00
1.006641207747154487e+00,5.245437211314384757e-03,-9.801715348083563484e+00
1.006738620092545444e+00,1.015332502305288029e-02,-9.800259279201537055e+00
1.002585079836536996e+00,-4.400594608374235397e-03,-9.790054594117377107e+00
1.005482385896243835e+00,5.529167283375035005e-03,-9.790802636245665269e+00
1.000702839291266466e+00,-1.111458900227181579e-02,-9.807030773513950805e+00
9.968606754842563866e-01,1.354979081590612817e-03,-9.797392109246915837e+00
1.010910133480226403e+00,2.027624207868329760e-03,-9.797440737209710093e+00
1.007098423728468806e+00,1.020064477723122125e-03,-9.807858824863213698e+00
9.997026860716693442e-01,7.868519697650545874e-03,-9.790254914936324937e+00
1.002664385077834508e+00,-7.156393881821119206e-03,-9.789217955775157520e+00
1.004624365876147785e+00,5.075670372719709271e-03,-9.784591547600140160e+00
1.003250453058520231e+00,9.898039295083208271e-04,-9.800901823523421541e+00
9.999596536349073528e-01,-3.469465438108178344e-03,-9.781717393017773432e+00
1.000167906333165657e+00,-6.836403284622830090e-03,-9.797182800052176788e+00
9.957438726626594017e-01,3.850620767665207788e-03,-9.788785670501853886e+00
9.995535471663049565e-01,-1.038286973683720353e-02,-9.796148297246768166e+00
1.006115902537178863e+00,7.034469188618311733e-03,-9.791298555129859693e+00
9.986736225401781075e-01,5.259896444583534933e-03,-9.791877628360676766e+00
1.004463094221527575e+00,-2.632518012235217971e-03,-9.794037068620763620e+00
1.001904691119644530e+00,-3.797837069946228584e-03,-9.774843824961919836e+00
9.937917989132425411e-01,-1.181454106473733660e-02,-9.798049161750979508e+00
1.007186319369760996e+00,-8.351063787882945233e-03,-9.799809902666909878e+00
9.971304035508982144e-01,-8.794124156753412719e-03,-9.784521945322268266e+00
9.936794662102742537e-01,9.020265399682007509e-03,-9.801272213228754637e+00
9.960497486525846655e-01,-2.645265828230945575e-03,-9.799124659828502004e+00
1.003648693102180189e+00,4.182698168115166069e-05,-9.792163176565868099e+00
1.002495328268313557e+00,6.165312829887253585e-03,-9.805193833777634538e+00
1.007090969189590179e+00,9.094177936382542848e-03,-9.796219130464338676e+00
1.008608429717331223e+00,4.456388067501356430e-03,-9.793887777476923517e+00
1.008914010515159942e+00,3.218967233943938102e-03,-9.789323025091878350e+00
1.001142206395871259e+00,2.375384546301184327e-03,-9.792206985405606190e+00
1.011285592234163255e+00,-8.041274503419503297e-03,-9.792888647642859823e+00
1.001752734100242792e+00,-3.285870970893479308e-04,-9.799640786520598112e+00
9.964638823776691412e-01,5.037131755442018216e-03,-9.782637655861705639e+00
9.992981015664559319e-01,3.635238659669766566e-04,-9.793862923604196524e+00
9.988063590296887284e-01,-1.735665412830987445e-03,-9.787050393467119136e+00
1.007811315318767775e+00,-7.338686795499173125e-03,-9.813564801623561706e+00
1.000803060680582002e+00,4.955135110856613220e-03,-9.793980574320574561e+00
1.001195739489167069e+00,-3.612328685939734664e-05,-9.793639217233003791e+00
1.001802701922400063e+00,4.275297193656940262e-03,-9.790885032023396661e+00
9.988510220213809854e-01,-2.470444779057931906e-03,-9.801800397666145415e+00
9.990029245201360597e-01,1.381021041431270378e-03,-9.792671610081274736e+00
1.009789922240364124e+00,-6.662192158209874829e-03,-9.787586380119943641e+00
9.945243783161406004e-01,5.115383434165190167e-03,-9.795247379907959129e+00
1.003556884175121011e+00,1.875880870149513550e-03,-9.803539271527650811e+00
1.008329559618862392e+00,-8.808269935859022737e-04,-9.796628187895775497e+00
9.998077844512981427e-01,-1.047368031588401423e-02,-9.805711503990847788e+00
1.004070277866817573e+00,-1.946573266980875395e-03,-9.785160239539795413e+00
1.004272177633371399e+00,3.378975381533549211e-04,-9.791211992810028519e+00
1.009759440322567370e+00,-1.201325869169193915e-03,-9.814785686077170723e+00
1.003236548904976599e+00,2.318512525136950421e-03,-9.779845662153563879e+00
1.001186262274477601e+00,-7.594466438359890291e-03,-9.792327196273577172e+00
1.000468171766887515e+00,8.552216387379369539e-03,-9.804577022962051913e+00
1.005267656279352773e+00,1.116150668590847918e-02,-9.798728783377766760e+00
9.916528165138911444e-01,2.241818330360034490e-03,-9.798126889408980134e+00
1.002014122393255713e+00,1.026195091328480948e-02,-9.783798719603275629e+00
9.997464575358123717e-01,-1.697015795619426747e-03,-9.784299041498202953e+00
1.002155001240423005e+00,-7.798558140112625200e-03,-9.805740757909758187e+00
1.005172547039405506e+00,9.720847667024919148e-03,-9.791131401916606691e+00
1.001808885643508118e+00,2.081925994860853082e-03,-9.786308053289099362e+00
1.004240462000006495e+00,5.606014761135904613e-03,-9.793033260727909806e+00
9.993304919248849894e-01,3.181210298502681194e-03,-9.793753532570857345e+00
1.002287600514811139e+00,-5.175067993029769733e-03,-9.808734874617758948e+00
1.003780828821918547e+00,3.766593025398179591e-04,-9.798388731547351682e+00
1.002474074917251157e+00,-1.370889888317996337e-03,-9.808695863775664492e+00
1.008312332379922127e+00,3.027772746571000956e-03,-9.800353249087779162e+00
9.967041795174247376e-01,7.234854394213785511e-03,-9.802631417125047264e+00
9.991668328352805162e-01,-6.039312420985495401e-03,-9.802864473134931700e+00
1.001679351457607448e+00,4.601426435211596402e-03,-9.793452500008990924e+00
1.004501758176453041e+00,-4.390688371462819067e-05,-9.806068701371241758e+00
1.002268029702711560e+00,-2.448057463873053695e-03,-9.790460369111073646e+00
9.999327347940345501e-01,-4.345202444467568918e-03,-9.799100548543609790e+00
9.999189110982766859e-01,4.083092819166632935e-03,-9.790088920583547960e+00
1.001089256689347007e+00,-3.270995934670488207e-03,-9.803312491398747497e+00
1.005936457620499436e+00,3.075558015550144877e-03,-9.795198562676869614e+00
9.993484835573251956e-01,-1.369675659991436605e-03,-9.796474521572992700e+00
1.002496764531118911e+00,1.015584542317393008e-02,-9.796768439698670505e+00
9.954552157753447927e-01,7.163972924688432166e-04,-9.800088761176532159e+00
9.939692755508531263e-01,-5.930796782938015967e-03,-9.795804711968584044e+00
1.002858717389736531e+00,-3.149922061660991078e-04,-9.778660236677865214e+00
9.959118454351725269e-01,-6.140900367561904008e-03,-9.802478072730409053e+00
9.996633384764591623e-01,4.366080712291517049e-04,-9.801785694047055131e+00
1.004077324926019532e+00,-5.906801187135484778e-03,-9.796739776071689221e+00
9.995557827162592224e-01,3.838305719140633083e-03,-9.795983056151088775e+00
9.969011538390073479e-01,1.092605208429917041e-02,-9.796928483628553508e+00
1.000439678616163119e+00,-7.321034505856043387e-03,-9.790832207600727699e+00
1.001261880944432914e+00,1.035107981251554791e-03,-9.785248322768667961e+00
1.006671617484656167e+00,-1.053859258887978462e-02,-9.799553063030240097e+00
1.002527022022563052e+00,3.276783993985050211e-03,-9.812503513542015554e+00
9.989617668652301941e-01,-4.206193414520124386e-03,-9.786860079307245996e+00
9.972151917514101571e-01,-2.717532857858362405e-03,-9.793977081181941102e+00
1.003171836180446697e+00,-4.908414086808067511e-03,-9.793101693600458901e+00
9.976361224332469524e-01,-9.861847457676262314e-04,-9.809587483765206173e+00
9.987668734679585603e-01,-4.431423831704422653e-03,-9.798587091427945595e+00
9.945986109918339979e-01,-7.528361202660677209e-03,-9.789355275092606945e+00
9.925682372697860467e-01,-7.182747791039037835e-03,-9.789384662607483634e+00
9.951114273792612819e-01,3.520787580461517009e-03,-9.790411974650368165e+00
9.998542639009188049e-01,-5.629521630249639114e-03,-9.795155939467434791e+00
9.999530798415356969e-01,-7.658142226798793882e-04,-9.791363948043565912e+00
1.003242548463849859e+00,-2.515096200607927924e-03,-9.789921574273870775e+00
1.000452013627930681e+00,-7.774997863710856976e-05,-9.799696579868658830e+00
1.000603520341737385e+00,3.418282419060689713e-03,-9.785921705904684131e+00
9.925197574754609509e-01,-5.013716553867631973e-03,-9.805125157574799744e+00
1.001520609805870432e+00,-4.511780822629580731e-03,-9.792982562696915139e+00
9.983510738077256974e-01,-4.084618716159543923e-03,-9.791732000491535359e+00
1.002085815786588174e+00,-5.160598389427486533e-03,-9.791788912704914694e+00
9.947672319846793121e-01,-4.616740045060110410e-04,-9.799639035459364322e+00
1.002213352251606127e+00,2.022964942764111929e-03,-9.807772184758418277e+00
9.967972746819088181e-01,1.289620549826717318e-02,-9.784767447961135289e+00
9.987034796714882035e-01,-8.003846206086080717e-03,-9.786898274083005944e+00
9.990626868075831446e-01,-6.884501775438855824e-05,-9.797160982951181651e+00
9.845712164322319992e-01,-2.409219876646723300e-03,-9.787400872904676419e+00
1.004858503147736837e+00,-4.521094147281283764e-04,-9.805230734950518112e+00
1.001067743001870625e+00,-9.796796158380721709e-03,-9.796243702106973927e+00
1.001329234385887723e+00,1.429574369980013285e-03,-9.796181214638988166e+00
1.005678556832694026e+00,3.567419965050745972e-03,-9.790567188591763781e+00
9.974861338801944699e-01,-2.774643401743942181e-03,-9.806490995403379429e+00
9.955521402451420476e-01,2.846161301451076171e-03,-9.801175588843946684e+00
9.988904138432999069e-01,9.650662010009840785e-04,-9.788637376218108699e+00
9.971408513171443611e-01,-7.584605435750313776e-03,-9.793826244742856346e+00
1.002310548098722220e+00,-2.496718307245305354e-04,-9.785722499041575873e+00
9.937317558955622854e-01,6.387224791160675541e-03,-9.799416610961277030e+00
9.997887033053178829e-01,1.688810505511188472e-03,-9.781066265552434302e+00
9.911890190327673489e-01,1.086997264992444357e-03,-9.796671960047403260e+00
1.005239990087092750e+00,-2.220669114796122029e-03,-9.790503292375616340e+00
1.008193292185737722e+00,-6.993893800187063470e-03,-9.795240543962998814e+00
1.005166608613441426e+00,-3.599842970787294535e-03,-9.786449043635956357e+00
9.959787016797772008e-01,2.405317010939856791e-03,-9.778122532160274716e+00
9.964160192355302481e-01,7.517152979716555097e-04,-9.783042799992852423e+00
1.008065271664261520e+00,1.497224642414886765e-04,-9.791023881347323155e+00
1.005840537421615277e+00,-4.550267449500967031e-03,-9.789294447610814132e+00
1.007234368859811990e+00,-2.040000846338465169e-03,-9.804162795878966108e+00
1.002393740372630626e+00,-1.437421685615553838e-03,-9.796811300987004145e+00
1.002719674342442913e+00,-6.045991880672828625e-03,-9.796689601734836828e+00
1.000113910965823250e+00,1.511994334690763614e-03,-9.788525281367030928e+00
9.907453258144475194e-01,6.135710785750612094e-03,-9.800318380065927926e+00
1.000436194471492124e+00,-1.205670379273662439e-03,-9.779047632781082910e+00
1.002274404004523056e+00,5.493268343223044539e-03,-9.787998595465655427e+00
9.992743275255114854e-01,1.260674691714734792e-04,-9.800169191924551271e+00
1.006029028195783770e+00,2.357931490220031845e-03,-9.807948914564523335e+00
9.981316323140595470e-01,-4.073548938169550479e-03,-9.791651287361350597e+00
1.000859680365427495e+00,4.716599464692607449e-03,-9.790382323928861652e+00
1.003942627870835436e+00,-1.154147752137707700e-03,-9.790544286284493580e+00
1.009244318243231575e+00,-5.357623202308894189e-03,-9.788388218478564440e+00
1.001943113119963646e+00,-9.527202533070134932e-04,-9.797301925003129242e+00
1.004524632467082679e+00,-8.463564823400319959e-04,-9.779570371696664211e+00
1.000838425539931631e+00,5.303236621613970818e-04,-9.800064011301508060e+00
1.000663469141499284e+00,1.037303675938047124e-03,-9.805367485137647776e+00
1.000204076781223250e+00,9.127080154625336061e-03,-9.794495444136058993e+00
1.006416515016234081e+00,-1.443977500522557146e-03,-9.789160912212876653e+00
9.972590844692231782e-01,5.558966339047110086e-03,-9.792239898691123656e+00
9.956434948200730828e-01,6.079615449842487931e-03,-9.774746334899433009e+00
1.005402699774452069e+00,3.021851925912773414e-03,-9.780449757208115713e+00
9.895424039901843383e-01,1.402205570118859792e-03,-9.799477683329303801e+00
1.000802034816256292e+00,-4.164579781573985937e-03,-9.788813359589639163e+00
1.002653857438033702e+00,8.808721908619861901e-03,-9.789407768505324015e+00
9.926170875691598949e-01,-2.263088836501574944e-03,-9.813665229258567990e+00
9.955953979267108123e-01,3.261148102781761572e-03,-9.791652085495044844e+00
9.986989866700320961e-01,8.128456855412207263e-03,-9.790586710491361089e+00
9.996254062139833252e-01,-5.734372772105798951e-04,-9.793103193511949911e+00
1.006354184671986784e+00,2.236652419107444060e-03,-9.807480576957102514e+00
9.976054514259795614e-01,-7.900372219417896302e-03,-9.805514896648727330e+00
1.006020606988219157e+00,8.058245732609129949e-03,-9.805125946110795354e+00
1.002780633432980517e+00,6.703704620656207418e-03,-9.793006494598403222e+00
9.951212331205480099e-01,6.447295694417517001e-03,-9.786990399680782104e+00
9.990918820399791178e-01,7.774276336583047994e-03,-9.781877710386531533e+00
1.007354075528819948e+00,3.573915443680197607e-03,-9.792439995391140073e+00
9.936138243859139463e-01,2.889270346985941922e-03,-9.788020697551726101e+00
1.002093780828560599e+00,-5.164345528180515690e-03,-9.797104481872418447e+00
1.002726126226793912e+00,-1.850416091692716697e-03,-9.797358755370368044e+00
1.002521085658010902e+00,-1.045720032410636657e-03,-9.785997176166382872e+00
9.936100580996428677e-01,2.647717990427653906e-03,-9.798194174656876143e+00
9.999461126562710911e-01,2.277885952139261858e-03,-9.807153139265656350e+00
9.951475180391151643e-01,3.199457276730420757e-04,-9.790566252552924453e+00
9.931268614032032760e-01,8.720273882173928265e-03,-9.796672222386696660e+00
1.004597393109833536e+00,8.475178675134849814e-04,-9.804848148557544718e+00
9.902470955122022467e-01,-2.869653502217614938e-03,-9.798261449249890731e+00
1.006187061002967953e+00,2.549634949857638999e-03,-9.777904862898077809e+00
1.001425736477484341e+00,2.143234205512340969e-05,-9.791907039457202089e+00
9.976946665945198855e-01,-2.527667126210102417e-04,-9.796663855483538796e+00
1.001677527968942050e+00,3.440911744183935018e-03,-9.787039756383940414e+00
9.990064077499954953e-01,-9.063577062263667924e-03,-9.788928803233286402e+00
1.002364674536155853e+00,6.075277338851815985e-03,-9.810200312088991126e+00
1.006479803033897724e+00,7.872363477507235419e-03,-9.802566218752689409e+00
1.001994281755748339e+00,-7.942431802788961839e-03,-9.784282007049979413e+00
1.003292212689192331e+00,-2.928633622754152864e-03,-9.800897490253316136e+00
1.003189865226456812e+00,-5.668334570116896100e-03,-9.800363974318607063e+00
1.006120757040446234e+00,-1.277240314033416041e-03,-9.805149496089354599e+00
9.965007682174918946e-01,8.825404335182146162e-04,-9.796326942545169558e+00
9.917080734060282898e-01,-2.826280524126979256e-03,-9.790937492086978722e+00
9.948672665963798067e-01,2.060783785405144626e-03,-9.797699812651060824e+00
1.003357613064662424e+00,1.290901129878406538e-03,-9.806191860543533423e+00
1.000366964170374517e+00,4.576312197448612930e-03,-9.800153639211048429e+00
9.978477298602508316e-01,-9.387158935302038557e-03,-9.795544383925543386e+00
1.000169232185263102e+00,-4.264580454265805114e-03,-9.793604049032650138e+00
9.947989639934377015e-01,-4.072455163212628307e-03,-9.789443126229596004e+00
9.952085745127382532e-01,-4.377991885844162261e-03,-9.802217132634867269e+00
9.995204262544526985e-01,1.277049390567038499e-03,-9.791016206911169917e+00
1.000870523584807437e+00,4.185430289950320772e-04,-9.796727127482077080e+00
1.002272921129752747e+00,3.861148199180978579e-03,-9.801296000964144994e+00
9.987959081466857292e-01,-1.626968300199408421e-03,-9.812015753278432229e+00
1.000393465632324785e+00,4.968831098421661388e-03,-9.799348870350012675e+00
9.992080037236803491e-01,3.758187165803283502e-03,-9.808232573565348389e+00
1.000371431126944932e+00,2.984267188223011479e-03,-9.788816185791770152e+00
9.911586608449728386e-01,-3.172525597751360928e-04,-9.801945265844466348e+00
9.988952570439993961e-01,-1.980345933593152086e-05,-9.783070506412641976e+00
9.966865048085501444e-01,-7.019816912442159058e-03,-9.795671510956976746e+00
9.953075793348601374e-01,2.352940984683552991e-03,-9.784059505122094436e+00
1.003426333928838510e+00,3.024139219284400007e-03,-9.805810127747079719e+00
9.983380819942575535e-01,-9.400100866748960574e-03,-9.796573439286669682e+00
1.008231304142944929e+00,5.294501644907924007e-03,-9.784096211449961444e+00
1.002190727769434631e+00,-2.052213072304402263e-03,-9.794081200502761320e+00
1.000416206985217826e+00,3.383725271071711489e-04,-9.786521046107395705e+00
9.953597728984359128e-01,1.868170619714533106e-03,-9.793252358780538458e+00
1.002318539986574164e+00,-1.141396640128443385e-02,-9.788995861236077900e+00
9.939917371752247099e-01,1.163183319966591169e-02,-9.800139822758568542e+00
9.938610442516473409e-01,7.184843691173517293e-04,-9.788852238411406503e+00
1.006060200817300077e+00,4.034168462078596175e-03,-9.798671626660313549e+00
9.984568642706705965e-01,4.505463752114909765e-03,-9.794035404395044608e+00
1.009703763093711126e+00,-5.135782756593767866e-03,-9.798606946907318260e+00
1.004247893569015115e+00,-3.478165787558074170e-04,-9.799260975599477064e+00
1.010857445311244884e+00,2.493625727524882967e-03,-9.797547669399017778e+00
1.003268802697324436e+00,1.888726446265637151e-03,-9.801328375708044049e+00
9.941125568438674565e-01,2.930314528646853559e-03,-9.784200687321463974e+00
1.004546943925192837e+00,9.831229510054379298e-03,-9.795308866295640016e+00
1.005529765477379378e+00,5.085474208377673390e-04,-9.798379408852934347e+00
1.001588190928046629e+00,-3.718407107158409712e-03,-9.800619819479145178e+00
9.970738480642229451e-01,1.539751560620748055e-02,-9.781725679325871781e+00
9.964625738195570515e-01,1.320577727253884146e-03,-9.796375566466950957e+00
1.000782554444216599e+00,8.637178121660120259e-04,-9.782382254960495516e+00
9.990124984214958648e-01,6.136035692631390146e-04,-9.778297103683881275e+00
1.006881344531109779e+00,5.145486942688962811e-03,-9.797901064849975583e+00
9.893547326186656887e-01,-5.439173106383509045e-03,-9.801407353356418994e+00
1.007345954805191068e+00,1.301513360444002680e-04,-9.790461014633493164e+00
1.004329478091611216e+00,8.218610340990779558e-05,-9.802573690199126943e+00
9.994898994389710412e-01,9.351708265843942589e-03,-9.806789273670911911e+00
9.950583350901294200e-01,-9.947431222512297284e-04,-9.796646961885798532e+00
9.932516199498901965e-01,5.817920867597926307e-04,-9.800510008267250939e+00
9.878023715535465543e-01,9.060778569390915511e-04,-9.782376898529278719e+00
9.983382567294096788e-01,4.813593258085184859e-03,-9.802192176229178600e+00
9.919419273029724815e-01,-2.075192340301082461e-03,-9.797398425076057293e+00
1.001943646130767140e+00,5.791561301149219035e-03,-9.793324297577239435e+00
9.972473624711271079e-01,7.208897885889036308e-03,-9.792073268055782265e+00
9.991922401066219983e-01,3.414903116151923532e-03,-9.790348038272615128e+00
9.943455228974547033e-01,-5.651486896597515686e-03,-9.804083668293674947e+00
1.007194066020993040e+00,-3.559367660563553422e-03,-9.810869094665942924e+00
1.002149359713182530e+00,1.155182861227524102e-02,-9.784963534807458174e+00
9.932653351083959858e-01,-1.272828573474422617e-03,-9.792504719842099803e+00
1.004453696303626575e+00,1.949618630747170390e-03,-9.784973238506447402e+00
1.004719892267523784e+00,-8.269061136265781450e-05,-9.786058146407752290e+00
1.002051910207248042e+00,1.753814489830355771e-03,-9.801650742743309053e+00
9.956421396514123501e-01,-1.217147858932158709e-03,-9.794108843438703360e+00
9.926776760879021388e-01,2.291857663855394276e-03,-9.798933166681379703e+00
1.000945317402352153e+00,7.764004349786053118e-03,-9.784055485614633341e+00
1.001837331891274108e+00,2.801515581282495743e-03,-9.790864645269900635e+00
1.004356758941036709e+00,2.476329364830096025e-03,-9.799025749138312591e+00
9.929703279196188115e-01,-5.863955880782991369e-03,-9.791483117246322365e+00
1.011882452225018270e+00,6.446791323482719237e-03,-9.791690200379365550e+00
1.011492599790947633e+00,2.575655211391079166e-03,-9.794801100226488089e+00
9.958237548865710442e-01,3.464148172434703462e-03,-9.804341143952830961e+00
1.005815498304149180e+00,7.689032550402450880e-05,-9.791721826312631549e+00
1.001649333649909490e+00,2.010182919997504942e-03,-9.806973565484891964e+00
1.011190980332841161e+00,-9.952825669252401974e-03,-9.792496390386697058e+00
1.000389726968370141e+00,1.582853032900414765e-03,-9.790537471375532874e+00
9.952115258852871627e-01,1.089648590682695383e-03,-9.786620308031022120e+00
9.959358445343516886e-01,6.582001271953018783e-03,-9.781237825405131758e+00
1.005588584202775415e+00,-1.298547788938568537e-02,-9.791700965635969922e+00
9.999390426057146453e-01,1.337277485774363006e-03,-9.785841772863294707e+00
9.936640725764318560e-01,2.796520238646905444e-03,-9.807973721835676173e+00
9.948891052198417517e-01,-5.040218860562098099e-03,-9.792430550721389793e+00
1.001466931464590537e+00,-3.635687110395117820e-03,-9.803256644373975703e+00
9.945594885657165207e-01,5.940375379399788621e-04,-9.796682224343809864e+00
1.012405580895537671e+00,7.422323739708636993e-03,-9.799232204637624122e+00
9.995171167812825219e-01,-4.751773340674000229e-03,-9.781575156137435556e+00
9.946276722198686970e-01,1.231331024371136625e-03,-9.796578502803379607e+00
9.986365388157850687e-01,1.341317167495435130e-03,-9.806157420983197426e+00
9.945587790710392895e-01,-7.922760381445488956e-03,-9.793097937654524188e+00
9.972250678893709308e-01,-8.214980971404713811e-04,-9.803395192117099199e+00
1.005683448524661516e+00,-3.385047583817666706e-04,-9.787046824348291096e+00
1.001703556548817264e+00,-7.988207390121461818e-04,-9.801235745765145779e+00
1.000262798805430675e+00,5.500442693231667735e-03,-9.789344816711846420e+00
9.883283742681441275e-01,-3.825769299161110512e-03,-9.795177558734986079e+00
1.005139021229400020e+00,-3.322766749221973091e-03,-9.777441764981386285e+00
9.948597110834034307e-01,1.312154710060640223e-04,-9.798179593771031648e+00
1.002877882185776448e+00,2.323819558934576111e-03,-9.778758904207560221e+00
1.007702996581934851e+00,9.374115215031500123e-03,-9.789158101944559931e+00
9.995009212709946578e-01,-1.830256842087672319e-03,-9.804919998265726022e+00
9.951908693456953392e-01,-4.026891288467694500e-03,-9.782821562209198518e+00
9.987581992483880455e-01,-2.388347303207194461e-03,-9.814091817621442004e+00
9.974152412003050028e-01,1.478632555507081647e-03,-9.798756199493389829e+00
1.000305189216004420e+00,-1.727851667440481222e-03,-9.798691730209625916e+00
1.002647362609728976e+00,8.969939064532920364e-03,-9.800658651579732705e+00
9.966668224579217084e-01,6.466539396893187901e-03,-9.797143895675763048e+00
1.002631992627078583e+00,-3.842602996297396663e-03,-9.796316205435108060e+00
1.004784485126209992e+00,-3.358366531419645050e-03,-9.803099807053694548e+00
