gyro_x (deg/s),gyro_y (deg/s),gyro_z (deg/s)
3.671030026866523022e-02,-9.275053414340854452e-02,2.420299566061796456e-02
3.917815825753737796e-03,1.770254244990684261e-02,-6.619074673246938545e-02
-1.163311953476818539e-02,-1.138225247719474101e-02,-2.292264145788124041e-02
6.385988671679504458e-02,-4.690093862430586014e-02,-6.469321178071943401e-02
-2.196609574629040506e-03,-7.472369430477415753e-02,-2.995223673240117804e-02
1.628135845259656364e-02,4.651969296831321571e-02,-3.560617770471242310e-02
-4.232891139768642924e-02,2.216189500351037345e-02,-7.409564693259641094e-03
-2.939147719285966839e-02,1.616161792697710280e-03,2.570608266826408458e-02
1.023834014370421028e-02,-5.350802170272973141e-02,-2.668786621366893083e-02
-3.527131774336932438e-03,3.502782671510976456e-03,-3.554622769140101946e-02
3.209485362021297777e-02,-1.664229171255090026e-02,9.478209607265747697e-03
3.478130831683092644e-02,-1.555223946358933948e-02,4.777875108988751188e-03
4.681078149444496683e-02,9.111397338131249635e-02,-4.267550458285169416e-04
-1.804064072033264438e-02,5.172585824721553233e-02,4.344579352428844243e-02
-3.651540792851590278e-02,-4.431570512072362938e-02,3.313744874008980185e-02
-2.259175534077327574e-02,3.581093418058120537e-02,-2.441233490164042633e-02
-2.313630508457785104e-02,-1.640348835705510849e-02,6.785811638405607991e-03
4.443869506809995651e-02,-3.614615380967326624e-02,7.120520685231214453e-02
-1.182545564193391782e-02,1.786551393081008826e-02,8.948805504254175869e-02
-5.674595370370917602e-02,5.397631364924641850e-02,-2.108322696845358127e-02
2.524903857096979370e-02,-5.348101399126228145e-02,-6.931340544239009138e-02
-4.752267391888119474e-02,1.547456761488229249e-02,4.660421902656564780e-02
-3.489431686457314039e-03,-4.400877550300984209e-02,-3.864180204173941341e-02
-2.449237851430628374e-02,4.549990164821223620e-02,5.234236421338761346e-05
-1.432060082078722568e-02,1.541008737543403916e-02,1.875068310104893374e-02
-4.698318341553932992e-02,6.159991642180302068e-02,-1.462350116208026296e-02
2.200454997431710441e-02,9.459143582167960085e-02,-3.379292158807914448e-02
-6.503539835168002659e-02,4.904394706016636241e-02,-7.216421048320705717e-03
-3.013286350416437189e-03,2.720513189302993518e-02,2.890500539536893301e-02
2.133774656568993358e-02,-2.554396735338472849e-02,-3.590517544967162383e-02
6.277604675577810878e-02,1.079975199368960088e-02,1.860814253639601554e-02
2.427441868578992384e-02,3.396051097918843797e-02,-3.449790729265759387e-02
-4.189878549557769782e-02,-9.677922618368545865e-03,-4.813918755975666458e-02
2.170436879259297555e-02,-2.931475921861266543e-02,-1.105766183482140980e-02
-2.791305464649659895e-02,4.963007393217959418e-02,-3.876440799968386332e-03
1.695215775040846695e-02,6.775742438090313902e-02,-3.993571243081429911e-02
-2.459184312815938800e-02,-3.091496152287673965e-02,-9.404723607210767333e-02
6.347688812165293119e-03,-3.755798425131085666e-02,5.412957345093296485e-02
8.401783578525706675e-02,8.997346875767532962e-03,-7.395308448086981325e-03
-4.164697026074038605e-02,2.039738832019172277e-02,1.702076124603657190e-02
-5.908706456965517190e-03,4.166768683192602352e-02,-2.907316713093660576e-02
-1.246480032078853273e-02,-1.435147190787880618e-02,-6.580574436122459125e-02
4.009155046358641589e-02,-2.648772561087035099e-02,4.645307217564111080e-02
5.670518218569280816e-02,-6.867085066572178528e-03,2.200580544165761654e-02
-7.147306687229966482e-03,4.380217460088368930e-02,8.671339776867353563e-03
2.460299043691257723e-02,-3.045393649708934627e-03,2.105926483000551686e-02
5.252088668431220339e-03,-1.097646451402311679e-01,7.272538359308161832e-04
4.382098014784509624e-03,-4.378652187891812070e-02,3.151915912024508964e-02
-2.942322684226621535e-02,-7.102491882855890837e-02,4.514563473841409769e-02
-8.072482533198443999e-02,2.412012685649304183e-02,-7.574973251764523241e-02
2.648851691725349899e-02,-2.140011032867078153e-02,-7.024567556191354048e-03
8.468706875990958047e-03,4.604721592627786242e-02,-1.147144657601057750e-02
-9.095449797217370486e-03,-5.384246204964256155e-02,2.289759796546562975e-02
2.440151604997383220e-02,-3.433261686161499966e-03,1.780004080418001733e-02
-1.151041940564960855e-02,-4.651565512997320379e-04,1.947840936857231017e-02
1.298202112719869517e-01,-1.965910873985317331e-02,1.419897883542749206e-02
-5.015897689571473944e-02,-3.206481402716559320e-02,-3.026982709221611237e-02
-5.067116247331016760e-03,-3.182583857636833713e-02,-8.142305202146105092e-02
3.087484164201471579e-02,-2.341355910657116554e-02,1.008759818327925051e-01
3.386646029879488567e-02,-3.711432300919088878e-02,1.472110146452189003e-02
-4.360751341992519931e-02,-1.689002043030234448e-02,-4.485009628291839433e-03
-1.931722019877413904e-02,6.357680018949847522e-02,3.127044061216446152e-02
-2.651168506637203645e-02,-3.569679613843514121e-02,5.729624436708061902e-02
-4.498471583688967712e-02,9.295872461964945627e-04,8.424179121647824842e-02
-2.917662793442759792e-02,1.967449991853239318e-03,-1.327835357353413133e-02
-9.606331008178647934e-02,-6.936256688542903268e-03,-3.692798675277778053e-02
6.102784386605412253e-02,2.543794378081710994e-02,-3.309601661274801793e-02
3.837287157547113886e-02,-1.788617690456199491e-02,3.150210336721304821e-02
-6.983852363820046427e-02,2.071859687587199184e-02,4.395275381868899052e-03
9.496205414475595089e-03,1.401862819748619492e-03,-2.748834705916331986e-02
-2.395349144785557938e-02,1.192229900535645010e-01,5.530031185543691358e-02
-5.401023369568495186e-03,-8.100665187539633078e-03,3.659200794534286927e-02
3.653242577436049271e-02,-4.607213401936566949e-02,-1.396802532659995738e-02
5.289154175213300196e-02,7.342044975372252411e-03,3.146433764529815713e-02
-4.537169657629433472e-02,2.539263725135322905e-02,-3.107470185350269185e-02
3.239009863360420988e-02,6.076124412205610031e-02,1.210467896677580590e-02
-4.145094911218989708e-02,-9.800264056818646513e-03,-1.727520467219508665e-02
-6.986334120833214388e-03,-6.841264836862735732e-02,-9.422482313194603665e-02
-5.466943916303332318e-02,-4.360829848987134855e-02,1.420934189262775850e-02
-4.015088370519404211e-03,-1.493655751998351940e-02,-6.934632664072357122e-02
-1.531316102826418488e-02,3.396167316005295478e-02,4.329244643494321171e-02
3.621107797034672088e-02,-5.915128240510135471e-02,3.598951951231892099e-02
-5.467725855555577441e-02,6.137701928240405641e-02,9.343738678255132657e-02
-5.123388568283855291e-03,5.727128095111125305e-02,-3.432179615291913038e-02
3.829577129008863989e-02,-4.678058878687686717e-02,-3.882527162224481965e-02
-2.750794810725058683e-03,6.904866349076002434e-03,-7.084296514875806396e-03
3.310883208981046238e-02,-6.100492748109356822e-02,5.581821998431858028e-02
3.983547369984049430e-02,-2.008095560411061412e-03,2.322653191593577679e-02
-6.080802408620737676e-02,2.423105043595604607e-02,-4.202273186957548867e-02
2.658568438884695642e-02,-3.845816093201348713e-03,2.187833984828006784e-02
4.675394543796090006e-03,-4.212372036196706387e-02,1.634251837916285768e-02
-3.877835164618659985e-02,-1.150733161047430737e-03,7.759886455718266463e-02
5.254162408688924785e-02,4.584740200687989486e-02,-2.775709527985031899e-02
1.926003567197205613e-02,2.564566619605072872e-03,6.609717357790059755e-02
-2.359325818395806990e-02,4.204208858116834091e-02,-2.284475644113000484e-02
-1.798551184397645039e-02,-6.376958379104853691e-03,4.052608458931473978e-02
4.516973560999491127e-02,2.703417040781580863e-02,-3.490105325435448325e-02
3.902823391959834437e-02,-1.119327503772452222e-02,-1.317010263071627559e-02
7.920412622388657911e-03,-1.614717927992386989e-02,1.022532945043638647e-01
-2.192922416193649957e-02,-1.042714543462055360e-02,7.858311144216191535e-02
-1.308032422418471501e-02,-6.976109302078728480e-02,-1.238051392541295904e-02
3.775139517239560483e-02,2.919248036211210054e-02,2.682292387721011296e-03
-1.446195114472507287e-02,1.207638160392065507e-01,8.591691489628411338e-02
5.078673818933961137e-02,5.784888472326769199e-02,-1.030359515346573329e-01
3.744727894043239913e-02,-2.761494231607622592e-03,3.243046825360235749e-03
-7.847575618177388135e-02,-3.506667313042996503e-02,1.031029947116214179e-01
2.287904993320203501e-02,2.880587830947559450e-02,3.487609394076605224e-02
-1.390970970036334020e-01,-5.606879814583500855e-03,-4.789216066770560915e-02
1.364979589481223922e-02,2.332554759650182219e-02,-9.718631368020275857e-03
2.778136609326364165e-02,7.620672129049033128e-02,-5.168856888400135546e-02
3.950821616055573415e-02,-1.284849063602801489e-01,-2.332998983752968339e-02
-2.624145428701377819e-03,2.142409118721295622e-02,-9.968589683151830166e-04
-6.358247665248989433e-02,2.846842195161588748e-02,4.911950244261432952e-02
-2.441583347943125301e-02,-6.556750649799313047e-02,1.143067550945400454e-02
-6.771489087270815554e-02,1.646080450185984090e-02,-2.257348472008461997e-03
3.920390273036603035e-02,-1.488883971855256734e-02,7.834164587015760017e-03
-6.026511821490829202e-02,7.769883684735551244e-02,-6.206168812792751954e-02
2.902631134666210783e-02,-1.371366718780010589e-02,2.604766615097150670e-02
-2.961959987962626412e-02,7.920886507682745048e-02,4.088015081623814009e-03
9.559449167466703076e-03,-8.009793559675232322e-02,-2.151718524152298681e-02
-7.580780722234080338e-03,-1.956389676838803451e-02,-1.774821186243521684e-02
4.012877394563806738e-03,-1.500679662781155468e-03,3.626167613844603899e-02
1.324691805081352342e-02,4.082083334554859749e-02,2.321821687350780414e-03
-7.804594437536317708e-02,2.172841828516973439e-02,1.929088638313838228e-02
9.389791167118922977e-02,-3.026757116681806636e-02,-7.209762136341964223e-02
-1.700780838543030152e-02,-2.394061564051835900e-02,-2.327797503129188164e-02
8.014324648449545896e-02,8.337541420071813147e-02,-7.106203051024041935e-03
1.955819247419784621e-02,3.383988041534383151e-02,-4.747423748663454762e-02
-3.269557550467824120e-02,-1.474783702034900175e-02,1.262350874678373237e-02
-8.437855882262226132e-03,-5.538539108201173677e-02,6.953331306392847820e-03
2.195737996366542780e-02,-7.225072262590791217e-02,-3.845878961319684070e-02
2.512761780005609916e-02,-3.520221395668114706e-02,-2.131254584421310438e-02
-5.530755716884547257e-02,-1.978417531970638396e-02,-1.853480375785439629e-02
4.085444098831070986e-02,-1.531157410897195960e-02,-6.457684770465310642e-02
1.262108522963343617e-02,-1.009237442210307312e-01,-1.950330083352584329e-02
1.496721271419913140e-03,-1.485264873985791970e-03,-4.033649328313143601e-02
-8.426052490884659851e-02,3.864202777246283915e-02,-1.734237283525686887e-02
-2.715312999634846708e-02,-5.415463063130539906e-02,3.148066276675834385e-02
-9.092747675899520710e-02,-1.863805431273461363e-02,-2.105538076190369146e-02
-8.147056572178115741e-02,2.116113124816697538e-03,-1.270907112319758642e-02
3.068423100125368397e-02,-5.892929112941208691e-02,2.797360775629363638e-02
-1.154102394648391303e-02,2.599580678609232295e-02,-4.463754917182413684e-02
1.010569672661215390e-01,5.249473927265276701e-02,-4.890239845845156808e-02
-8.627425395626114879e-02,-2.212539578080659555e-02,2.886447549426950782e-02
-8.479189973049013063e-02,-3.696388707739792917e-02,-1.476641429177538364e-02
1.427891850130405538e-02,2.506014771473937322e-02,1.210742288710433233e-02
-3.520510682474656955e-02,5.092719813076061058e-02,3.529960498445357253e-02
-9.421735170704691187e-02,2.708003819143998958e-02,-3.277180715824766499e-02
1.910897777712377774e-02,2.610841266786531611e-02,-8.803611531019184255e-02
5.758894107634236759e-02,6.037464063994735057e-03,-3.224926588425650748e-02
3.367659273057390518e-02,-1.372281695713717040e-02,-2.910622998607081610e-02
-2.818400423896999865e-02,-2.972704685661385626e-02,3.631007403837422515e-02
5.289424059799385791e-02,-8.950061033556386270e-02,-2.463148789912424173e-03
-2.788477087226025591e-03,8.187608524159302459e-02,-7.654228089838944994e-04
2.049384805196464640e-02,-2.663748437306690670e-02,2.816577806101406081e-02
4.126693391428987862e-02,-2.266377376653629094e-02,-6.482969369833785876e-03
-8.570640404296168621e-03,-5.368632126531892174e-02,-2.367156065917097249e-02
5.581557453102199001e-03,-3.401046815002199686e-02,1.364129669050348666e-02
3.519030129467021900e-02,-9.122228508668219979e-03,-5.954477998019130566e-03
-3.343599397089216940e-02,-1.083816388957538302e-03,6.271755409959681171e-03
5.734860031105358524e-02,-2.576565486003446620e-02,-1.434023738186932656e-02
4.379421727004380316e-02,2.915142237450479845e-02,2.402009949575209177e-02
4.317782028201398725e-02,1.018649256642848860e-01,-3.467121470665634163e-03
-3.480129127874161121e-02,-1.049281978668259105e-02,4.269965332311190243e-02
-7.146825643363124980e-02,6.878393267491038354e-02,1.618464903873547203e-02
-2.164307220470644208e-02,5.180019577373621426e-02,-2.148869592626206221e-02
-2.693960804149813856e-02,2.378674210809618439e-02,3.740371267830248925e-02
1.041468374919629451e-02,5.973846447158437378e-02,2.490306172993807243e-02
-1.677944807635024446e-02,-5.981207596395396453e-02,-1.521879357653439097e-02
4.421109309021086647e-02,5.615589879579224730e-02,6.552321617882957139e-02
-7.877185471761612504e-03,1.750701728514237471e-02,6.001829114847681904e-03
-4.908118633482069088e-02,3.778234194081378679e-03,-3.093564664156974939e-02
1.532950945862141846e-02,-1.536540610664649011e-02,-4.116732538289479687e-02
2.877939492467523550e-02,1.265784588442420838e-02,-1.471107793207582226e-02
6.785172514297738156e-02,2.721603826259931871e-02,-8.549147164933489388e-04
2.435284294580151998e-02,-1.360352753873927262e-02,-4.144696792694139986e-02
-1.967514102205531953e-02,1.276143069753772792e-02,-6.473248761882867408e-02
-3.274400671246476685e-02,-1.882729528674786761e-03,1.116886467236458819e-02
2.644302252443845799e-02,-3.914257453097903100e-02,-3.259483714742972271e-02
2.695264616525636439e-02,6.453777934258579305e-03,1.097121104936026829e-03
-6.748759128468791169e-02,2.138589303576657330e-02,-1.644416274593059335e-02
4.689745570971873279e-02,-6.126745488461264773e-03,-1.398834879017714014e-02
-4.241468989542030582e-02,9.608871209226049759e-02,-8.214553357135596576e-03
-3.524287725925150105e-02,-8.907971498550099412e-03,-1.886080328569242348e-02
7.634901574250799183e-02,-4.164316979359764664e-02,-3.909947814533854676e-02
5.402438465515481403e-02,1.052098970444542286e-01,-1.298627171955645844e-02
-1.097575797788221952e-01,-5.011989053558582596e-03,-3.419621257289779531e-02
-5.223461364985990119e-02,4.251787593225139078e-02,-1.967143912512408013e-02
5.846066571091373953e-02,-3.494838379740381612e-02,-5.911225494830520122e-02
2.719446074897288040e-02,-3.527623537421606392e-02,9.217986708549490149e-02
4.543765781264141185e-02,3.035710470900295291e-02,-2.625616348321688914e-02
7.162392144599505350e-02,-8.322193466157888631e-02,5.082356402614580937e-02
-3.972879290940672242e-02,7.455213439278171594e-02,-1.891857328403289198e-02
-1.115786550297833898e-02,5.936114222390959094e-02,2.580393659779789406e-02
2.163805949310594265e-02,-4.556200073790045088e-03,-1.578347819047703701e-02
-1.081263297066035675e-02,-1.055125266399688094e-01,3.693208479194565186e-02
-4.806188817585523021e-03,-9.106025485946307729e-03,-4.441244003760843641e-03
-3.979798065948664254e-02,3.459755382594804224e-02,-1.716422039155589968e-02
-2.666514527012791083e-02,2.808103828309121627e-02,-3.331767558613319465e-03
-8.780836561616199923e-03,-3.582307867599540674e-02,5.318555045687477223e-02
-2.278122694020323982e-02,2.061014561292034281e-02,-1.548848747115846858e-02
1.236621880635246917e-02,2.473021368287139574e-02,1.231652343253019852e-02
1.447156413431730307e-02,2.346567829188767051e-02,3.975028530402052729e-02
4.426723781786835732e-02,1.124228899864548013e-02,4.086480979894280968e-02
-3.530055144901430436e-02,1.527766415166375603e-02,3.536108079542261973e-02
-4.905440145272754043e-02,4.733006393631064568e-02,-1.000311943504800585e-02
3.312812769955582413e-03,-3.191232828534666666e-02,2.138530896808812573e-02
5.688515213655494229e-03,-8.248100818727714667e-02,2.801930899798859079e-02
-2.676131431125831905e-02,1.452437892132418633e-02,-2.432231277324187896e-02
-1.739977751498872349e-02,-3.475452447964898911e-02,-5.452752123466696188e-02
4.382559616601005778e-03,7.740126525661319978e-02,4.300892992100902729e-02
1.198336600003665521e-02,2.192821129370156694e-03,-2.678401606035827817e-02
-3.796157193736088981e-02,-6.657364441955622436e-02,-1.615982454036285487e-02
-5.517360935481565708e-04,3.996347194813539005e-02,-9.031943156591596203e-03
6.938842075327408820e-02,-4.623329190795618694e-03,-2.471483463641906131e-03
-6.626145559782999073e-02,3.965664752588899528e-02,1.374115103720494925e-02
2.008181443457216289e-02,8.393654393806075642e-02,2.905512523473991263e-02
-9.968916025459481287e-03,5.980459566427881631e-03,4.733205086501111880e-02
2.257957464435201081e-02,3.837066556819726526e-02,-4.174633549194618071e-02
-3.818393484005846994e-02,-8.384806180622611516e-02,5.305116854969316176e-02
1.114614490196975992e-04,-2.489770709426569403e-02,-3.153400437495806289e-03
8.978100740724108408e-02,-1.606713290597709329e-02,-1.354762963302059420e-01
7.706394691908159678e-02,-5.266524042854654579e-03,6.763533916708404370e-02
-6.511182301168014913e-03,6.458242342540854164e-02,3.426067765858119979e-02
-3.215385440782794063e-02,3.348720721636437581e-02,1.581361111375816086e-02
8.681205295798423080e-03,-8.365579614237256267e-03,7.090451809921322068e-02
3.783052782174940037e-02,8.832871555720106516e-02,-1.535313827246087733e-02
-8.288123948104400215e-03,4.902245291293261253e-02,-2.414787341304387366e-02
-7.335264541700028951e-02,8.747787135147168380e-02,-1.125558909554195824e-01
-3.623770538411610204e-02,-6.300788416316461214e-03,4.666424921376381707e-02
-2.318018889798275847e-02,-5.322033683790826364e-03,-7.409705912900632629e-02
-3.309426771111882021e-02,-4.266484924526216943e-02,3.970345252343913944e-02
6.156216784048804819e-02,1.008791019649243155e-03,6.326800581364185050e-02
1.120983022745902042e-03,-2.338141043585898957e-02,-2.919043437445782013e-02
9.271049853035628896e-02,-2.170640473238502621e-02,5.359338320781578680e-02
1.045733260526690057e-02,-3.185280776324599106e-02,-5.358961578430107391e-03
1.260987250819818129e-03,8.688503426643014171e-02,-4.084571815845054743e-02
-1.735225309580466085e-02,2.438657355272019767e-02,2.433995059067691966e-02
7.270539198271079584e-02,4.195139363371652719e-02,-1.430548539728237686e-02
-9.730510545403417422e-02,3.925047037597591271e-02,1.886568244402612310e-02
-4.404960575828397590e-02,3.832513655474603653e-02,-1.552960290324929653e-02
9.980163292358822102e-02,-2.785937284544573456e-02,-1.114078891774219690e-02
4.178529491372407617e-02,-6.811085663104829435e-02,-7.262129088951335687e-02
2.189077065780059561e-03,1.234275189328726610e-02,-2.952424301427847286e-02
-5.432150385435701584e-02,-2.721189582950889543e-02,-3.825104265488896843e-02
4.973543880421471552e-02,-7.455420237267727963e-03,-1.644102720720987121e-02
-4.619910105833212495e-03,3.811709650997839594e-02,1.633380162763316268e-02
1.659642184873723683e-02,1.072423494309094477e-02,-5.184562179724599290e-02
9.592465693199781970e-03,-5.075620521531238639e-03,6.872814566948511235e-03
2.720970146152744754e-02,7.875651865597542434e-03,-2.439305083089426951e-02
-6.851106869918020814e-02,-2.535496346907649759e-02,7.063849231520259730e-02
2.171291896015703493e-02,-5.494717722998102710e-02,3.393251502911503320e-02
-6.615401655180454255e-02,-3.036519527670821991e-02,-2.342603416757564963e-02
-1.310453977100669958e-02,5.380842892957672652e-02,2.925170806076417274e-02
1.153295037913984467e-02,2.127533876362425538e-02,-3.074833760122649626e-02
5.552101977378192527e-03,-1.758697810803695055e-02,-5.148021597023844098e-02
1.721754941555272977e-02,6.793424789419438836e-02,2.018401438660041153e-02
1.382918618109612273e-02,2.996759405305382193e-02,-5.014081862461619576e-02
-1.539482936405134686e-02,-9.140662233095123157e-02,-6.874745279232824524e-02
-5.719686359400277115e-02,-4.395675927229943103e-02,-3.686050731483242471e-02
2.414595058854164880e-02,6.070303763016783594e-02,-7.058435023747486325e-02
6.748117101596778911e-02,9.090441300164099625e-02,-2.305572107089289349e-03
-3.763447367770578200e-02,1.209675130616230491e-02,5.425962186025116984e-02
-6.396750191297388699e-02,1.178106695096715895e-02,-2.601136593848669618e-02
-7.967656137048075016e-02,9.352652854296764767e-03,6.410940576883319975e-02
3.420283668594260168e-02,-2.420014721126375820e-02,4.391312094718066716e-02
-9.669920304696875621e-03,5.517086357724340639e-02,-3.957233886316707805e-02
-2.183879229525680782e-02,-6.024508697357313508e-02,2.113084569769763457e-02
-1.215219965353044745e-02,4.775486082253669468e-02,3.894931156827111107e-02
6.420094461558101262e-02,-6.293978146841890109e-02,4.271426806775868723e-02
-6.493282759375094970e-02,4.615929837095226855e-03,-1.797705451428054449e-02
-7.704077558989565200e-02,-8.725159233345757340e-03,9.469106026878051571e-03
1.092880718183299182e-01,2.814855780561284233e-03,-4.608566970535676877e-02
-2.257833954939442167e-02,1.940274590113257730e-02,3.156801949450446787e-02
-1.703461001007642792e-02,-4.524703845642870370e-02,-5.667874458988701042e-02
-5.484284769221247496e-02,-5.214698097329344140e-02,2.999549886825724279e-02
1.910564512412290736e-02,4.198254599492577677e-02,1.709047663034973102e-02
7.599048601961723437e-02,-3.758961950686553338e-02,-2.991114487107295484e-03
2.978215105181117664e-02,1.520861355429011484e-02,2.674730083509912343e-02
7.047135788438976811e-03,-9.277976195708532992e-02,-4.528262854800445963e-02
-3.025492875100223994e-02,2.538764611623209322e-02,2.478356481496337554e-02
3.753460113314555026e-04,5.274630593255486000e-02,-8.710624309459203199e-03
3.295517719835079629e-02,-7.237635729921997052e-02,-1.186824041389383973e-02
-4.668449439940612622e-02,3.204666564272019152e-02,-1.861022022700514408e-02
2.965598340507004382e-02,-3.071684471146906778e-02,1.205524808026041048e-02
-1.867705203359722524e-02,-8.839665385071174622e-03,1.124456333912073613e-01
5.220193723977056138e-02,-5.557080910730337331e-02,2.556929514216980254e-02
2.107791015543284199e-02,-3.834124358853142900e-02,-9.177042914604182158e-03
8.997491007180856426e-03,-5.141452373094229471e-03,-4.762115499996347201e-02
-3.035900081120990884e-02,-3.541252858653655411e-02,-2.862757752733197797e-02
3.200155992741071653e-02,-3.352610541295057006e-02,-3.052134223090956916e-02
1.258873585492750746e-02,9.122970465209477488e-04,-2.080415856536488826e-03
1.302032294260892509e-01,3.834543219601990738e-02,7.610285530754132104e-03
7.082631514624672386e-02,2.658442775875337685e-02,-1.984851120379173620e-02
-8.223171569486481536e-02,2.257925088272172594e-03,-2.750704052394532112e-02
8.914352173545520008e-02,6.891477636208162560e-02,3.514504691058908253e-02
6.501187614857172059e-02,-2.292663197561308625e-02,6.384774621527462835e-02
-5.247871280928034093e-02,5.387334011821723421e-04,-5.505713139289471203e-02
-1.492338570053702504e-02,-4.885635665977053343e-02,-9.825467667467597740e-03
4.824655028808615825e-03,-1.131659901416171227e-03,-7.021381251648688149e-02
1.783729868137270622e-02,8.695175871762213238e-02,1.659118072647229603e-02
-2.990859262875495209e-02,2.196743998079033963e-02,5.090080804035393425e-02
1.801565186872998783e-02,-1.125916421393287695e-02,9.604504107985668837e-02
3.934796471083553543e-02,-1.627673816057005445e-03,1.013676352234333961e-03
1.456662047840556404e-02,1.117708142659995171e-02,4.880937194597018136e-02
-1.752161203256828725e-02,-6.166014158121595201e-02,5.024291066131746086e-03
7.933225237381519301e-02,3.220038055439439911e-02,1.068275872512464489e-02
2.368790766949701102e-02,4.216127120267171291e-02,-2.743374571740027704e-02
-2.871602747567537613e-04,-4.219112450009358112e-02,-2.569153634935919181e-02
-4.031973531694661717e-02,5.145819951433561884e-02,3.189458937498501623e-02
-1.440817004839964506e-02,-2.058973894986702770e-03,2.791889578903514885e-02
-1.479726946392329913e-02,5.884421566218953070e-02,-4.907386107122641006e-02
-3.415431425558265732e-02,-5.325266703204803442e-02,-1.158377403225937380e-02
3.003885155990333039e-02,3.215937574868138471e-02,-3.708512249117815185e-02
4.743288233476532223e-02,-2.602943442961790088e-02,-4.673445456978415902e-02
-3.491257105707438330e-02,5.690921256712355020e-02,-4.694491123476423472e-02
4.828568415350781295e-02,5.912373779841627319e-02,8.527652105755125292e-03
1.668378133744091631e-03,-6.091285808673609949e-03,3.314561914420960376e-02
1.797602737628459235e-02,-3.067958478393579408e-02,7.056941731406521368e-02
3.925886535776974134e-02,8.703717410831356485e-03,-1.857917822398084257e-02
-2.395981441064751888e-02,1.894292900397752041e-02,3.463798643057513192e-03
-8.730354386459276972e-03,-2.627869717261813176e-02,4.849005667160468519e-02
1.883638246964794080e-02,-1.104602287055916898e-02,-7.028037145474368141e-02
-7.561973681544251202e-02,4.870306536857144097e-02,6.444133859297351830e-02
-5.779760500740765278e-02,7.817511471295895617e-03,-1.632390074666085697e-02
6.409370954887792793e-02,8.151899074320512195e-03,2.195643727332446601e-02
-3.472949529253768763e-02,4.639274428773076248e-02,3.528641026347053428e-02
1.472976336114623780e-02,-2.379218046130320355e-02,-5.411776033272312769e-02
-4.209355771754045433e-02,-1.197112153407111149e-02,-1.728950325314124181e-02
2.626779473648207380e-02,-9.324699061378078496e-03,1.057455937005703957e-02
9.546658394455985464e-02,-5.337157496152218628e-02,6.820771613163528757e-02
-3.728149227118872366e-02,-1.143322378878145092e-02,-4.049984084189193340e-02
2.826334807227890225e-02,3.954436077184210474e-02,-7.039393331829277289e-02
-7.233669199044997144e-04,-6.303142416492324429e-02,2.712555216322929882e-02
-8.448068301369592026e-02,1.929191244888539894e-02,8.947214503121332999e-03
-1.751097497472335965e-02,-6.479083460112100177e-04,-3.218958661633311569e-02
4.401677901200998916e-02,-5.974621251389218568e-02,2.757502519157129309e-02
4.572089389857885572e-02,-9.209286726193255390e-02,2.941981457040068401e-02
3.450267613810192868e-02,-3.267546041270567858e-02,1.423290621202192956e-02
-2.664379736389851233e-02,-4.526327735338088465e-02,-5.210978509709748158e-03
-1.259477749998519358e-02,6.841905796805807655e-03,1.934110246212236966e-03
-3.440752461984831340e-02,7.604250229380135617e-02,8.898614104121033153e-02
-3.864965069240505757e-02,-7.979142253704891996e-02,-4.004721153414429746e-02
-3.236769265860934414e-02,-1.880630031906287136e-02,-4.360535679724271418e-02
-3.359027023445037424e-02,-2.345201506613780670e-02,2.509606895054280681e-02
-6.319392001482042331e-02,-5.612135059890164396e-02,6.620545233203490622e-03
-1.410918414520928241e-02,-2.140152090953722011e-02,2.053800304504379420e-02
3.634796459193947657e-03,-4.932395322665534404e-02,-5.957886967271258660e-03
-9.253459537035784235e-03,2.392944883874163417e-02,4.675848863576185371e-02
-1.644990456229345963e-02,-8.421370840509695768e-03,1.062362650175469395e-02
-7.172921722391156080e-03,-2.443850589021997338e-02,-2.910950651944379033e-02
-3.835266917884423699e-02,-5.958188324467873082e-02,-1.106526030657780171e-02
4.074863004411605899e-02,-1.594261966706706640e-02,4.063760985024422040e-02
-2.268057924780769730e-02,6.474686420137137910e-02,2.721335905499883481e-02
-1.658384964157398611e-02,-5.934149982913645288e-02,3.323868011028999203e-02
3.112799710602103670e-02,-1.242557636760937001e-01,-5.499105872845731074e-02
1.102434590947125592e-01,-6.285267983705078443e-02,1.926634513340752183e-02
-3.563143008310237780e-02,-1.949871073545516795e-02,8.611309097117679501e-03
-2.023404021300231545e-02,-4.628338486348206743e-02,-1.209546692163016197e-02
5.733579430994752840e-02,2.142411886634011317e-02,-7.397025336162284248e-02
1.294989916308932239e-03,-6.164141353688562530e-02,-1.967338232706513507e-02
-5.992540810521283963e-03,-3.733428028946405436e-02,1.243193902690697093e-02
-6.256628393607240046e-02,-6.022381896174268390e-02,5.864589231579585976e-02
-2.465351937123331019e-02,-1.642829910608748292e-02,7.716227216158580426e-02
-1.341271669686714893e-02,5.250504493260631234e-02,-9.042490691853640600e-03
-1.145821321353788919e-01,-4.567165954581445947e-02,4.558883423719289896e-02
-7.172517658134376639e-02,1.252267390187620719e-02,1.594964866238061593e-02
6.565410209303045204e-03,4.772902012821676754e-02,3.227852900558771782e-04
2.296745253115223262e-02,-4.133584038577511194e-02,1.484277202848689921e-02
-8.646534519956720899e-03,1.916072139127350180e-02,1.877198921218512298e-02
-5.452220895292914267e-03,-1.869940216330907151e-02,3.157699902163202399e-02
1.300120882967480303e-02,3.068048291668914324e-02,1.504273518947520441e-02
-3.341997245900580477e-02,1.637147107440159802e-02,-5.056754010346773548e-02
-2.647618695274242887e-02,-2.468406720902295223e-02,4.988185654904041255e-02
-6.304619349597991203e-03,4.766847962554573645e-03,3.545030175417368534e-02
3.462952029480385885e-02,-1.824085334504322708e-03,7.188488375341832437e-02
-2.552929637148493303e-02,-6.616686156112921990e-02,-4.197027401841426503e-02
-3.191174774340638925e-02,6.445662447182388781e-03,7.440685957152111396e-02
-5.333908492935826584e-02,-4.376396332228189162e-02,-6.983523484726679442e-02
5.951632517611145368e-02,7.244425503894277862e-02,-2.669413593064896839e-02
2.152924578922121857e-02,6.272325140312610958e-02,2.039801974981251056e-02
3.425631692275625875e-03,7.328217424828717408e-02,-1.536629286953943192e-02
3.126116874796805705e-03,1.129722624877727358e-02,3.218946663361948318e-02
-1.614738854268308807e-02,-1.955328405666748991e-03,1.237619981597399763e-02
7.142821404748160574e-02,-3.104070570733440809e-02,-1.284778295950664284e-02
-1.237006139372037045e-02,-3.180229904838665494e-02,3.580283234667630543e-02
-4.751343075935666321e-02,-6.028970564288752693e-02,7.917871829223013108e-03
-1.979379666894614696e-04,4.495449618739363190e-02,-8.125229337913382477e-02
-3.148383680696336534e-02,1.339536136194909716e-02,-1.223286355859610347e-02
4.951909248488066059e-03,3.374932165776898391e-02,8.323742751247748331e-03
-4.189478556122841479e-02,3.134716116751795623e-02,-7.690635013611150927e-02
2.098731226779615433e-02,-1.623759832829174687e-02,-1.908155185694233175e-02
-8.011298120202466067e-02,-3.532861298107824871e-02,2.804222540078921133e-03
-2.665752330334369632e-02,9.944990505596340569e-02,1.985735083274445256e-02
-1.166567506574734195e-02,-2.438982030852346328e-02,-4.464794845051471561e-02
-2.267398761027087858e-02,5.296053101584239503e-03,-1.225940822109544519e-02
2.106381058971755135e-02,2.764071400625620241e-03,9.330880886461022372e-03
1.980894893407674634e-02,-6.960333610888463918e-02,2.172126842438715927e-02
-6.674983890504951334e-02,-1.768999163352427337e-02,-1.194935134517613635e-02
-6.121400243498909682e-02,4.423482463848296686e-02,2.879524978256562881e-02
-3.240230971244875691e-02,-1.687402436673147640e-02,-6.403879345058758818e-03
-2.234554555775304392e-03,4.387484468585530276e-03,-4.473230261081834191e-02
9.797900066603273950e-02,1.819713519170624780e-02,1.005423279313878010e-02
2.871884857146489445e-02,3.099467610648474775e-03,3.334035166179601106e-02
4.495763225635875104e-02,9.407665202216648759e-03,1.873342543680610317e-02
5.796697567031117160e-02,1.092077980745582988e-02,-8.315103888713849811e-03
-3.060777904969043482e-04,-2.673352729121054178e-02,3.987530810164060385e-02
2.510800387607188891e-02,4.324752934607460630e-02,-6.823231141766408422e-03
1.865502352493893234e-02,-3.491277715242998431e-02,3.370869587777276105e-02
2.504076563115444770e-02,-2.682730606148053115e-02,5.103094811304192957e-02
6.711741732802646576e-02,1.150665310783441364e-02,-2.247141523099619939e-02
1.930705026636872490e-02,-4.418945549377080451e-02,9.121734508549911302e-02
-1.585442404601281399e-02,-2.401817570005440258e-02,2.108866794885169704e-02
-2.833416688156208119e-02,9.897047072649106311e-03,3.125898504544531720e-02
4.318279271714078708e-03,-5.777725366807335422e-03,4.431832128279373367e-02
8.022971508671167262e-02,8.442896393859851065e-03,-6.676737237892872712e-02
-1.935982724858786169e-02,7.893276573150993097e-03,5.528702941397344722e-02
-3.453957907673532030e-02,2.267695944654754894e-02,7.080311923294710374e-02
-3.869011974234425749e-02,-1.027404130848678931e-02,-4.336416238427659615e-03
5.857760042755397883e-02,1.989810165875328593e-02,-2.748136131704196836e-02
-6.698022891511695720e-02,-1.133709717569944680e-01,-1.309306106645827077e-02
2.824250915952579780e-02,9.025347871266585498e-02,4.363346052109804557e-02
-8.617732612837794570e-02,4.586410510751846165e-03,-3.811981516957015700e-03
-1.853193113131998285e-03,1.297060851525234648e-01,2.970213406654816785e-02
-5.167380804928688870e-02,-1.404194765229730898e-02,-4.051922913239572321e-02
-2.439641495585627776e-02,3.420517362325352861e-04,3.957838822828967790e-02
2.648662574071507930e-02,-5.941018141569473542e-04,7.416379969904769720e-02
5.839787507322904969e-02,4.435827630603930011e-02,5.885578695445520259e-02
5.304782881778091763e-02,6.280519574399083538e-02,-1.315862966101819138e-02
-6.647302804054563974e-02,-1.207830623761527167e-02,4.107303229642352005e-02
-1.069497677379768058e-02,1.735532512632717225e-02,1.542912948881998425e-02
-4.249021448982358978e-02,-5.725543576947182689e-02,-1.668178143323249124e-02
5.382086482246210314e-03,-2.237232264738264059e-02,-3.290884579780598701e-02
6.681761560985290116e-02,2.649957154343549059e-02,7.059738133683576833e-02
3.302437329763199120e-02,-2.461880551633086403e-02,-1.141476376798115505e-01
4.221038932985032854e-02,3.539383508926875060e-02,-2.456427124019609082e-02
-6.088123290198513976e-02,1.408512169211165697e-02,-2.046654674247294983e-02
-4.516458005232980993e-02,-8.407760638945030451e-02,-2.063203997408768336e-02
6.175681689451854861e-02,-5.236588951302019283e-04,1.499761222732305492e-02
2.117338303825794677e-03,1.720842684073868589e-02,4.186932808907512654e-02
4.383995570833178201e-02,-4.801685355691247270e-02,9.041575120588131106e-03
-7.809378746543227390e-02,6.871262403845512790e-02,-7.667259741657216077e-02
2.504059669258264925e-02,2.260513151803654822e-02,-2.665119377071164196e-04
-4.904301135581509014e-02,8.234458806670809372e-02,5.492991271071546305e-02
3.679997627703974344e-02,-1.001349705179891206e-02,2.987106248966715435e-02
-4.090393502104691485e-03,4.414701968171727553e-02,4.042091432234668630e-02
-1.202671355257686932e-02,3.642139444339720583e-04,-4.420032877487543865e-02
9.979107745855674005e-02,1.374029150495608906e-02,-2.822709049781528187e-02
-1.539422700663340858e-03,3.370643026338748793e-02,1.297682482510055697e-02
-9.505419237866380433e-03,-6.910553127571526788e-02,-2.045732123838697736e-03
6.000860040439629645e-02,4.151176534115760645e-03,-1.594690793215381569e-02
1.018150247016764015e-01,-2.191650914598533909e-02,1.012731425188884010e-01
5.614725239131547994e-03,2.815545799947549721e-02,-8.557674939258569369e-02
-8.038738007633580707e-02,2.338018990461183944e-02,-3.440192517198449595e-02
1.850376757166714500e-02,-1.229115092516195468e-02,2.593014595687160445e-02
3.846280078941843872e-02,-3.733357216911933202e-02,9.477705109212301859e-02
-6.237224424125433625e-02,-3.032941107201822528e-02,-1.953681650477922735e-02
2.364082531812343457e-02,3.775928276649640619e-02,5.771465669332110499e-03
-4.143549231472915678e-02,1.058816620751333246e-02,-5.156429846196799831e-03
2.000251103582820211e-02,-1.010570317470579384e-02,-3.156069685365738009e-02
-7.266016578118145164e-02,-1.625900355798552688e-02,-6.803925671628929805e-02
3.605869481367865448e-02,-9.700746494196396674e-02,-3.736456798175388783e-02
-2.699147553487068335e-02,4.658321752195067333e-02,-8.217230894662131552e-03
3.929356534013891955e-02,-2.575585984511860257e-02,1.703031960954056595e-02
-1.576702403791390913e-02,2.190089190011663273e-02,1.547420114845953799e-02
5.980025673937483521e-02,-4.404700053579149038e-02,-4.678779905524183685e-02
6.123503394351240137e-02,1.573329821519273142e-02,-1.083920024881958148e-02
-8.224424559350847902e-03,-5.449096809418656900e-02,-5.115566237868798827e-02
5.104380716361645726e-02,1.791501584344359910e-02,-6.324747095731738863e-03
1.902291667348706208e-02,-1.688949469249022631e-02,-1.117772211881898174e-02
-5.304949150310859368e-02,-7.323955348327387815e-03,-3.213908187310188756e-03
-1.169004573522387314e-03,3.892127026614742441e-02,-5.384371149095758952e-02
-3.927313989139110881e-03,8.993277227549442698e-02,-5.858471322228157169e-02
-5.713904324264459933e-02,2.480108172718135939e-02,-5.609927511436122415e-03
3.400118829549167443e-02,-6.503422203295582127e-02,1.327782140673865012e-02
-1.329899410099701085e-02,1.703171581092761608e-02,-2.108347160624018252e-02
9.695585069976288273e-03,4.686588647783249822e-02,5.037369409302550928e-03
-1.899383315241663650e-02,6.436487412431260435e-02,-2.294130961526423540e-02
-4.224608913188501735e-03,-3.470511411071054708e-02,-1.452219305739757722e-02
2.856521311526071666e-02,-1.645152086453727236e-02,3.605658480328583632e-02
9.071102744296941078e-02,-6.368748270953902835e-02,4.749738854491844520e-02
-6.699496310981378766e-02,-4.526880801206441263e-02,-3.243348597480491535e-02
3.702062471974523067e-02,2.043628349028208530e-02,-9.169060979646721787e-02
8.769724915808626425e-03,-1.530598816789181631e-02,1.696277387752838720e-02
1.070467077656410762e-02,9.865131690365974704e-02,-1.445762192400903284e-02
2.658407303380258199e-02,-8.030160179519935104e-03,3.327651535855646187e-02
2.053337720720212894e-02,7.706132239486339353e-02,4.526767079023889806e-02
1.147031607054723509e-03,-1.506575236133698113e-02,1.627954023812155579e-02
-1.715527855314833219e-02,-6.407096789780187575e-03,1.602505241227624236e-02
2.926315531924668714e-02,-4.866137123363176858e-02,-1.633897372738773446e-01
5.845600809174808510e-02,-6.038698928026968449e-02,2.714202658043702795e-02
-1.104584749678404546e-02,-7.503483313007546125e-03,-7.874636523367986585e-02
5.985119316397316015e-03,-1.117095887468752720e-02,-7.055985740904868742e-02
2.092588159821810387e-02,-9.485728019692293844e-02,-2.752820004036320503e-02
6.802318627930768746e-02,1.603330732191613622e-02,-8.590393537245938696e-03
-2.114291888417411253e-02,2.676123806740580285e-02,7.518319508208960722e-02
-1.434921173624570563e-02,-3.723510980612332322e-02,3.573901555691916948e-02
-3.221802081666475664e-02,4.370670089090646776e-02,2.365157168068190291e-02
-1.388870896394611178e-02,8.113218039786708469e-02,-4.671301419756025003e-02
-2.543307744282495217e-02,8.298267779449886028e-02,-2.365235650893398461e-02
9.805075237165807034e-02,-6.895266675347573593e-03,2.405611761772947013e-02
2.434413159387742789e-02,1.104863438154928164e-02,-4.491951647395684560e-02
-2.591177629449386774e-02,-1.537754427222331154e-02,-8.644645869114120362e-02
1.087845509824120205e-02,-2.988240339357808861e-02,4.029937611560729938e-03
6.251107805551909570e-03,-2.492110587347457634e-02,4.952105706271649893e-02
2.656764810255601503e-02,-1.229177961785882407e-02,1.061463618347734117e-02
4.364135159721348189e-02,6.113293217475344876e-02,-1.115639464371778571e-02
-2.198297318851475703e-03,-6.147122203550301270e-03,-6.723992532528396196e-03
-3.148503488836573022e-02,5.941345326057956289e-02,-3.058282775426069550e-03
-2.379660066063391671e-02,5.117015684992239771e-02,3.416851672955049241e-02
2.755214795061293465e-02,2.225405271872464563e-02,2.370442488857398347e-02
4.496652653934517241e-02,-1.364494184190585824e-02,4.703616869349185048e-02
-2.713235755985068248e-02,-3.012370162064561055e-02,1.928998276913576268e-02
-3.256841049165380003e-02,-1.595571332072672280e-02,5.391275001891970842e-02
-3.222189017032108665e-02,-6.802876630664073110e-02,5.155266354155095543e-02
3.452443132035673545e-02,-1.680538048565830000e-02,1.077450501260413852e-04
-1.778970612095025564e-02,-3.165008219456449945e-02,-4.303626919529145861e-02
1.890383261452548451e-03,-1.023150591215808147e-01,3.445371275602631539e-02
-5.073799588649074294e-03,3.421169610807683198e-02,1.341635033412083393e-02
2.365111720571645628e-04,-5.324060241140265125e-03,-2.064394815252165727e-02
1.897036203366953694e-02,5.442977587947724072e-02,-4.230168470319765894e-02
5.747002464448518200e-02,-4.099576642925358699e-02,5.986848824169219326e-03
-1.982478986793699549e-02,1.145048739750371830e-01,-1.275121648624500878e-02
6.284613281657874806e-02,-5.728337567413410020e-02,-1.313210000942992110e-02
2.323433332792626484e-04,-4.731409113455505196e-03,6.457908484216860756e-02
-2.783580606484767003e-02,-2.731880261192737303e-02,-1.758930463741874284e-02
8.233733876641302976e-03,-4.885366420148773425e-02,8.214708287387642582e-03
2.093023703843982508e-02,-1.169820748682584913e-02,9.955328428749053715e-02
2.405516158978459121e-02,1.401399861462362950e-02,-2.407138551624740663e-02
-1.076127072087405823e-02,-6.910211591420589890e-03,5.808119353857017775e-02
2.184465443680053479e-02,2.329097205175413229e-02,1.426158331037294912e-02
-5.460812020081717323e-03,6.905898417779077203e-02,-1.535743133710317301e-02
4.821802994952621019e-02,1.050622872498722243e-01,4.045306504237219242e-02
-2.668965930734118822e-02,2.451153311600656488e-03,4.280376934107694986e-02
-3.970469995574927441e-02,-3.208985690201201363e-02,-2.985627895140489582e-02
2.221394069156073722e-02,-2.407629059086539153e-02,5.388261717876857704e-02
-1.143175011097823796e-02,-6.673470904357878437e-03,-3.260133764124294176e-02
5.864086088529701923e-02,-5.322987574223584512e-02,1.686546347358296866e-02
6.762222752292229577e-02,-9.733328140929620176e-02,1.388838318130954791e-02
-1.619555368281131932e-02,-4.871632632296898219e-02,-3.454394581979981782e-02
-1.650967911390592222e-02,8.411478330956881355e-02,-1.804717553897091861e-02
-6.794514481465528666e-02,-2.000374915436230541e-02,-3.616705844014193871e-02
-1.739685990831327939e-02,1.068697077130478616e-02,-2.212085087825259137e-03
3.654825382281611662e-02,-5.836272784200084024e-02,6.336083128510002285e-03
-6.676816190069469192e-02,-1.624241757382573897e-02,1.346912526925169926e-02
1.213145735003958413e-02,2.231521145043832005e-02,-1.038945162257071293e-02
-6.008996653540024657e-02,7.574617216924199592e-02,7.116332249842020896e-02
6.021482768440934719e-02,-1.290377731153494363e-02,2.294687525914674772e-02
3.934311271113731523e-02,8.736512468828562528e-02,-1.159008618346596409e-02
-1.685474832654521721e-02,-5.235219690700931156e-02,1.466513569092874622e-03
4.554390976711735622e-02,1.919276380344536390e-02,2.924332407657585092e-02
-8.018123806123003683e-03,4.482489577444119522e-02,-4.347171958291816407e-02
-2.573017038046144372e-02,-1.761099638360212258e-02,-2.070538678965438972e-02
1.810651924489567813e-02,-4.282021674902714015e-02,-7.382850112368380402e-02
-1.483855800986350754e-02,5.458265407513412937e-02,2.181892967116245974e-02
-2.802271750705236444e-02,-1.497171085259139424e-02,7.616644621420011474e-02
-1.475401731134623751e-01,7.924710044596339209e-02,3.747103435926949638e-02
4.994613938718302920e-02,1.572218376174929280e-02,-7.721621193422466278e-02
3.889222011639406618e-02,-5.354711508138165765e-02,-5.065919225291950351e-02
-1.101493035293671201e-02,-4.534104853984805006e-02,-6.462188882319507000e-02
9.745058445875162331e-03,-6.068372320566955275e-02,4.642200168797690207e-02
-3.922307055132515097e-02,1.046853823690272953e-02,2.034757898103374887e-02
-3.092977391441397578e-02,4.261302504514750261e-02,5.341328581852652913e-02
2.295830744312123833e-02,1.704962382524211062e-02,-1.673769975501758142e-02
2.634618249044354960e-02,1.748557056955425335e-02,-2.306928987945661494e-02
-2.137110476845593271e-02,-1.812624467910002243e-02,8.902817575401973833e-04
5.700211293510692306e-02,-6.657713312056523502e-02,-3.040010299919798306e-02
7.003537433370095669e-03,3.059924715665558823e-03,4.143538923463153251e-02
-4.264249374645832924e-02,-6.762291176808236937e-02,-4.679943209378397556e-02
-6.407216711694130318e-02,1.321027648565006526e-02,1.955450534891718314e-02
4.558612546607306026e-02,4.930010413560494825e-02,-6.276307337675449127e-02
-5.400096634409830981e-02,6.994228029867790436e-03,2.061887704313041317e-02
6.743521252497697294e-02,-1.686992373592093031e-02,2.382782229184473091e-02
-6.751377889989630676e-02,1.743561981699678562e-02,8.406913880321686960e-02
2.567825349083539821e-02,5.147621710229845216e-02,-8.360841756812095737e-02
2.025193530237342316e-04,-5.953283860554951096e-02,1.639085646525638082e-02
-7.708531054168561714e-02,-4.652593420745598091e-03,-2.389234140571489667e-02
7.098249406026989859e-03,7.674935162580474868e-02,3.400142023847398803e-02
-3.272666896694953476e-02,2.326974564611522869e-02,-2.861157388741787655e-02
2.411263478276824343e-02,2.268848044805524961e-02,5.549621716842606522e-02
8.088211106170227482e-02,-6.956921339837368774e-03,6.579100171323491730e-02
-1.455734137115574645e-02,3.750152867635496434e-02,1.673834401997946475e-02
4.322424609042643112e-02,4.633708626262410257e-02,-2.997099261731221362e-02
-1.097511398931803189e-01,1.819022486054956006e-02,-4.180164571181832836e-03
-1.890501369502296542e-03,7.346927830169620866e-02,3.280926081213619144e-02
2.403036856948886218e-02,2.218268751725731985e-02,5.259257696047770457e-03
4.348888038974343256e-02,-3.584685702191305057e-02,-3.570479158373911915e-02
-2.495901443770623049e-02,8.154536301332259915e-03,6.045653294916182412e-03
2.505044639407769461e-02,-5.442197833647627325e-02,-2.929835824618409745e-02
4.978443320601780991e-02,3.035976321581268164e-02,2.626380128569605690e-02
7.246848105883489655e-02,2.714775217179231717e-02,1.695848636174657198e-02
-5.860099522575348829e-02,1.966178299647218172e-02,5.041640101909762584e-02
1.161626897415154493e-02,-4.493268455981742904e-02,5.109077197955518013e-02
-3.773722361631155070e-02,4.433163200684699795e-02,-1.851972921246626894e-02
-2.179922491442013929e-02,9.403484281040147552e-02,7.097055122917253489e-02
-4.204758978367676564e-02,-6.421321506776009325e-02,6.081711102382506701e-02
6.525380528861930707e-02,1.962193372754108926e-03,-3.460258094362941850e-02
2.264773494998295611e-02,1.574076513160852994e-03,2.993136664702310268e-02
-7.999958754419003726e-02,-2.597314438147047336e-02,5.182338275645721748e-02
-3.375655635331279575e-02,-3.595941827736758023e-02,-3.744451935105036489e-02
-1.456467700104018166e-02,-1.703770438006972296e-02,4.001321791760492630e-03
-8.372234962022878646e-02,4.279422749279211680e-02,-5.653806454350573940e-02
4.534094787203300780e-02,-2.497593451199142667e-02,-1.915681335216147183e-02
6.198668596412248294e-02,1.625311496471276707e-02,9.116658329708492853e-03
-4.786776555176946307e-02,1.671740087055139171e-02,-4.414238765081088256e-02
-1.269695272275279431e-02,-5.254588536044646485e-02,1.615821645516697658e-02
6.111534532106130402e-02,-3.793998984541866685e-03,5.237832977634803398e-03
-3.597003156564652221e-02,-3.840189390687409610e-02,-1.341015852410487423e-02
5.021480320487576449e-02,-2.990083294807829167e-02,-5.139730578526694599e-02
2.922048391506867904e-02,1.196987687157687573e-02,8.828459457033201174e-02
-4.904428276706947198e-02,-1.953711733613005055e-02,-5.987749446520307384e-02
-1.581363478857424759e-02,8.255617734734613244e-02,9.333480481518098559e-02
-7.153404284249427481e-02,7.141963862378474491e-03,-1.303543306664255684e-02
-1.504741848948551279e-02,-3.860849118939797819e-02,1.267771742006874348e-02
-6.751927475464819528e-02,3.988188284754128066e-02,-1.523122735137830489e-02
3.742009900355783292e-02,-2.226593624450265776e-02,-2.128916315431718040e-02
-4.581032379900533413e-03,-4.640004225720759101e-02,-1.103619837875802479e-01
-3.765010667084772722e-02,1.896236852915185456e-02,3.508229971782585860e-02
1.885037230480170536e-02,-6.366163502468977220e-02,1.929303568510069844e-02
-1.837619561779652369e-02,-4.179645273044776260e-02,5.943462576268041149e-03
1.737919892331235214e-02,6.861740340507374580e-02,7.162395142569386031e-02
-3.310806732318568452e-02,-4.057177920244853242e-02,1.455587944905061167e-02
-1.016393856502364329e-02,2.197779260996231537e-03,-7.165741883763257014e-04
2.691581841166648670e-02,-1.926036195666880682e-02,7.317532694804299020e-02
-2.676253471453658023e-02,-4.291207521932082630e-02,2.457801061098887838e-02
4.736216854757285127e-02,-1.731710782931444956e-04,-3.682734057251496086e-03
-2.787562947456583701e-02,-3.451742569417884203e-03,-3.271283572961446867e-02
-2.994233056639349425e-02,-1.790904444417725297e-02,2.598290812070353298e-02
4.888578317551162122e-02,-4.600365989294148694e-03,4.175092855149214327e-02
-7.851297689428174843e-04,-8.906240038729647257e-02,-1.042132263795711271e-02
4.624899800292232854e-02,3.412607504509158896e-02,-8.445415743076126192e-02
-2.698909662128849349e-02,4.337827855642338581e-02,-2.395864812285608894e-02
-2.467142842009665410e-02,-4.846755413135378499e-02,-2.048866669418937872e-02
-3.275521266409511106e-02,3.293407884579923131e-03,3.387958967973346558e-02
4.018533872140522129e-02,9.073932553713260837e-03,2.099018355277898831e-02
5.182034213759736940e-02,-3.898601277069465697e-03,-3.224759392809668779e-02
-3.170106037912526209e-02,5.594991047531185265e-03,5.494891581828778571e-02
-3.890628922529419664e-02,-1.977396942240242442e-02,-4.046619139567387419e-02
-1.296004765680331891e-02,7.653232215559281626e-03,7.187745419133279023e-02
1.225861828786355264e-03,-3.382150980364017484e-02,6.594885925789149839e-02
3.909239187112138053e-02,3.692323296174127283e-04,-2.392473819703198543e-02
-3.021644177074485002e-02,-5.110426257427714419e-02,1.940074241117885345e-02
-7.121977264586370863e-04,-2.169777849518086249e-02,3.238579380787671297e-02
2.647820336435506572e-02,-1.419984198919131864e-02,-6.453009933121323267e-03
1.145198669232301049e-02,-1.271214078150314369e-02,-2.861480791958908513e-04
-1.977827500114066536e-02,5.658142422495831408e-02,-7.740760488446895085e-03
-1.805823891252198799e-03,4.005120276298921277e-03,2.165034077049436331e-02
-2.361516553334411413e-03,9.395290031580858306e-03,8.512861404659051098e-03
-2.796260926304602185e-02,2.821307848546560494e-04,3.568495379470924128e-02
-3.936846312493781641e-02,8.703532329247461174e-02,7.836666387117083993e-03
1.275929224611962835e-02,-2.560154425289144081e-02,3.778473382490793453e-02
5.450002689962853142e-02,-3.747848566735888926e-02,7.159934726886495182e-02
-4.550258827047565799e-04,-3.889114344721224248e-02,3.724290289120112292e-03
3.301132996170900308e-02,5.587718821234891747e-02,1.800871563679921558e-02
5.411042247121024273e-02,-7.816385493459766798e-02,-3.429932072561928807e-02
1.759731238196018260e-02,5.736430556639893208e-02,1.141884692128550260e-02
6.765432446585549833e-03,-3.236912243244811915e-02,-9.321577829277913341e-02
-4.421337327570477871e-02,2.659349761098040235e-02,-7.685897370504811421e-03
3.278603542892731537e-02,-3.741692913364503409e-02,1.203225030165851368e-02
7.146171142376167573e-02,-6.588788608892273690e-02,-2.411229455562770643e-02
9.069087125651246334e-03,-2.630056227065492858e-02,-3.793006589671125972e-02
-7.134414267978655966e-02,-3.263805483935296181e-02,-2.028155873170054899e-02
1.688303073255909351e-02,4.564457104730641063e-02,-3.303373126192607478e-02
1.209390808289312162e-02,1.887053491691541990e-02,1.817906211691002610e-02
3.423236947636389572e-03,4.975756270683694832e-02,-5.426776724788026640e-02
4.257766571789716598e-02,8.475069816710498194e-02,9.557049030300596854e-03
-3.188022529536038707e-03,1.373202279172987608e-02,-3.956609382689686705e-02
-5.586492051041637256e-04,1.059698173135201482e-01,-3.134580579724483701e-02
-3.743376244098617356e-02,3.387609365606009115e-02,2.522301106746784732e-02
2.213574979618609592e-02,-3.169983572383217041e-02,3.589103929433696411e-02
-1.523530160580450002e-02,4.092887981587930296e-02,7.305003225477110784e-02
-1.012692958932565751e-02,2.664395850031710256e-02,2.075613040446046623e-02
-2.231522365830097224e-03,-4.755787940510539102e-02,4.115793202078572854e-02
-1.014709832671196674e-02,-3.657017799480499765e-02,-1.834232556685824744e-02
-5.960379483690850244e-02,-7.519017131214528193e-02,2.821843787302138681e-02
-3.164171695673879958e-02,-4.743871063366821711e-02,-1.024866830974919957e-01
8.063336842756982305e-05,-4.018169478760273694e-02,-1.847664216625334935e-02
-1.517046224708879128e-02,-5.336921793566043459e-02,-5.498277794294063187e-02
-2.798105479473160517e-02,4.940002996624855841e-02,1.749757094594931936e-02
-1.054664506184134834e-02,4.608853491741109892e-02,-1.879666274377983504e-02
-5.073739949204046640e-02,1.776958131418199249e-02,4.091970791360416415e-02
-1.800868210229062891e-02,7.534849138087872100e-02,4.560697821424084669e-02
5.695162561187907917e-03,-4.872654346767677641e-02,2.451666220001378835e-02
3.132699328083091150e-02,1.700623474641778030e-02,8.392340537767686848e-02
-5.658708333867538270e-02,1.793911334169767322e-02,-4.335105552057107875e-02
-5.692842390168254083e-04,-4.291307449427687881e-02,1.367912373827768514e-02
-9.404950225589042700e-03,-2.501156108549247928e-02,6.068284930711222679e-03
-5.226010571492537699e-02,3.409869938411606849e-02,-1.066404644906439672e-02
-2.174736859986569487e-02,3.148501393580089690e-03,-3.609611413426801023e-03
-4.702954999733743174e-02,-9.745731615246208679e-02,5.100947435190241255e-03
-2.407457283026118167e-02,-2.570544881276987798e-02,-1.512871328479795108e-02
1.398599501064173682e-02,-2.295706725443920002e-02,-5.351939107863533385e-02
3.141379500814282105e-02,1.198265190774296281e-02,-6.032703465390830411e-03
5.003506573619207615e-02,-3.991334795226254839e-02,3.266849713163386473e-03
-4.299155834657839709e-02,5.628995757201729622e-02,4.359978510566329957e-02
5.161535082463992313e-02,6.051866587260527203e-02,-1.287638906777136862e-02
2.612476267221123388e-02,2.387413251964643976e-02,3.620373688636665567e-03
1.907086907157123576e-02,5.715673343031478504e-02,1.082471794026350700e-02
4.323894667583007279e-02,7.836968842716575054e-03,1.604286849718805641e-03
2.015031692583798065e-02,9.892507826101085144e-03,5.616844764999924695e-03
-3.400802311454959037e-02,-1.702079419426424933e-02,3.994612970913657968e-02
-6.266032605732487111e-03,8.574058417492592954e-02,1.038798977389238792e-02
-1.270493099754139293e-02,-2.193250873199868722e-02,-1.354196467001399402e-02
-7.423387218727429959e-02,5.730499100449822081e-03,2.230289861440997237e-02
2.998109476639505486e-02,6.340126745476781789e-02,-1.919271571481464406e-02
3.955571494397592397e-02,2.473813752773108138e-02,-9.466480525612440064e-03
-4.615426678708890035e-02,6.992011252725978399e-02,-3.086698666619620487e-02
1.116044289553584125e-02,-2.047561017067228706e-02,2.675898433091882314e-02
-3.006387005534128659e-02,1.936892035026407943e-02,3.457960251200393326e-02
-5.750996493580814301e-02,3.697265047280783729e-02,-1.105547413558580910e-02
-1.068783120110961861e-02,-5.984941795881155296e-02,5.960397526608180764e-03
-5.460909839366839130e-02,2.377099356120633555e-02,-3.756002037024674250e-02
-4.543910164516327954e-02,6.675874952868801615e-02,-8.445294545469035630e-02
-4.059462391390354435e-05,-3.314429133066713884e-02,-3.618416504477105916e-02
-3.280399969777710034e-02,-2.109791155440069246e-02,-5.616085332355788551e-04
2.201105735545646168e-03,-4.806960724233704657e-02,2.012219788586827249e-02
-3.930422268216109821e-02,-1.425574127485869369e-02,-5.407566326942763596e-02
8.287992804450151560e-03,5.820396207020954449e-02,5.463547144624450458e-02
-1.808644083705106959e-02,4.197716432141095078e-02,3.084488151197092853e-02
-1.620166452887998251e-02,6.368812071224964899e-02,4.857641141919817607e-02
-4.705506488901543133e-02,2.236356936220726052e-03,-6.532592980094721613e-02
-5.738991603902737770e-02,-6.056556669470539167e-03,4.241231563537101179e-02
1.256356790407962137e-02,1.025699131381940105e-02,-6.773209011442948846e-02
4.949330201214702935e-02,4.118301146776327110e-02,-4.619253499985854355e-02
-2.839715250647987729e-02,3.328705908170536548e-02,-3.554370108150802648e-02
-2.165412170289098340e-02,-1.331822350087728639e-02,-7.913804568468216227e-02
1.951077887029888450e-02,-1.662135299519918385e-04,-4.306983891899326261e-02
-2.331169092347877558e-02,1.867376185158463320e-02,-1.796497102202610071e-03
3.565845156113722769e-02,-1.768307351441522970e-02,-5.704387024367279027e-03
2.472805676076002615e-02,-2.814424143754680821e-02,-5.601321835027216894e-02
7.037605729886147778e-03,-2.709861108318839876e-02,4.901296037965469782e-02
-2.482253507748368934e-02,-1.386302592862679976e-02,1.334103511654650617e-02
-2.385001402694652672e-03,1.851315491101229033e-02,2.996665673229285606e-02
6.793837345613888690e-02,-7.293970291282908525e-02,-1.674930097349075844e-02
-3.578486804581543917e-02,9.393805032973885150e-05,-2.798021768219031286e-02
7.250973607891378347e-02,2.594345015237625729e-02,-5.980782962571286332e-02
4.843839449753117865e-02,6.339804027258960639e-02,-1.556212511590612281e-02
3.637138612493226453e-02,3.001235804915134558e-02,5.127358559163929658e-02
-2.667124211900373867e-02,-6.978726836139514597e-03,2.574349593364606489e-02
1.608538185424909506e-01,2.196653390719217197e-02,-7.806728819295810640e-02
-8.522118476189418160e-03,3.546930757304767035e-02,-8.799666200827753471e-02
9.114696423299760084e-03,-2.079533079204032645e-02,8.277570976050444007e-02
-5.558637728463890204e-02,-8.074274161306416175e-02,-4.016908065563059432e-02
7.200974817235684250e-03,-4.972990474247256792e-02,-7.542361663573314556e-02
1.687177570906690446e-02,-4.301501647692622388e-02,1.212614569319353519e-02
5.514653753334528702e-02,9.045951416162160280e-03,-1.057572951053220300e-01
-7.555467569559483343e-02,-9.631301482789253118e-03,-5.478874221441316569e-03
-4.889843116800942496e-02,5.908889382188814952e-03,1.839962372067550575e-02
-3.385700211098790352e-02,2.055746064597229958e-02,-8.507721854017911284e-03
2.234714359598783534e-02,5.178911228814300077e-02,-8.852066096579014332e-03
-6.390189771545838615e-02,3.464082018542166685e-02,-4.659684359955676251e-03
-3.610499688479389124e-02,-4.327465814099568098e-02,-3.211757775155967692e-02
-9.273504646569627821e-03,4.246258440415874580e-02,-1.231131515188501778e-03
4.166927281255176224e-02,3.808259404809646170e-02,-4.209984320681527505e-04
1.223138474175402418e-02,1.043427520282247563e-02,3.025458540723021013e-03
4.236370003647722815e-02,4.816675922699335116e-02,-5.041269329307860453e-02
-6.956670283958264756e-02,2.063204090194850279e-02,-2.477706121687380317e-02
-4.761443374885760554e-02,-3.674617017561656457e-02,2.872704945998111672e-02
-4.548150273436232793e-02,-3.557559989278240992e-03,5.864231534039124685e-03
1.125441760273757780e-01,-5.400618669647937881e-02,-2.646471663313376688e-02
-1.091823130398318804e-02,-6.886165992844596982e-04,-2.207761094352666750e-02
3.919644391131965611e-02,-3.864236063161490681e-02,3.099270706823258753e-02
-1.674408437224184087e-02,6.830795804277116356e-02,-1.511348056283370010e-02
-6.177996398037960066e-03,-2.539359054470509414e-02,3.807420943119259327e-02
3.075786068550251731e-02,1.772000467341366264e-02,-9.998995750884526103e-04
-7.040245095679735499e-02,4.292066758332060972e-02,-3.910466450232738533e-02
-2.078646193791913732e-02,3.237929714644786211e-02,2.142780246453057300e-02
3.639910487763254460e-02,-2.244177955260299659e-02,5.137130703660826303e-02
1.031206395165131240e-01,5.986287685744630382e-02,-6.110074334740806662e-02
-5.328736784588532227e-02,3.449613943231129992e-02,3.083154462973139096e-02
-3.843659475488465233e-02,1.755653451854796016e-02,-5.109822703157337019e-03
-9.823173346995440341e-03,4.128988369940494313e-02,-3.425090590333876306e-02
9.384778208716422487e-02,3.498545983285777927e-02,-1.242304155612357916e-03
1.333597669611664462e-04,-2.788897321162605789e-02,5.801291165432408137e-02
2.553160842334971717e-02,7.419592081809701922e-02,-1.431657588029567295e-02
4.143335920213524030e-03,-6.571150088633563591e-02,2.627929033774962023e-02
2.699715710054764739e-02,1.794982355964817519e-02,-4.195352790926214215e-02
1.786470019454034983e-02,7.133354623678901663e-02,-2.524901577230664884e-02
1.305427006133625181e-02,-1.276769059107740051e-02,6.772162886958718597e-02
4.331382331330213553e-02,-6.244620192515813739e-02,-4.678932236075438594e-02
-5.165998480267837423e-02,-5.732882410237638039e-03,-7.715418491053859830e-03
1.259476234784383947e-02,-9.156462370568903275e-02,-4.387804102565627529e-02
6.161543231792600273e-02,1.172472358464706974e-02,1.508447719971619042e-02
-4.991237310672819172e-02,1.054479803090914020e-01,-3.646429944850054783e-02
-2.698727562715976663e-02,-1.693825844588480942e-02,5.435569475393326605e-03
2.676188911943310281e-02,2.019403830816758963e-02,-5.744347973341610430e-02
-4.677342029221551872e-02,4.026210959843880277e-02,-2.330996214848722603e-02
-1.642304715331230694e-02,5.065713209517006682e-02,7.198159566236703166e-02
-2.813875356787062451e-02,-5.245293708466831212e-02,-2.386857500761139714e-02
5.111594965075026004e-02,-3.506635555677558441e-02,-3.226938963621830969e-02
3.269639508176853254e-02,-1.307419037417009190e-02,-1.432321905553552745e-02
-2.640275552823444574e-02,4.395892317215767398e-02,-3.072345055337303427e-02
-2.426319152959089537e-03,7.234997173740002896e-02,-4.045187826949270954e-02
1.032895941220362268e-01,6.482854060484433134e-02,-2.080285346553698792e-03
-7.538072546625809722e-02,-3.354210346164630124e-02,6.893533021259938554e-02
-8.952316549185951322e-02,2.729975170781926731e-03,-8.947879070846845306e-02
-4.755950440217060482e-02,-8.186902305040105743e-02,2.993547586727678469e-02
6.843254798219984558e-02,-7.424611916655597665e-02,-2.072013505433959596e-02
2.742549716265823417e-02,-1.357552886275528378e-02,-6.146292986349886217e-02
-2.209151950396441577e-02,-1.240142889524359360e-02,-2.103514049512024420e-02
-1.230395631353479041e-01,1.804682042773031111e-02,-1.287998795571694208e-02
5.582146506181533130e-02,3.175898354418922598e-02,-1.106151565816608853e-02
3.412810620900690733e-02,2.441509034133410722e-02,-7.778615132678043040e-03
-8.189753041052298677e-02,-4.811239339361602502e-02,3.263804963307303381e-02
-2.715961759525867270e-02,-6.957962988419257033e-02,-1.587835668758297986e-02
3.650185089508192066e-02,2.304998290889746781e-02,1.194975460118915004e-03
-3.158323890672400797e-02,5.059621142164823920e-02,9.849824166850063012e-02
3.897738254511608214e-02,5.478021992422964920e-02,-7.051706405287975522e-03
1.762128210836090211e-02,-8.165718615561132210e-02,-4.363162574814796746e-02
3.754808900174164826e-02,-5.826013965772242065e-02,-7.067194299688714376e-02
8.659822790317027452e-02,-7.070736989323310462e-02,-2.026537088590348729e-02
-2.538742949478633992e-02,-3.667487733159131152e-02,-2.969914789749391465e-02
-2.151469026314924843e-02,3.706494189990173355e-02,5.180814199427073719e-02
-6.453271297690534036e-02,5.175370391389141206e-02,-2.504795329001457613e-02
1.714217746197721146e-02,2.814037709135127144e-02,4.340398940592438831e-02
-9.342716525435316999e-02,6.168474121065176813e-02,-3.005583149722234823e-02
-2.989569299133286451e-02,1.317257373086921750e-02,-3.380868308726585510e-03
-1.626516238060115097e-02,-2.288649899170784943e-02,-4.987974452425286698e-02
-1.030876162372228698e-02,4.639298407403442959e-02,3.085182076818152389e-02
-3.698286625642557141e-02,4.776531632801591168e-03,3.534984268891983722e-02
4.797703992679314133e-02,-1.462358055842504639e-02,-7.945341154591661903e-02
1.285370478595997644e-02,-4.003042606940036136e-02,-1.127945165313751046e-02
8.978112471474258838e-03,3.697429518775885438e-02,-3.124572366953898631e-02
-7.770219587908637482e-02,-4.439196343168323039e-03,1.246936017887602388e-02
-6.589539610342269593e-02,7.706730155376949332e-02,-3.039761988377322893e-02
3.870015775948944508e-03,-6.269929106947011617e-03,6.849569818702286317e-02
-4.256277137591720633e-02,-9.148850900747377765e-03,-1.469012912927976366e-02
3.195592675632966118e-02,6.087617186015394956e-03,5.519507025799618577e-02
3.999059646741183471e-02,-9.754543665799357555e-03,1.886991766292570039e-02
-5.961409597996584521e-03,-3.593600247583198654e-02,3.543649125834912213e-03
-8.110329764482275550e-03,-6.145892511251145607e-02,1.535899414742376151e-02
3.147734521532637858e-02,7.003794982003791469e-02,4.351095068288854395e-02
-1.519039893005102483e-02,-9.422794056367936322e-03,9.062736151393416262e-02
2.229175110422243131e-02,-2.594938374451687298e-03,2.681243039760864994e-03
4.547699691965442943e-03,8.038532051483088248e-02,4.666131969712293548e-03
-4.051157042958355298e-02,1.541493217962764707e-03,-3.519879582723273777e-03
-1.525456462039561463e-03,-1.729454577872538423e-02,1.504577837821011524e-02
-1.967255676698888289e-02,-5.836563285285985281e-02,-2.279901018230309773e-02
1.177440526917827163e-02,1.085416923943765752e-02,1.027195401749885807e-02
3.240286186702841242e-02,-3.848713867298081404e-02,-2.269673769459661788e-02
1.105298248275272781e-02,-1.993249207452765098e-02,3.963750504920445991e-03
-9.454977271891890078e-02,-1.106571069456455288e-02,-8.462593538424696693e-02
4.978945577897455829e-03,-9.682610804889571141e-03,-2.613690061932537334e-02
4.939928769214858156e-02,-6.544555926832554792e-03,5.897180138589651344e-02
-1.408787627377193312e-02,-8.163828808414583249e-02,-3.703553225524814502e-02
-2.102942727139654744e-02,4.663297966909044079e-02,-1.469395289272980298e-02
1.174314348414387532e-02,-6.948001668440054179e-02,-2.973006288330790753e-02
-5.703863204047403962e-02,-5.514138327627454705e-02,3.436370165999486082e-02
-9.282887346062274059e-02,-1.999053638941461139e-03,1.693196845605078951e-02
-6.295886749726122000e-02,-4.040584034414058251e-02,-6.097187928871951150e-03
3.615202635083196447e-02,-3.346807261128546124e-02,1.601568445337656771e-02
-2.656642325927172435e-02,3.727041566181263366e-02,-1.169239962448801427e-02
-1.907170931913047124e-02,-2.384193829208915497e-02,2.568838496773305155e-03
2.189820688876267796e-02,-8.814871072657751161e-02,4.707927558041131999e-02
-3.686805167387539883e-02,-1.668095343034325939e-02,2.104540142309170234e-02
-4.677602240764732605e-02,9.528810669229757085e-03,7.274031447711160059e-02
-2.627813333615958494e-02,-3.607567806064961718e-02,-1.973226503739503729e-02
-2.104695614209065729e-02,-3.878074976022666959e-02,-2.647693029948695181e-02
-9.594388243576348896e-03,-1.029204707037433952e-03,-3.930521062346386402e-02
6.383436890959715004e-02,-2.290038547009443440e-02,-5.995159263352723561e-02
2.031501672048529814e-02,1.367026651871307806e-02,2.215133424088597258e-02
3.288028845717127970e-03,-1.786567883342528654e-02,-2.026738219809338243e-02
2.446138495171564647e-02,-4.262019859781601694e-02,-5.409279683489953000e-02
-1.901148897296081261e-02,-2.069017812771585182e-02,-2.663359425789399524e-03
3.495342445822212374e-02,9.942526364474101042e-02,7.934017084651699692e-02
-8.048683784754508130e-02,-6.781719667126352713e-04,5.421766470060918053e-02
1.021221629535999176e-03,-1.164368150731312848e-02,-1.905599978443216214e-02
2.397691416573179829e-02,5.320246027426873275e-02,8.246232523859049757e-02
-5.474537098880858169e-03,-7.378912519200157838e-02,3.206352707010343833e-02
4.721109162523013519e-02,-1.923054668745875946e-03,4.552811997917249887e-02
2.871172645434557844e-02,-2.569070192493207259e-03,-2.308471693056297902e-02
-2.378598970920041411e-02,-6.651417146780852496e-02,-2.065359540293660104e-02
1.530104907626766639e-02,-4.058751860797278274e-03,-2.285674685114897145e-02
6.048664935077100423e-03,7.975560714549191979e-03,2.638486323347814886e-03
-5.542427737715390629e-02,-6.031996490105374226e-02,-4.524850024110295410e-02
-6.205036211369256444e-04,9.618364202190558473e-03,-4.445008710960134113e-02
2.320405326698846485e-02,-4.582559968029987271e-04,-2.450473252537830812e-02
7.524680747066161968e-02,4.403902723135682401e-02,-3.504252196809297393e-02
-2.547707595851437731e-02,-2.134111100218675020e-02,3.104076388315977694e-02
6.403571510818578671e-02,-4.733454338390045979e-02,2.983864281852854905e-02
2.861056231986381163e-02,-4.670260449360152250e-03,-4.430554283384684905e-02
-1.247741283636450045e-02,5.020052002629618593e-02,6.829517338761689066e-03
-3.520511506025754411e-02,-3.781515500144943392e-02,5.030156907005271794e-02
2.271236752808129897e-03,5.180463400373939986e-02,4.535579231334150273e-03
6.436303030594432706e-02,1.915651087636761549e-02,-5.602525455581454199e-03
1.976627387374050443e-02,5.517262624147782624e-02,-4.273716316715643615e-02
-2.745937253204495596e-02,7.247593378112719177e-03,6.118308840891893696e-02
2.358437187453770942e-02,-3.897516196199684452e-02,9.400835289218072849e-03
-2.599812245908116742e-02,-6.215029065003310413e-03,4.134422156303833168e-02
4.551808631325805765e-02,3.989990279488601216e-02,4.266669669101667308e-05
-2.371272146529913860e-02,-3.293334073907742271e-02,1.167111622763486456e-02
1.845471437084965013e-02,3.810130140598764342e-02,6.666061645216771192e-02
-5.572387112415901761e-02,-2.474934377007170089e-02,3.013236966714918225e-02
1.250480317128328453e-02,1.386977680005833588e-02,5.481826978060696381e-02
-3.234049705592789009e-02,-3.368149891111512501e-02,-1.935745206285776135e-02
5.021744161342159979e-03,4.556222475053905291e-02,-1.657784913525859119e-02
2.691188208767296419e-02,-9.294471213551722122e-02,5.022559410779285638e-02
2.365739898999548105e-02,-9.674068054036347088e-04,-4.740897669985745370e-04
2.027499341088149359e-02,6.449670125309673457e-03,-8.765890625615548049e-02
-1.176879846323915235e-02,1.543438058738463847e-02,-2.416931031971964947e-02
3.792394436097957806e-03,2.272117431369232235e-02,-4.918012974844864806e-03
-3.331856672940902708e-02,-3.615591198422719171e-02,-4.490895312489318059e-02
-1.599657695055257609e-02,-1.294836717100266571e-02,1.664739734248913555e-02
-5.711147391874345919e-02,-7.423527192911483219e-02,1.012798201329512260e-02
-1.348050110005452260e-02,3.411295236785592822e-03,-5.313668178371409173e-02
9.655193021038604301e-03,-2.682053472630042262e-02,2.126674922591391577e-03
1.213040211940879382e-02,-3.112699001564391346e-02,4.659869485484262330e-02
-9.855205523302823512e-03,3.812257586278975513e-02,2.451800658933798310e-02
2.169470905390636500e-02,-1.018922623755191305e-02,-3.626571567749156677e-02
2.828887488251303345e-02,8.001653784419946597e-03,1.112888543988519059e-02
8.054165626628449065e-03,6.479304907825060101e-04,3.469565344471561147e-02
5.998704924853013459e-02,-1.315681434060665504e-02,-3.318248466967929633e-02
-3.106526166209504572e-02,-1.226919709539361046e-02,-9.459043267209545081e-02
4.738001731240712010e-05,-1.853497117513169118e-02,-4.690084132295366140e-04
-2.739603358344174650e-02,-7.398347223743897971e-03,5.948421280665393274e-02
2.546871652709553624e-02,-4.962867199579806127e-02,-6.792400821975706771e-02
-1.679380973595346813e-02,-3.278223276313541046e-02,2.092940449529934188e-02
8.841256570094444336e-03,8.684193256679625245e-03,6.155942612645021704e-03
8.896028239440675672e-04,5.696241196860253597e-02,-3.510242429085240479e-02
-9.097641173695064643e-02,-4.374812498215362860e-02,2.785144034667940641e-03
-7.635334933182616468e-02,-5.857977478823997268e-03,-9.556468036489825305e-03
-7.986004660950678236e-02,4.454405924718471410e-02,-4.241961888925601526e-02
-3.769734378888765086e-02,-4.945538140919761988e-02,8.566178936333543326e-02
2.449387062777491630e-02,2.306150109721894284e-02,-1.231073807542017000e-02
3.757813591837980832e-02,3.804165733776598834e-02,1.023206025348945801e-02
-8.136116349114656116e-03,-3.667216481284617940e-02,2.640380772540231596e-02
-9.238356825415561246e-02,4.507765167513201610e-03,-2.853702598081476333e-02
1.511043550198444031e-02,-9.150612037200901716e-02,-5.277799098589244092e-02
-1.278268405445093583e-02,1.109779561087164551e-01,-1.345338534673291321e-02
1.362066553264247235e-02,5.311386506750520424e-03,4.554645746739657830e-02
3.771278490020287671e-03,-1.518829143014937925e-02,1.704021539728224621e-02
-7.161594771985355101e-02,3.170941439082489849e-02,-7.425440470923377716e-03
1.911802487204675161e-02,-8.437934653325322720e-02,4.270465801857342009e-02
2.679562777127767956e-02,1.276482290410841172e-02,1.899348404782184863e-02
4.441218723867128987e-02,8.781501646342196321e-02,1.913019910540891474e-02
-9.134197254239091734e-02,-3.587531118928626202e-03,-8.671297157361689337e-03
-9.638393407151614814e-03,-6.950452298975258458e-02,-4.208639898176257110e-02
-2.517492110734203745e-02,2.904821290433499265e-02,-3.170455111731809023e-02
2.239134686710777741e-02,-8.834061232705836195e-03,-2.137643568129087707e-02
6.645983788048005596e-03,-4.466539524179654816e-03,-7.756148916574619190e-02
-1.368370101430616340e-02,-1.922847712361746425e-02,-1.235637507232506538e-02
1.897030457878745580e-02,4.363308252438730106e-02,3.208571731875112243e-02
6.069024804138811215e-03,-3.569039276842997377e-02,1.828294210978850809e-02
-3.481479138634332310e-02,-1.418661682286218202e-02,-2.185795637170236116e-02
4.902525994418554384e-02,2.239056726636018402e-03,-5.495836465678197169e-02
1.597001690410308414e-02,-2.409147626827368854e-02,-1.830186160231171699e-02
-6.230704278055565482e-02,4.703992556841708750e-02,3.212200541801094045e-02
-8.384863723372845690e-02,-6.217444784255770490e-03,-3.125418974186942866e-02
9.607104109306447565e-03,3.761394514452178709e-03,1.272063420739444892e-04
-2.902513293149373494e-02,-5.591402715118817986e-03,-6.476023817075281241e-02
4.352096898549138310e-02,2.001529146200082404e-02,-4.860164536887898873e-02
2.805751316746188731e-02,-2.072682521161780048e-02,-1.418121462355643320e-02
-5.487122995747977655e-02,4.650115785258712719e-02,6.755387457242902072e-02
2.012718640025996930e-02,2.373045708391264413e-02,-4.940427612039999250e-03
1.204786394158871392e-02,3.057755869981848909e-02,-6.042944528300180085e-02
-6.493226060941452438e-02,1.113160249232414238e-02,4.417332540979384062e-03
-2.813437552781879875e-02,-2.245732400391420649e-02,-5.914759426234988265e-02
6.470337341546364418e-02,-5.470121531225503181e-02,-6.067546617368859210e-03
-1.109868647919712709e-01,6.311211531211483039e-02,8.660639012405572934e-02
-2.038709260544607077e-02,-1.141753602136697660e-02,4.346278455278049062e-03
1.912380486989229134e-02,-3.895882858468850685e-02,-1.137029746592158573e-02
-4.534211471914696701e-02,2.284542630421289300e-02,-5.186730749463450141e-02
-2.778386631926008793e-02,-4.636337955961442048e-02,6.205856991514471094e-02
4.883164443832965773e-03,-6.248436094058269774e-02,2.308328400642912018e-02
-5.536557085101288800e-02,3.782868525037091922e-02,7.807952648939749107e-03
-4.256461048569308743e-03,-7.453824154308778815e-02,-5.851644897647869520e-02
2.525625119536841628e-02,9.445538568332531928e-03,1.187368145498361553e-02
-2.131299119247674623e-02,2.670670387379183233e-02,1.400727077480897788e-02
2.872501297961388769e-02,-2.789670506295336208e-02,3.344337974210993131e-02
3.215232776041834079e-02,-4.623156006733151330e-02,3.917924209846533092e-03
-3.602382640297569633e-02,-1.819893342567069708e-02,1.200642989009513030e-02
2.137710783079457486e-02,-9.310983993215686538e-02,-8.139198531199896836e-03
3.612569254647937655e-02,3.312667269856777591e-02,5.501796029068728097e-03
1.396244532782200433e-02,1.181130785093011289e-02,4.971255504577447998e-02
1.247526051905206539e-02,1.379476059863882220e-02,-1.392043854187890312e-02
6.429421102553356526e-02,-3.578437473390406152e-03,6.047184072015637096e-02
3.783875420626238439e-02,-2.184745012340838163e-02,-5.279716801531825904e-02
-6.129738584138615803e-02,-1.407498492420608538e-02,1.274736471294347397e-02
-2.463235933582395149e-02,-7.501388714867263108e-02,-4.611230259931963643e-02
-2.098305409091533180e-02,4.508201175570109021e-02,-1.667716132370201595e-02
3.688267379717125732e-02,-9.149928813244649628e-02,8.368929690918157360e-02
-5.857583731084094192e-02,1.448784107529891250e-02,-5.279918056839733725e-02
1.271773339268860228e-02,-4.085896718821607591e-03,-4.903954900610764389e-02
2.793564111739688105e-02,8.432482948946723456e-02,3.614173170810271174e-02
9.055114139887991687e-02,-4.428061955967532194e-03,-8.708690145330992560e-02
-8.562066497978472468e-02,4.920786417382524286e-02,-8.619036057577085519e-03
-2.118873596555382807e-02,4.051827320402520000e-02,8.173139501089789205e-02
-6.027075036996069196e-02,-1.967810880470271043e-02,7.383670761273483651e-03
2.094035383653894064e-02,5.716480533266085629e-02,4.816162703584136312e-02
-6.120871336171322674e-02,5.744217461284660022e-03,-1.631678078218779318e-02
1.957129103431890990e-02,-6.082340480372480651e-02,-2.568839665375379985e-02
1.116008138918167872e-02,-5.397971621690884902e-02,2.770773396211478196e-02
2.346115866568238006e-02,5.190916589525637614e-02,-5.435078876487916405e-02
1.170343779023167059e-03,-9.037761932412690519e-03,1.434195346042455846e-03
7.108228996217835771e-02,2.832766536944409524e-03,4.587721238990476874e-02
4.685176803445142285e-02,-2.012595270374064466e-02,-5.115559127874674122e-02
2.821967323344591258e-02,8.082565979020149560e-02,7.113977937296205555e-03
2.526935558166002946e-02,-2.847593259339025254e-02,-4.256968317248924216e-02
2.260759675735676127e-02,3.440286046791836416e-02,-8.342067432891037138e-02
-1.090039978062884267e-02,4.376243099526795806e-03,5.598150858174102268e-02
5.208434239210858047e-02,4.680600412403805588e-02,2.908755233995985109e-02
2.324686282521826533e-02,1.091111700112216282e-02,5.472865166767813816e-02
-6.203028609854269182e-02,4.744618490113181042e-02,6.927649765978324825e-02
-4.659462215599291524e-02,-2.111558804478656445e-02,3.457593339901353369e-02
-1.485001797328674121e-02,5.475665341549575821e-02,-2.294367694513707590e-02
-2.080252674882655112e-02,3.140512154943140427e-02,-3.781058549450678347e-02
1.597500983934151478e-02,5.956040277176971598e-02,-4.104396012271346178e-02
-5.372428800858325025e-04,-5.091446542910682549e-02,-7.706057903038253387e-02
7.058647622504180073e-04,5.452271271477775183e-02,-1.291789431256272665e-02
-7.228334081093179368e-03,-4.127900964497258074e-02,7.449686281275588740e-02
3.307711880921412190e-02,-1.280376752878328861e-02,4.159778249248113902e-02
-4.284196979334021355e-02,3.617689359667617538e-02,-1.095807093221496699e-02
5.407422477628340968e-02,-1.289962466116859399e-02,-2.072851443489429416e-02
-4.195524416890558488e-03,-9.748934529740018243e-03,-3.035823785975641162e-02
-3.267966056156818705e-02,-3.375462616214277428e-02,-1.133491379204899265e-02
2.620215208634255662e-03,-7.139760168731917878e-02,-2.258061565591447037e-02
7.786460262189709436e-02,-6.962910478562396414e-03,-6.856815344987880756e-02
-2.323077083168613444e-02,-6.704426165764554302e-02,6.861697769856108485e-03
1.997851126687635176e-02,-4.369806574237840302e-02,2.248975083179064610e-03
-5.801575033874764586e-02,-2.902666775681652083e-03,-4.278662353527440398e-02
-4.361518024810546318e-02,-4.317692691742402306e-02,-2.121788315774095213e-02
1.880440407992054266e-02,-2.386761624161634621e-02,-3.525776898431862844e-02
9.466619066599049961e-03,4.893079151409794039e-04,-3.726557982807251514e-03
1.245271523727155792e-02,1.792177446184550424e-02,-4.578444649073928896e-02
-5.553676846872985379e-03,-5.711450838507185074e-02,-7.944006046611423039e-03
-3.865939191370310057e-02,-2.153127637377534251e-02,-2.142974594405265554e-02
-1.869086954778933010e-02,-1.241533621822363612e-02,-8.061513711881060362e-04
-1.250525101615265191e-03,-6.143377744693726168e-03,-1.200879952586980833e-02
-2.724234465446258996e-02,-2.651837887431752333e-02,2.985143600513534556e-02
7.547346549068982037e-03,9.896511293690245931e-03,-6.872358726006208562e-02
-1.808717328778769104e-02,-2.137149639127300729e-02,-1.115092121252392841e-02
2.717734042297419161e-02,-1.715164901308787251e-02,-3.091179871877290999e-02
-4.895255661380359946e-02,1.751990682036685953e-02,-3.793043780052410274e-02
4.501418283483656080e-02,-2.676629934181948972e-02,4.721484214291960663e-03
-2.443083610074111775e-02,7.168936342519309675e-03,-2.944853352654863698e-02
-2.514288663097212929e-03,-5.454040878599800829e-02,5.721418692880042220e-03
-4.407532064625338530e-02,3.268994949421259039e-02,-4.347923193606333114e-02
2.519476204180663703e-02,-2.653525618319259663e-02,3.149832579510185998e-02
-2.227406058427627497e-02,-4.549714988501257773e-02,-8.173594565859441941e-03
-4.616487356821755150e-02,-1.021867332448735946e-03,-5.912309373525492795e-02
-3.341990971194765125e-02,1.517639930916975764e-02,1.731214708013469484e-04
-2.216073783236981870e-02,-3.047358845892383580e-02,-2.419269227332266139e-02
-3.576742219240971327e-02,3.114183122245652718e-02,5.610335158416290824e-02
2.183828731161493661e-02,-2.189033716913753660e-02,5.483913494652749299e-02
1.306442713430800914e-02,-3.280419270056485898e-02,1.317759916384816411e-02
1.231588206212389999e-02,7.404922042527350978e-03,-2.203560452433151601e-02
-4.683892081716511252e-02,-2.230175594674372458e-02,-2.512112195523566113e-02
5.209281031764877862e-02,1.222192216055581135e-02,2.959505301745658790e-02
5.776189999480482035e-03,-3.376390191546484870e-02,9.649624736385631341e-02
4.128377353602494249e-02,-2.944986959675335858e-02,1.202129133348930380e-02
-1.058611933698663798e-02,1.463650094767038334e-03,-5.421694804221052766e-02
-3.853813896053880170e-03,2.377509940570386379e-02,1.226803795683441105e-02
2.364536748411861372e-02,1.370417228581414203e-02,1.492967631215910695e-02
7.620209944398846635e-02,-9.321426758308753308e-03,6.020533826220433871e-02
9.680059740509977528e-03,7.483008748765731903e-03,6.535051421214101153e-02
2.801227331914839247e-03,4.584970858426787310e-02,-3.700417234447236220e-02
1.826987733207324424e-02,-5.493589467944617888e-02,-3.581447697757346449e-02
1.082181472518496841e-02,-4.755616820465213834e-03,-4.584010846230288788e-02
-8.306361714097029725e-02,-1.805148263790997201e-02,1.127245325874034337e-02
2.881436646828767698e-02,6.670123420593618985e-03,9.738795432590804935e-02
-3.011771375686345814e-02,2.215416603335180427e-03,-2.326092695028583041e-02
-8.277035814905657138e-03,-4.799741247041782594e-02,-1.288526341022714098e-03
2.840425806014680934e-02,3.155321089719083372e-02,9.186792135267383974e-02
-4.368623834161266400e-02,5.726855759237790139e-02,2.521721497774720086e-02
-2.649831556207434685e-02,1.139898159333468074e-02,6.041687949295586335e-02
-2.073934951448463959e-02,6.480141840710441914e-02,-1.635090706415572373e-02
1.040201135331364629e-01,-2.007082007845168228e-02,-1.447267868954518234e-02
-4.676095368233858240e-02,3.334924889744465826e-02,-9.380063000767055459e-02
3.134095057976491600e-02,-2.343044110765563764e-02,-8.349060951294037802e-02
-6.963988555364412913e-02,6.808118772644703581e-03,-3.561833544379779809e-02
1.711749063311592683e-02,2.247825666435739403e-02,-8.927737095293668615e-03
-3.744592948608480715e-02,-8.751523094707672895e-03,4.704471368604820278e-03
-4.170924586531514662e-04,-6.379519616389578429e-02,-3.740855448967166791e-02
7.433944193200332090e-03,-1.691007684242470249e-02,-4.269227314749216018e-02
7.600213992394277973e-02,3.100199702405715199e-02,3.612811333527974397e-03
2.259131209026169276e-02,-3.190718605820030973e-02,1.915288374720754486e-02
5.598075380604592213e-03,6.018670471361688840e-02,1.179773265508496892e-02
5.201069541611464666e-04,-3.478254014867527416e-02,-8.033013518048508217e-02
4.277427308620017354e-02,-5.121865015750489553e-02,3.788989390010145258e-02
3.748462119305846080e-02,3.951706036849549704e-04,-5.667012195646763811e-02
7.157941738551057420e-02,-3.866333584766734610e-02,-2.066522762936128660e-03
1.899012886389760124e-02,7.455988870186985862e-02,9.069823801389077789e-02
-1.352245954101601727e-02,-2.423212862352881747e-02,-1.670589274058414259e-02
2.111364581528756001e-02,-2.817622066577922871e-02,1.430850415802728537e-02
2.770279966998576496e-02,6.445216874817912694e-03,-1.964222047874648880e-02
2.952976821584365162e-03,5.193141670006770627e-02,-1.770583079943615148e-02
3.339990207452688681e-02,-3.759562437246492111e-02,-2.145032536100927034e-02
3.978550602957800497e-02,8.442395862264448492e-02,-4.305189729035514140e-02
1.790948155910114178e-02,1.357225587087952136e-02,4.938583219297690285e-02
1.236005168210242873e-02,-5.386994760453769904e-02,7.664049997661032121e-02
-3.760484722469988744e-02,2.434044419414432836e-02,8.912030321783286080e-02
1.915270221858638225e-02,6.924693819562152686e-02,-3.362574375633374784e-03
1.560873900045850471e-02,-2.472894585146804408e-02,9.374751367089349807e-02
-1.678725016567351276e-03,2.020528259015489866e-02,-5.899811891690158808e-03
4.542998665098501448e-02,1.167799107608244805e-02,1.197614496790161583e-02
1.718508056271170203e-02,1.131866800924458648e-02,1.052490019870222226e-01
-5.410017509009257264e-02,-4.425104548546551775e-02,1.691811296852322984e-03
1.362619987742368956e-02,-3.402318766935740618e-02,-5.018131178656060759e-03
-2.785787326046361098e-04,-2.774178611507584907e-02,7.858809371826179502e-02
4.307044803132379501e-02,-5.616438213000599783e-02,2.546755979887713184e-02
4.208936617293284471e-02,-2.212753228079910456e-02,-2.582214824047555576e-02
-2.162348064937229947e-02,-4.520037116090031004e-03,-1.773480631139771196e-02
-1.905215436651664859e-02,3.967988166430652663e-02,-1.647358702361490651e-02
1.125493131524692332e-02,-1.867005865625923425e-02,7.419888594796932024e-02
-4.856026118438572237e-02,5.311578524678977307e-03,-4.892514315797906466e-02
-3.681758800044479920e-04,2.107086158015700553e-02,8.277516870849128960e-02
-8.196429727913986940e-02,-2.885427139878346536e-02,1.510990978434820393e-02
-8.308737076265235166e-02,-1.335420384995018514e-02,7.359015859767291216e-03
-3.458094801402370605e-02,6.649017875435914160e-02,-1.815099707755080376e-03
-8.098712555545985181e-02,4.299160700634852700e-02,1.903008946063129356e-02
-2.394516623217796559e-03,2.839241339783250828e-02,-8.449727948455650062e-02
-7.681367194945766703e-03,-4.275044758268860962e-02,9.244509627389793649e-02
-1.121789861187497172e-03,1.047850927536817488e-02,2.025523976823982806e-03
-6.799750108185935449e-02,2.477872439945395105e-02,-1.792640496367632272e-02
-6.125779608842726875e-02,1.239221323155979305e-02,6.718650836517357783e-02
-1.864077510556491277e-02,-6.172832942887085741e-03,-1.383311298507461720e-02
1.703596900359964292e-02,1.439313606394716262e-02,-7.915964071192353388e-03
1.860855097046295453e-02,-1.720440271939784743e-02,4.194877228059575719e-02
1.342890522412110762e-03,6.650518151172481185e-02,2.715495938854487964e-02
3.588569875193018538e-02,-7.676502928607190079e-02,-4.322100717999372704e-02
-1.825690253338342964e-02,5.003286444649671788e-02,7.528098075159152247e-02
5.977442833028320801e-02,3.832245367998378394e-02,-4.845370900835303807e-02
-4.159404468207700267e-02,-2.573550532883309150e-02,4.434545574710449523e-02
-4.532718183006535784e-02,-4.790663445484611566e-03,2.073017530244571777e-02
1.753887852475181572e-02,3.042271296732448546e-02,3.102835282786641641e-02
9.107037330304150469e-02,4.589455132346485083e-02,-2.556841693984548275e-02
2.062704268652923445e-02,-5.083364238982284594e-02,3.552995221969602879e-02
7.086309376446558658e-03,2.733122416575087602e-02,-1.112953128891005714e-02
8.344723180147388397e-02,-1.611120919968135612e-02,-1.321195166622581019e-02
8.254738157637101252e-04,-3.260307127862210018e-03,1.593391640545413490e-02
-7.338198046810058550e-02,-1.692825564279640260e-02,-6.427816701557258205e-02
1.776679570544075978e-02,-3.757594024412892059e-02,5.842101173801274305e-02
-2.805197444526313227e-02,-7.553334418022272789e-02,3.423410754769978716e-03
-8.610168364745249270e-02,-4.686900670670369334e-02,5.844494936507431274e-04
-6.960322348296311967e-02,4.344673990565763727e-02,-8.993962360256659017e-02
6.897715185219804868e-02,4.884800367662493759e-02,2.032295891912467081e-02
9.548479813806231078e-03,-3.528027233744199243e-02,8.596132224161301405e-02
-1.272472813122579698e-02,-2.323671592349617343e-02,-1.987312794492133647e-02
1.970921373422663408e-02,-5.802742808859224014e-03,1.260349288213553041e-02
5.807251897812231063e-03,2.176970421842553891e-02,8.488913122890535956e-02
1.139463124428876165e-02,1.614206555793617050e-03,-4.150574362477446599e-02
-4.325815305016323525e-02,2.305882663330239418e-02,5.523608452534136543e-02
2.351076627491641147e-02,-3.250397622231984002e-02,4.380705528014471268e-04
1.950033617318005022e-02,-8.213070425135371444e-02,2.347172038144334713e-02
1.645477533226031089e-02,-1.185278950111783415e-03,-3.882844430784138795e-02
3.822034221514464952e-02,8.201026847780280155e-03,-1.961516706193215318e-02
-7.587649237773255728e-02,-4.333710923139547089e-02,-5.100267693731641572e-02
1.512623662570481385e-02,5.175502048095712015e-02,6.653825328481099977e-02
2.856458227857027604e-03,-3.380062879820472377e-02,-6.315756269695891115e-03
-3.753095011379076196e-02,1.816753397443649984e-02,3.104512556050166225e-02
9.151503480543840899e-03,-6.012494782750427147e-02,-8.312214752887899655e-03
4.556907306353606690e-02,4.051811040846472686e-03,3.701348374818029183e-03
3.145158852112397031e-03,-4.092612034592847670e-02,-5.459793419306936679e-02
2.505492954214484994e-02,1.063121085101162572e-01,-2.049337605267212772e-02
-1.046985661311911620e-01,2.125148135484148087e-03,2.899876770128690870e-02
-2.528919602058989774e-02,-3.800956884930549451e-02,2.775787743812151154e-02
-6.141995172369114908e-02,-1.065357039863096267e-02,3.489607267358128817e-02
-1.004550687344549220e-02,3.418457506127937050e-03,-1.261612219720816344e-02
5.763112840656259978e-02,-3.520036833828208561e-02,7.722156757877056410e-02
-1.704219138389930291e-02,-6.594169273820008059e-02,-4.158714106346222267e-02
-4.860901765794882479e-02,4.326241544775569908e-02,2.643149162888729087e-02
1.629892337281999698e-02,-1.100921108211126015e-01,3.568289184160031158e-02
1.312912416734683847e-02,-3.484159761866589822e-02,5.256696465204820784e-02
1.690843085316924913e-02,1.865654196939036183e-02,2.529209169067313245e-03
-7.087795796162618678e-02,4.216732196636507196e-02,4.012999440084172309e-02
-2.049004729636833260e-03,4.799486992427993461e-03,-7.396737564339841975e-02
2.444336420878139363e-02,5.760460442602781395e-02,2.460146664465865524e-02
-3.764063320288513204e-02,5.064251929016160003e-02,3.336931737938730880e-02
-2.045589805500642663e-02,1.021780101718785527e-01,1.769490544722696610e-04
1.425716234293083161e-02,-4.311227523470582794e-03,-5.965993294034938055e-02
-1.843376052083091354e-02,-2.794757201345931391e-02,-5.436884605067184018e-02
-4.290483028250643982e-02,4.997840644816162192e-02,-6.470346024531317686e-02
-4.508611227873855765e-02,1.652159704460030940e-04,6.917415241746953380e-02
8.505417702970861568e-03,3.055600609223662126e-02,-1.075350874995364275e-02
-6.714630130587907753e-02,-4.164055085675019870e-03,7.358273804667371520e-02
5.393482214742036096e-02,7.538736577397049318e-03,-1.047845671545362400e-02
-1.754473557404725992e-02,6.511227800763117780e-03,-7.213073512607942606e-02
3.816665713463592902e-04,2.471261045470411408e-02,-3.526884565793971665e-02
3.755720945401668648e-02,8.493535146538327973e-02,-1.557555055546859350e-02
-3.241731242221137111e-03,-1.270385661950480631e-02,-1.243551142652179684e-02
7.890371392779146897e-02,-1.581776286428520154e-02,-4.675470432761906492e-02
1.008651829583374383e-02,-7.859705538002918074e-03,7.502692450752315723e-02
-4.913548852369807596e-02,3.667674185774692092e-02,-4.528737836984818299e-02
3.025222808997523639e-03,-8.657907448016309224e-03,-1.414321129992115837e-02
2.087910214049376600e-02,4.050047893872412569e-02,-2.069379899555944327e-02
-3.289328533499478319e-03,2.437153911480860035e-03,4.145165738019992302e-02
1.765145236880034593e-02,-8.809823687293494299e-02,2.246098036359663389e-02
-5.201925926730136679e-02,-1.046348477932796811e-01,-5.835422227049517907e-03
-1.982773699114213570e-02,1.952282703181536239e-02,-4.936399666896821789e-03
5.541763421797621034e-03,3.307010989292905045e-02,6.690773600554127121e-02
-4.611758121224424078e-02,-2.649210527691449931e-03,6.020090708558335085e-02
-6.458456142013865864e-02,-3.622379568341663886e-02,-6.670752461798373778e-02
7.431376322142939361e-02,8.031211427018099258e-02,-1.231710860853677675e-02
3.363613561281558750e-02,-3.592904525348471906e-02,-8.903572085289836180e-02
-5.738156870652075942e-02,-3.255297601759320203e-02,-2.330701545038682196e-02
-2.383869656664233238e-03,7.815579262501291813e-02,-4.442273878490214656e-02
-6.413973705657038948e-02,7.953176040114448564e-02,-2.051598767963210002e-02
3.556120162831256232e-02,8.559506597317639853e-02,3.385410772116608652e-02
1.308821685462732698e-02,6.523604847449251953e-03,-2.618544080910321231e-02
2.771409085087150198e-02,2.483758646013245908e-03,2.341461549946597526e-02
-1.187206676698465864e-02,-2.102866970739032237e-04,-2.722860352171893594e-02
2.943385222437079271e-02,-3.209119621274743317e-03,-5.275114509535851204e-02
-4.574422651732832495e-02,2.373015514573846921e-02,-2.486093070632905411e-02
-4.342281735018510558e-02,-3.312400634688210388e-02,-5.618581866601955223e-03
9.010679765836264454e-02,3.561678080742973485e-02,4.153636948495277592e-02
2.659547114028102885e-02,-8.781139583461482559e-03,-2.423967671006474305e-03
-5.493069225786820220e-02,1.819452390289224425e-02,2.037446308820667351e-02
1.903279920217332798e-03,-6.207986178320497664e-03,6.359787914048285751e-02
2.494706097367158093e-02,3.099380807308728392e-02,-1.029408910691759389e-02
8.872345685463889006e-03,-9.917380216643313911e-04,2.846823092430397165e-03
-2.833163573125913048e-02,2.355414845636751714e-02,-4.266217992550027510e-03
4.979334872775158238e-02,-5.757979662978238850e-02,2.798796095716443028e-02
-2.639345439389753287e-03,3.137932167856465754e-02,-6.430689517342384753e-02
-1.084133062452477536e-02,2.552532214803590258e-02,1.968784790107311333e-02
2.280092492924414363e-02,-1.405946259207944277e-02,4.026646236264808110e-03
1.895743674389853070e-02,3.291931979736736208e-02,-3.511493323173198178e-02
4.720034431906201811e-02,-1.157055264324289429e-02,-5.066978531489883808e-02
-6.923663268423413397e-02,-1.259455692760157869e-02,-9.599494939838382201e-02
-2.096047312441945421e-02,-1.790162269303465989e-02,-4.621535852133078909e-02
-7.784718223694708956e-03,-1.057607693811929775e-02,2.112136079008548536e-02
5.390099082203225755e-03,-3.191300693164626084e-02,6.380199504644425146e-02
-3.855650975469587793e-02,-4.976522088100455987e-02,1.281129642741451677e-02
1.509757580707020473e-03,3.895356782309550292e-02,1.324134903282961524e-02
7.053435747775639413e-03,-1.212761366978190765e-02,-1.322874294095503257e-02
-7.325591930980609014e-04,1.713635605069914469e-02,-2.698608547164387493e-03
-6.422586273704822138e-04,1.270238379221752013e-02,-8.421302191755397626e-02
6.011655911801256323e-03,-1.823214953683463188e-02,2.342207789533903503e-02
-9.322454022878219268e-03,-5.699420341396908320e-03,2.773143134676530827e-02
-7.559876247785277115e-02,-1.205846891614054638e-02,2.178240670436627432e-02
7.453454997483634215e-02,-7.130800371038152619e-02,8.271208364156108772e-02
5.959482216660132864e-02,-3.726630367658290838e-02,-4.585315621675946254e-04
1.245464187610651960e-02,-2.447035065713881741e-02,-3.734275661193914297e-02
-2.327179941510797850e-02,-4.451820410493072949e-02,-6.276059759255331327e-02
-3.570763127640302209e-02,1.975947549758882288e-02,1.593418769629512122e-02
-6.921600234805355689e-02,-1.989504020879477239e-02,1.557881383190297050e-02
6.457158677664619206e-02,2.935625512767641929e-02,2.732512274563301743e-02
2.809020117714253542e-02,2.210322747420102180e-02,2.429059863265533789e-02
5.763459627630824339e-03,5.950213213946141388e-03,-2.623929291352331342e-02
5.273001862005557983e-02,-1.313634263939416832e-02,-6.661211770917428721e-02
4.250708816542615731e-02,3.877473835802412033e-02,1.337563220383157156e-02
-6.291880594979692987e-02,-1.021649673895770882e-01,2.132252879446058097e-02
6.635827957121551678e-03,-9.458123608534796389e-02,-3.679170619036705846e-03
6.274343903270603040e-02,1.939911666505252097e-02,-5.154891217678234105e-02
-5.587275853816212057e-02,3.706857012680942593e-04,-7.508619236002311847e-02
-1.326657344122163674e-03,6.486068370106587433e-02,1.401202291162991116e-03
2.103333653556477625e-02,7.893459465313450163e-02,-2.400537428538188078e-02
-6.731132451971807984e-02,-1.378586401273779183e-02,1.300625499592428973e-03
2.393288876892493006e-02,-1.516128665128372438e-02,-3.155986512874960070e-02
2.590787531101779173e-02,4.675458313289021506e-02,-3.718163596500282525e-02
-1.462278562413402497e-02,-6.127782875109383633e-04,6.804817684899595875e-02
-1.118034397495574171e-02,-6.324199324856498439e-02,8.140960710368469813e-03
5.522578093648131820e-02,2.814054455361293325e-02,-2.150447764523470001e-02
2.460846438798356545e-02,5.430267177181292114e-03,-2.440803831952201644e-02
8.390291372759264843e-02,6.785929879842865498e-02,-1.089021161980357894e-01
-1.942004821429950054e-02,-1.996684612571686737e-02,3.557163846944110669e-02
6.478705188098639323e-02,-6.437821609448628191e-02,3.142707773758148665e-02
-5.534190583604552127e-02,5.474377762573189032e-02,5.107740446233473286e-02
4.669264265048748974e-02,-7.376124367973735385e-02,8.253576073645046973e-04
-4.900825398729650312e-02,-1.455160956334352641e-02,-7.361682940768926771e-03
7.979493507626441579e-03,2.663718181360395093e-02,-2.518039456874330770e-02
-7.199160707924082137e-02,-3.388543858502846701e-02,7.291990966881133074e-02
7.554254804728316453e-02,2.523970688713576480e-02,4.923923805110399544e-03
8.206082429575661460e-03,-2.248760165686101292e-02,-8.361570389707887949e-03
6.341954138159443255e-02,-2.937116635542849630e-02,-2.093226524790750900e-02
2.628347207713156719e-02,9.282182124090924968e-02,-1.789263693321598708e-02
-6.017785290051607533e-02,5.485347021883638097e-02,4.173334001973000307e-02
5.221808898267383398e-02,-2.487616250251217451e-02,-3.812008088775956788e-02
5.504609506559608040e-02,7.970160200844786380e-02,2.680530510655167176e-02
1.052440774359893541e-02,-4.217339765424772680e-03,-3.114171001902901748e-02
-6.212116016936558571e-02,-3.525623009387609391e-02,1.477716840109475835e-02
7.701509927035387303e-03,7.583586765139205266e-02,8.620017507917911506e-03
-9.810395364505052063e-02,1.228917259235997629e-02,-1.137610861381206824e-02
4.715595316058402570e-02,1.120272374023701702e-02,-3.300647461565670016e-02
-5.172925165904192907e-02,1.181095332530107331e-02,-1.481724684362698517e-02
3.149969990382436857e-02,6.317021145829533613e-02,2.412249958308833667e-02
-2.031601506117618888e-02,3.195305357574966879e-03,-9.065455458901435989e-03
3.236974426765701351e-02,5.669694953374758428e-02,2.319637700705824701e-02
4.402849489150408718e-02,4.456147830873727345e-02,-2.660714831431515437e-03
4.495365219489883685e-02,-3.644140723157352629e-02,-4.750580373250447991e-02
2.772082990622790760e-02,-3.329741295154671488e-02,-2.560272419198796751e-02
-1.827710210472223429e-02,2.859311880229478513e-03,-3.604930378204211552e-03
-5.167556089969852634e-02,-1.501517129122719590e-02,-1.868812723036952436e-02
-1.572171583217167601e-01,-5.252553170784905745e-02,4.838903083463284155e-02
-7.105260553894038322e-02,-5.996399500207109587e-03,-1.755853955202975672e-02
-2.945000642982055147e-02,2.765523116811992657e-02,-1.463075455901523443e-02
-3.229649610847243335e-02,5.035102463294335688e-03,4.109912988469926337e-02
-7.032945056389935945e-02,5.890679340119608226e-02,1.188151659502961754e-02
-3.151436301478158925e-03,-1.148700176176575480e-02,4.811099024148932785e-02
-3.383517349086582332e-02,-6.709136918015535210e-03,-2.055712572332682800e-02
-1.529612440974008336e-01,-3.719360043150034961e-02,2.505568246462536175e-02
-3.782278044445355064e-02,4.975912743407061994e-02,1.571303250101084223e-02
-9.852678987859429804e-03,6.093830138044031841e-02,-2.746701303897847168e-02
-7.880572304665232897e-03,4.842268358751655602e-04,-6.403972798565201775e-03
-5.347375441563685661e-02,-3.768000428435266946e-03,-3.082731194875074771e-02
-9.738776872498793036e-03,2.739510401936569219e-04,-4.542719897529483297e-02
2.272995991628023668e-02,4.214696094793152041e-03,-6.964319790604442395e-02
5.635036560816443149e-03,2.392031477827213579e-02,-3.667503191786038869e-02
-1.909020043622963389e-02,6.740176003268366633e-02,4.693843838379529489e-03
3.989901442405630744e-02,-4.946506713569059910e-02,6.945400452742264696e-02
-2.619523637649938397e-02,-4.992012954955178661e-02,-3.262393244797957836e-02
6.794017463819850000e-02,-4.535733942900060239e-02,3.693989558012759911e-02
1.913473249676109385e-03,5.291831868671359462e-02,1.532746353047911153e-02
5.386695591776977793e-02,-1.184271501739034282e-02,2.938189230633524163e-02
-2.394861391172553589e-02,-4.520350690309945380e-02,2.610467537804190413e-02
-2.775149760339808667e-03,2.454456494911892023e-02,6.287187755047864146e-02
-4.920546657050071937e-03,9.114615916929599479e-03,3.758208742044281264e-02
2.639443159869793096e-02,-2.199935409955941154e-02,9.629752229255382143e-03
-8.957044193424200385e-02,2.321848055794471441e-02,3.692460288957009201e-03
-8.357902747720005743e-02,2.437648792447177221e-02,6.440001188983206226e-02
2.616728229441102338e-02,-7.367119381612061146e-02,4.022538357035121415e-02
4.625003310594776387e-03,5.402747663510706899e-02,-2.657326880055340193e-02
4.217791926081222026e-02,4.086925714146709410e-02,5.559453134492103876e-02
1.233009773574635787e-02,-7.513842751989348312e-02,-2.877444568917762388e-02
7.066245260789522087e-02,-4.747152758822247715e-02,2.033142675763617221e-02
2.485913301607484832e-02,1.916592078989689391e-02,-2.002498352817432513e-03
-8.725913090365930436e-02,-4.173226796329838201e-02,4.265565080122106500e-02
-4.960195790935520432e-02,3.254090287910715168e-02,-4.129316532117485727e-02
1.939973619748588257e-02,-2.414302322946084225e-02,1.975048177920790682e-02
7.996993220975759376e-03,-2.865681130912590968e-02,3.854438558649483232e-02
2.255867286123608081e-02,-6.018252277641295347e-03,8.475464689268748242e-02
5.232974347355215383e-02,1.763928490597964360e-02,-4.362500123245665468e-02
1.158632628487821746e-02,-4.091328156176186892e-02,-5.472050269330826222e-02
2.964095654117051681e-03,5.192559642366256084e-02,-7.381085509645507990e-03
1.853894701382199526e-03,-1.718757656810078818e-02,-4.005004860051283866e-02
-3.824862914674192777e-03,-1.419339435008672712e-01,-5.506974523954886319e-02
2.915313118234020336e-03,-8.127315168757403424e-03,-1.439935090806397124e-02
6.437132490740710145e-02,5.046417309133647416e-02,7.693013294688774706e-02
-2.873616855586486052e-03,2.966204635124601238e-02,5.985963238651881985e-02
-2.328316968331797451e-02,1.403217143659257066e-02,-6.649813201162692311e-02
1.599750970221365531e-02,-7.660744398501681887e-03,-4.610593962045617285e-03
-2.940530326304945530e-03,-3.112343980105725799e-02,5.830477481144700352e-02
-4.025439640209194092e-02,-5.885973145078288171e-02,-5.312928297626617197e-02
-9.565551187654529330e-03,1.269270192139532009e-02,-1.171342028160620406e-02
4.265225520549270621e-02,2.217747667773214623e-02,2.800003228512093142e-02
3.311698328068167496e-02,4.239961742501941605e-02,-7.344283503010601288e-02
-1.239456741254537503e-02,3.656250310541839244e-02,-9.088334506985885561e-03
5.325337303116968457e-02,4.449111531463620373e-02,3.885988003789321577e-02
2.641883365907170267e-02,6.609057500959401865e-02,5.470431989078130414e-02
-4.293376013720370116e-02,1.517610361190580189e-02,2.716970038318296254e-02
-1.236331450470449719e-02,-2.906757680902685367e-02,-1.004187590303061428e-02
1.131139203476655246e-02,-2.591252361868764259e-02,-4.653477100437797970e-02
2.084183797337808494e-03,-6.985311674468275278e-02,-6.748434097975960881e-03
-1.096028141618300977e-01,-1.972598906140303476e-02,-3.437767248492797773e-02
-5.920438099462682624e-02,-1.667432065242295536e-02,-1.269775430030209689e-03
4.880683930370502410e-02,9.719416690826770608e-03,-1.193957490855222930e-01
8.064564308795317549e-02,-1.085677432183127650e-02,-4.893909559174940832e-02
2.059509527585314664e-02,7.871917707140463349e-02,4.335944743008733615e-02
3.379727791587035235e-02,-2.670386517348897690e-02,-1.781918450160921430e-02
4.664070833851356734e-02,-1.032306138276225041e-02,2.275897215716791988e-02
7.038464689558296405e-02,1.063027345237428471e-02,6.780029636569830098e-02
6.916675218304425832e-02,3.698062633990010367e-02,-1.478194294848878508e-02
3.363846178343253557e-02,9.134189371993527151e-02,-1.368249985568769679e-02
5.960920164166924606e-02,3.387828927316364341e-02,2.179341689287074557e-02
-5.304303103367075806e-02,7.558717005188117684e-03,-3.618332147879307209e-02
6.180632603679227927e-02,-5.489598969882023005e-02,-1.426763664088363109e-02
-2.437874529223461872e-02,-3.979520460608187288e-02,-4.027515684672656852e-03
-1.433863909962984108e-02,2.139450825344953178e-02,5.668288789663600280e-02
-8.245389907957279343e-03,1.492240961142854145e-04,2.231437206816336283e-02
7.625268695228293314e-02,-1.963119002371431152e-02,-8.237275317630526547e-03
-1.651930971750349697e-02,-4.378382038627363221e-02,1.274425647105440276e-02
5.484100075577946071e-02,8.950031306997502725e-03,-1.435669147726961747e-02
8.975086669286494456e-03,-1.168432863107055908e-01,1.336289278787251801e-03
-2.326480309968951762e-02,2.782981813511447786e-02,-2.300914807418448851e-02
-1.753170447252778985e-02,3.482638075196261424e-02,-2.997303073631980147e-02
2.073416568288786663e-02,-2.989773369876508324e-02,-7.348984451351553600e-03
1.202245718583888207e-01,7.195498587520390670e-03,4.732084619246978291e-02
8.708355608516375398e-03,2.772295100292378189e-02,-3.003314073882973334e-02
7.113542414978541589e-03,-2.681279936815482434e-02,-5.292437028603109994e-02
-2.660492001420262584e-02,4.330231573213096791e-02,5.254955016959680578e-03
-2.165823081858704938e-02,3.690561109223138708e-02,3.664716453174507449e-02
-1.720084571376262472e-02,3.319030138377310896e-02,3.527913757446670545e-02
-4.770865345186883766e-02,1.791647437560556222e-02,-1.001565015739174988e-02
1.282568599639719205e-02,-1.252584396659341300e-02,-6.760552137806609407e-02
1.573086412785258898e-03,-2.734706497578700407e-02,2.415702177794389408e-02
-2.473775288034988848e-02,5.138246929762472354e-02,1.473356661246729565e-02
3.923320943473769529e-02,1.111310246836947832e-02,1.903537531175076777e-02
-2.740294318386063410e-02,1.014918429866570708e-02,1.246572597920130379e-02
4.568120945116561915e-02,7.145490585792395322e-02,1.943345719012514600e-02
-1.828064247758390314e-03,4.335732475946921932e-02,-5.841335126422492066e-04
5.042231771839170151e-02,-3.135663666801337401e-02,-6.015417817990434401e-02
-4.844776625668162362e-02,-6.525235424264333450e-02,8.783195075334331589e-04
1.284175505938514247e-02,-2.854921136338812657e-02,-3.797501209737094013e-02
4.022355386302554903e-02,-3.761296790835239046e-02,8.560536972948273047e-04
4.010519620011378239e-02,-2.539924330225349497e-02,4.084207041438460417e-02
-1.121060583675633979e-03,2.430530567856853397e-02,3.514895040762518880e-02
-2.825493245257530706e-02,2.530972323157981707e-02,-3.284270980505425708e-02
8.485172625049997031e-02,-2.036073770034307895e-02,1.046625131780761775e-01
-7.359309587994970758e-02,-2.397086827576855664e-02,3.835119554292216321e-02
-3.962904751681739501e-02,2.478770053943030183e-02,-2.028752404434704115e-02
-5.109598454086202585e-02,7.972321155980717500e-02,-7.090644429303770598e-03
5.127114306158483265e-02,-1.677145338252099271e-02,6.353105830566837912e-03
7.428311571441652272e-02,-8.249786937610482582e-03,-3.664881082697388909e-02
-7.344924624012322267e-02,5.826189188118449658e-02,2.138516703382442596e-02
-2.019293784950188311e-02,6.967819715574437300e-02,-1.433631657546379987e-02
-4.531434031947514235e-02,-2.834837842305012318e-02,3.138724576195241547e-03
-8.310501408284318159e-02,-2.010338230671201987e-02,7.206841945857801225e-03
-2.032022235588986508e-02,-6.893826572906686101e-03,-1.283137942338850347e-02
-4.169634774699258056e-02,-1.141193959478768033e-02,7.715611743402066292e-02
8.954542518792760197e-02,-3.953170849668736359e-02,1.674763154852893648e-02
-1.934147602594630741e-02,-5.411203864431528288e-02,5.363327478248899015e-03
-6.466716897217700266e-02,2.494540451808513817e-02,4.241716814334640234e-02
1.193437833836484552e-01,-2.006696081605936072e-03,1.073432068317954104e-02
-1.495506697729291450e-02,-2.218848340884521653e-02,-4.130869285047657213e-02
1.716000144007582412e-02,4.382879356560461653e-02,6.027324046853788780e-03
-3.666315689275938955e-02,1.666885409372039287e-02,-3.516877661305314613e-03
1.827408789212770640e-02,9.359633535645602020e-02,2.868675684221822647e-02
-5.462965967415186336e-02,-2.746794766803149768e-02,-1.684545330645827871e-02
-9.119911454561042963e-03,2.647217960357412664e-02,-1.086292694320369068e-01
7.050424093506438283e-02,1.526088631353931385e-02,5.886888885762389494e-03
-4.449478164540729419e-02,-6.299485708001324735e-02,-6.398289371260196257e-02
1.854867528811188909e-02,-1.453177205784570575e-02,5.749540885662590174e-03
1.701978248046980002e-02,-2.675997382556130708e-03,1.458295788678643477e-02
-1.250801127132823883e-02,-2.482587790685207921e-02,-5.965610696615429587e-02
4.515041556954379337e-02,-8.190244608562245038e-04,-1.113921115021446473e-01
5.747984388743164648e-03,-6.319108897385839613e-03,-4.413337120577491557e-02
-1.203223880263420281e-02,-5.750525730018717779e-02,2.519954743804920377e-02
4.582131608825289193e-02,5.388209208126736038e-02,4.306334171328101562e-02
1.470704262411455000e-02,3.261071736992601083e-02,3.290827022202486019e-02
-7.123354189693026361e-02,5.787475007344115852e-02,-3.126028243526476902e-02
-3.912334999216896675e-02,4.431516315260064509e-02,5.598078912897933024e-02
2.189298358375195083e-03,-1.229934953473072259e-02,8.138843787752383929e-02
-2.521275634729370357e-02,-3.755788827242727279e-02,2.932585772265913077e-02
1.003676131643310536e-02,-3.087260786877341762e-02,7.867758193932298041e-03
-1.832405181629114671e-02,1.735032122602151242e-02,-1.705787187081740652e-02
-1.689313203926606430e-02,3.543541320930322647e-02,-2.686785783094140789e-02
3.492087127648527828e-02,-3.110211047218429739e-02,-5.667244624622492372e-02
-8.614933937220859914e-03,4.416135873798335970e-02,-4.630910570160230721e-02
-2.867192927591063339e-02,2.928942037192563616e-03,-1.358941245688979720e-02
1.415425251598531392e-03,2.429239920184508503e-02,-2.548199259160704652e-02
-3.176220398040770221e-02,1.699485305135224958e-03,-2.721166480104230193e-02
-7.098531095072291991e-03,5.453165002148934598e-02,-4.845093366217995828e-02
3.247895737706964214e-02,3.821175607674795471e-02,1.149845418948643172e-02
-1.461206541052613439e-02,6.187151779504188737e-02,-2.987958693413593492e-02
7.032288904329499560e-03,8.800926272066467160e-02,-1.093030430976926239e-02
7.010626334616923416e-02,2.128612841348714174e-02,2.357917595521224693e-02
-1.118906718515445819e-02,-5.649265716084650446e-03,-5.153316422002159752e-02
3.347277939688296511e-02,1.247657100246798989e-02,3.278148949420000430e-02
-2.189099899255995962e-02,-8.188833621039710853e-02,-3.977932860879929838e-02
-2.427694186276373872e-02,-1.879002495074643536e-02,-2.140123780324535568e-02
-8.597091990445438186e-04,-7.568741890832218766e-02,9.636451308318224121e-03
-5.889336021271836252e-02,-2.417636807400735596e-03,2.492420083560623750e-02
1.014963538668267780e-02,3.246486355931948553e-04,5.563335588461199716e-02
-4.130006908118478981e-02,-5.730656999039168004e-02,-1.038902516340853115e-02
-5.270756215412713414e-02,2.182581122127297962e-02,-4.092727028187652730e-03
6.728788181846378537e-03,-2.720301389309175838e-02,-3.227364842445424459e-02
2.560883822928962383e-02,-1.372590024537495568e-02,2.775422315711853147e-02
2.994288977237749561e-02,-1.548131699635239486e-02,-8.379279459724251616e-03
-1.579732772839638130e-02,1.880777060923827931e-02,-2.019315754372223021e-02
-6.128190885045287084e-02,2.004995594730482958e-02,1.219358134279515532e-02
-3.990814492506580304e-03,-6.789456991332870617e-02,2.090756443685595073e-02
4.146837261386233930e-02,2.752106575967514304e-02,5.382565231539234579e-02
-2.282045268950872591e-02,-4.680166961508583183e-03,4.952313586408028240e-02
3.168047169050064449e-02,8.998622185334257881e-03,-4.801370515683814344e-02
3.638252659947754930e-02,2.670394865137138210e-02,2.921771123261358849e-02
5.233353220569916982e-03,5.079288682980481057e-02,3.416815119565338316e-02
4.454239444672342813e-02,-8.742611076719435451e-03,4.535156845804876047e-02
-6.231315931933615465e-02,5.057539760873860230e-02,3.007881913265894255e-02
-1.060577995314110622e-01,8.201606937292679755e-02,-7.769136587807992655e-02
5.080360944353309177e-02,1.683767811810168210e-03,5.664497693520843119e-02
9.123522717393865895e-04,1.691630870016557972e-02,3.528724048574691241e-02
-8.911543495785612112e-02,3.059915347894782631e-02,-7.931246257808818867e-03
2.459867606428603123e-02,4.647032268694038966e-03,-2.549262604336738694e-02
-1.159647546222437355e-02,-4.533661484653383339e-02,-2.437121602273253224e-02
-2.587420666548897238e-03,-2.512285729157321193e-02,-3.258067002894071695e-02
4.070462096048133374e-03,-4.535882019873711812e-02,-1.170448881528698623e-02
-1.305499160416645661e-02,1.154009478582661286e-02,-4.583971667452418214e-02
5.079297252771922122e-02,-1.748921884063234580e-02,3.571647033826579748e-02
4.142764745497758833e-02,-1.186512047300774912e-02,-2.289064246829838542e-02
-3.129143857704099613e-02,3.538692792091312645e-03,-1.275340665541910799e-02
-5.234181922455855701e-03,-3.213132008219657387e-02,-2.375532751419244179e-02
-6.749968002259230417e-03,-3.202975159923729387e-02,6.753307893142748708e-02
-1.748239267016712603e-02,-3.353714229836256278e-02,3.796488536731473795e-02
2.587024120667130375e-02,1.712173178886768066e-02,-6.168980673895346073e-02
-4.831523064252310484e-02,1.310269404152845278e-03,-6.833284697434295618e-02
4.508463454083271732e-02,3.985486317588838451e-02,5.323122404182154682e-02
6.207449943083978572e-02,-5.809791031314694154e-02,-4.180758855867656304e-02
4.423165326423044580e-02,4.141103834134549078e-02,4.710745038885597730e-02
-2.413033176724494605e-02,-3.130884444130994579e-03,2.667074867480517114e-02
5.340732083716823175e-02,5.726345434909107732e-03,6.960620930283406560e-02
2.732541474607372636e-02,1.953289143805416253e-02,-1.261819638505605988e-02
-1.334215809010171408e-02,-1.725608227329599939e-02,-1.006164206918100552e-02
6.286498167613115834e-03,8.813540130509606510e-03,-5.344965584211068543e-02
6.486492505712175560e-02,-8.934260409518569868e-02,1.368315245894551578e-02
3.642987416285977526e-02,2.435156159594988393e-02,-5.737334872618977955e-02
-5.900687123300408024e-03,5.674975551526775797e-02,6.796396279867800497e-03
-1.386840355004129687e-02,2.787200297829030282e-02,5.298075177887243831e-02
4.147079135212405204e-02,7.269151187750681753e-02,1.629717576924877287e-02
-4.151541707301944356e-02,-2.839262110057814287e-02,3.004773310324092978e-02
1.173902895849026837e-02,-1.665621177744934511e-02,5.782437981321260356e-02
1.692274200325017894e-02,3.333896442694663648e-02,7.144841656548525655e-02
3.181906421993888762e-02,4.144722916516151157e-02,-1.100992050557553399e-02
4.669733696150885766e-02,5.850855728922562358e-03,1.496985047776349526e-02
-1.678645544658529873e-02,1.015889632632314271e-01,8.444251619631202091e-03
-7.760372534004852246e-03,-8.296009249148696488e-03,-5.654786687197817935e-03
1.289540040105080845e-02,-3.858697404167144018e-02,-3.147278463636263290e-02
-4.223442219160728622e-02,-5.603185951718470635e-03,9.084497542397743097e-02
6.267188348515931318e-02,1.703246164685431191e-02,-7.368251805900652429e-02
-5.664310007039551759e-02,4.585152167004844653e-02,1.955268933290451455e-03
-2.861153057097459360e-02,1.600100826886362640e-02,1.477864297437262754e-02
3.256937888515526024e-03,1.798570945527540668e-02,-2.312520202434866987e-02
1.115165029730658119e-02,-3.490727880283420702e-03,5.380418487465438160e-02
2.664942813230788965e-02,-2.602907533576169496e-02,5.231337322871415507e-02
2.377022108919502399e-02,2.690543194577498746e-03,-2.828492217045635443e-02
-2.600649431794042551e-02,2.786845513939522137e-02,-5.884456540722558804e-02
6.746973389234059426e-02,-2.256581516801845974e-02,1.651676473236046369e-02
5.836575079427989282e-02,2.002819548244119327e-02,3.066109583030745753e-02
2.532835609411147187e-02,5.250267374902525125e-02,-2.832746415052745173e-02
1.066883471375769388e-02,6.171862863660464160e-02,3.770384515469122483e-02
-2.148375326890607229e-02,-2.206381603851349099e-02,-2.108943758166369892e-02
6.500625642327063176e-04,1.186938110353092518e-02,8.332500584614590958e-04
2.600561567380009226e-03,-1.349283353279722569e-02,4.189769757128752881e-02
-1.990394884549674670e-02,2.258983521092975191e-02,5.185855719392892110e-02
7.758488951258486754e-02,-9.623416379370951235e-02,7.324355575123199340e-03
2.305013715323422571e-02,-6.988699664887808305e-02,2.706373700363548518e-02
8.605052488042783457e-03,1.683034195180698606e-02,-8.472643367382405588e-02
-1.874934515281816497e-02,9.614380922105503213e-02,-3.477615972706915581e-02
1.565934775908559701e-02,-2.474534459492650981e-02,-5.031428129797846371e-02
4.219633089279276224e-03,5.236298623246459644e-02,4.283567017270756977e-02
-3.539871337230413029e-02,-3.798074703151746445e-02,-9.052398512437789813e-04
5.753524793275317101e-02,-1.965714412111017190e-02,1.648059852988328954e-03
3.931551395197290660e-02,1.200581661793038817e-02,-5.237685087457939759e-02
-2.869852135043821778e-02,4.392640414974729665e-03,-1.695754425714711758e-02
-3.412697507569614069e-02,9.810713507232664277e-03,-4.018290614918709584e-03
-2.751364558879539415e-02,5.569496010746301587e-03,9.836965378480286293e-02
4.186109554615727313e-02,1.717935619074557885e-02,2.125105702548985009e-02
3.723763111755106631e-02,-3.235893017499315988e-02,3.826713889316608885e-02
-4.998984193331182813e-04,-4.971563923634354093e-02,2.442070112970189111e-02
8.177801163057188405e-02,1.605961328477620298e-02,-3.924021099298109772e-02
-5.615070932044472635e-02,-2.751378746069428963e-02,-4.276054075546055488e-02
8.140702000992841580e-02,-3.055392079297919103e-02,-4.040695543542100615e-03
4.276315891605679542e-02,9.479423978777662407e-02,5.997244572845956273e-02
-5.601042494598267030e-02,-2.291714724424243066e-02,5.633257613760117577e-02
2.629482671859873985e-02,5.067569443471609328e-03,2.736315535298771209e-02
4.014655627628000573e-02,2.363527032920698795e-02,-2.119294847090287190e-02
6.851080909494534910e-02,-8.166783955420298113e-02,2.368408827716703483e-02
-8.998006184781533190e-02,7.738942791431800694e-02,-3.164945735144306799e-02
7.138937284606512550e-03,1.483082449984532078e-02,5.341285383921168251e-02
2.211779929400486608e-02,-4.751105605692343414e-02,-3.282646188494447309e-02
-1.191718339089305016e-02,4.296467192387456308e-02,-1.315090826785118849e-02
-4.507499176182623579e-02,8.256957085896207693e-02,5.132108241754582308e-03
2.840846630692444447e-02,3.836519447077640574e-03,3.684812356915054352e-03
-1.240696461752484022e-03,-6.482513549988558332e-02,-1.396793773402482675e-02
5.140707380109944824e-02,3.359371716399885133e-02,-3.061827532082877709e-02
-2.659512860564804820e-02,9.860097858460218669e-04,3.343208020080826876e-02
-2.830969076813200785e-02,3.201593748600862349e-02,1.787134072589915967e-02
-5.626416458851153657e-03,-4.554867230637561770e-02,-4.525086161617939556e-02
3.584761236816118996e-02,-1.073475820349682926e-02,-3.760946793652807096e-02
6.900311996365010581e-02,-1.024844797204344654e-02,5.178822126267820791e-02
-4.072025109904859469e-02,5.708668659940720203e-02,-3.512422955498870764e-02
-1.621329236967588433e-02,3.846895491179076060e-02,-1.140362354249304863e-02
-3.607119391757920152e-02,3.571739467725374567e-02,3.078486702308600234e-02
-1.713115560496370274e-02,-2.214096563108931132e-02,1.975509546724035434e-02
4.038935595543757112e-02,6.592836046265648786e-02,-1.029306066190626735e-02
4.123396639162203031e-02,6.569079061547569709e-02,-3.268783888267730309e-02
3.658051020899328459e-02,-3.051034185782908539e-02,6.901614327446412012e-02
5.124214282099157775e-02,-6.292514821227417066e-02,3.115365220188998086e-02
-4.581319536459813567e-03,-9.649942773346697339e-03,-3.407664777890498375e-02
1.566375516664003306e-02,7.812083934411159780e-02,-2.653015575757294853e-02
7.418395259036603129e-02,-7.286699009942348981e-02,2.323246044304096841e-02
4.645313172926321572e-03,1.701875427337730048e-02,-5.279976945193867732e-02
-3.480024126138473589e-02,-3.928401077512937850e-02,6.688514477773266353e-02
-1.762124443210170066e-03,2.879899033620707954e-02,5.913836055746433083e-03
-3.145284942525741756e-02,4.059453096648569376e-02,2.214484659828734603e-02
-1.769696436786720797e-03,3.786280984176811082e-02,2.172222536371962512e-02
1.013979317063419929e-03,-9.661191662626034127e-02,8.183281909028858325e-02
-3.557720494451956095e-02,-1.303100873679002153e-02,7.658422728009120495e-02
-5.770823541123212830e-02,-5.581770349769836492e-02,8.003369777656940340e-03
