accel_x (m/s^2),accel_y (m/s^2),accel_z (m/s^2)
-1.077247107851457031e+01,-9.899420597630334551e-02,-9.941362580410041672e-02
-1.077232085189594812e+01,-9.232604139198348492e-02,-9.128778720034162741e-02
-1.077092922358431260e+01,-9.363924102548380757e-02,-9.453666419546567778e-02
-1.077237154050409984e+01,-9.793081591819589871e-02,-9.907265967823054853e-02
-1.077676346892674175e+01,-9.376459795826412591e-02,-9.789333003305671077e-02
-1.077156101448068171e+01,-9.463685931052481792e-02,-1.024315343951284069e-01
-1.077773049749717416e+01,-1.020732671149280762e-01,-9.877848009850465072e-02
-1.077894705184531610e+01,-9.658192509651726543e-02,-8.397338862123189529e-02
-1.077404668525257847e+01,-9.342878346012212232e-02,-9.215107307342979004e-02
-1.076613799611640765e+01,-8.603002030174126957e-02,-9.639165454868807437e-02
-1.077705879771020570e+01,-9.997963407893327437e-02,-9.608915920287981749e-02
-1.077139351310534821e+01,-1.069417443693894132e-01,-1.052306205155369434e-01
-1.077209353762554933e+01,-9.712520029601430516e-02,-1.016018412400206683e-01
-1.077187501726203678e+01,-9.035014741760802326e-02,-1.012129217936772602e-01
-1.077893184682101158e+01,-9.991752725078127673e-02,-1.001362469972076341e-01
-1.077377250259213959e+01,-9.689635581718825108e-02,-9.774298097184104528e-02
-1.077828449315553350e+01,-9.498771716374468377e-02,-1.019511307180222814e-01
-1.078396113532006950e+01,-9.865473376480765610e-02,-1.045167158770530513e-01
-1.077441963510616318e+01,-9.589110334180400708e-02,-1.067085489886801797e-01
-1.077092655538711341e+01,-1.023887923628436641e-01,-1.046831572766750845e-01
-1.077210624305475051e+01,-1.042893864212932897e-01,-9.600426550082445665e-02
-1.077182589766883147e+01,-9.032523675637918470e-02,-9.555938394282530168e-02
-1.076979803302667982e+01,-9.453697189468457385e-02,-1.008359956559111842e-01
-1.077969296673713373e+01,-1.025351308889586310e-01,-9.998274967300915805e-02
-1.077123792525282475e+01,-8.670094530498030638e-02,-9.571282450572270173e-02
-1.077306987250256043e+01,-8.903534675938483411e-02,-9.380318870144675747e-02
-1.077370604870290371e+01,-9.466263902496273308e-02,-9.820000655486069152e-02
-1.078087121960916228e+01,-9.584548762054351245e-02,-9.158484037393521682e-02
-1.076873612203879382e+01,-9.034342665699859887e-02,-9.167128414525807512e-02
-1.077145374676227796e+01,-1.000876066624340061e-01,-1.012107859424067474e-01
-1.077188696516037680e+01,-9.392483993126257702e-02,-9.576308447443770966e-02
-1.077302524292312214e+01,-9.368984798671223246e-02,-9.704526793655304795e-02
-1.078045361171013106e+01,-1.077575996328839769e-01,-9.376595879615018392e-02
-1.077348017169972039e+01,-8.907330793980169914e-02,-9.124609111356105084e-02
-1.077454771368738484e+01,-9.879687068616593848e-02,-1.006414212165592376e-01
-1.077418057846260524e+01,-9.404282456129482715e-02,-9.088622015993458314e-02
-1.078126598737708264e+01,-9.739342902619732567e-02,-1.034667897320766805e-01
-1.077453923522541501e+01,-9.370741805094000287e-02,-1.032413326690591743e-01
-1.077277718668029038e+01,-8.695937141762623279e-02,-9.999220824653161366e-02
-1.076808331056898815e+01,-1.049903095103859874e-01,-1.007231235362406885e-01
-1.076884747310167612e+01,-9.631727934281517078e-02,-1.002721403930384170e-01
-1.076074693251742254e+01,-9.328321192901514736e-02,-8.811535233463581307e-02
-1.077213398722024706e+01,-8.764040769376232887e-02,-9.635167456788958085e-02
-1.077181581741647776e+01,-1.025091935082792227e-01,-1.002755202298634823e-01
-1.077509482338932401e+01,-1.056645346299084354e-01,-1.006198314507687624e-01
-1.077028252837988376e+01,-1.023726179061354713e-01,-1.005361207243728044e-01
-1.076994616793698789e+01,-1.026843410699549153e-01,-9.353535902346882258e-02
-1.076555560450067439e+01,-1.010928842871560568e-01,-1.015931718777864090e-01
-1.077636146146801188e+01,-9.573907085727001443e-02,-9.796427672852503488e-02
-1.076702267006427327e+01,-1.062137552068768698e-01,-1.040670344565949590e-01
-1.077515846244891051e+01,-9.560536969011985964e-02,-9.184734321512688648e-02
-1.077022537386801204e+01,-9.926486443147926331e-02,-9.245742612625987289e-02
-1.076997573462338309e+01,-9.897525297543932621e-02,-1.074607265826581642e-01
-1.076921074577487758e+01,-9.710799787114642034e-02,-9.097861030588517972e-02
-1.078209713485757426e+01,-1.036574625098327235e-01,-9.974705506069977967e-02
-1.078287565887276322e+01,-9.234667072019626943e-02,-9.086805188902435937e-02
-1.077368204861728884e+01,-9.978265368016105141e-02,-9.454150338855535352e-02
-1.077722070542798605e+01,-1.003734852413894069e-01,-1.008160056017338158e-01
-1.077392264333345828e+01,-9.615693931298667507e-02,-1.001140186261174070e-01
-1.077837653358285586e+01,-9.661828930408578042e-02,-1.015138539720403521e-01
-1.077674397442575227e+01,-9.641544671103564890e-02,-9.399884457467300169e-02
-1.077154273166490839e+01,-1.029981501130912136e-01,-9.768148246504354537e-02
-1.077071583769164320e+01,-9.862008695230019273e-02,-9.682792888801063091e-02
-1.078090378175591191e+01,-1.080958426737392286e-01,-9.967545621971972414e-02
-1.077730074444072450e+01,-9.375547444106788197e-02,-9.355191581325179861e-02
-1.077117622470446356e+01,-9.813744840100055433e-02,-8.629955794934061897e-02
-1.077339018944166327e+01,-9.861620418046904146e-02,-9.485947810360695343e-02
-1.076299473709316068e+01,-1.023076033494449699e-01,-9.101235218493700097e-02
-1.077812405632264436e+01,-9.437952298607378554e-02,-1.084439673659342296e-01
-1.078132943265699417e+01,-9.041923636739254699e-02,-9.656749634524054715e-02
-1.077411886924753048e+01,-1.071808451820064206e-01,-9.236752200908962540e-02
-1.077451005494139835e+01,-9.884405449541447397e-02,-9.235428854159546952e-02
-1.077310907775191851e+01,-9.697327105565908822e-02,-9.670077262169320120e-02
-1.076807674523356795e+01,-9.398701391566409435e-02,-9.636819919614970920e-02
-1.078007957031570463e+01,-9.330112834812583078e-02,-1.006517044208442291e-01
-1.076677624076531714e+01,-9.719825620565389346e-02,-9.351258202028604749e-02
-1.077112391421983695e+01,-9.812355114483263530e-02,-1.013874026287343300e-01
-1.077367993769649068e+01,-1.051513351508742422e-01,-9.361579813395475014e-02
-1.076899510765669099e+01,-9.862436520606275570e-02,-9.559870741403504735e-02
-1.076803135670484401e+01,-9.835543772127536277e-02,-8.644788993845142766e-02
-1.077871778119768109e+01,-1.050506498868203492e-01,-1.006599342601999653e-01
-1.076941427346206659e+01,-1.050353101378943832e-01,-9.453916180311729145e-02
-1.078508886222748764e+01,-9.592940217285862714e-02,-1.035557432341538131e-01
-1.077519895849573039e+01,-9.451364385797196566e-02,-9.496710991045444195e-02
-1.077287983510878533e+01,-1.037321612194996856e-01,-9.452358565951576863e-02
-1.076585255982441147e+01,-9.716305443113185114e-02,-9.727494617091209106e-02
-1.077186803414536165e+01,-9.097336429786637146e-02,-8.846573221721627800e-02
-1.076106594393149152e+01,-9.403285483022025271e-02,-9.603660720667492323e-02
-1.077222413940302914e+01,-9.419442368064190330e-02,-1.011498210001543496e-01
-1.078061734978596498e+01,-9.515338400203400548e-02,-9.496117609313182995e-02
-1.077542899545107069e+01,-9.817522836390338292e-02,-1.047443458216612694e-01
-1.077774522353911735e+01,-9.718996305111141099e-02,-9.516525323079740029e-02
-1.076290955043512731e+01,-1.022438135866650943e-01,-9.960533665841045381e-02
-1.076936774397906227e+01,-9.921885272800053113e-02,-9.287235117426377584e-02
-1.077823772681217207e+01,-1.055078667697159911e-01,-9.098761808454586264e-02
-1.076594144470285563e+01,-9.635091941609982835e-02,-9.356148222946049364e-02
-1.076937517639412434e+01,-1.058594470754208317e-01,-9.356299034024445627e-02
-1.076864000346508909e+01,-9.113786811149782174e-02,-9.377755012442581806e-02
-1.077338705217986714e+01,-9.392836564979438474e-02,-9.700108966579948366e-02
-1.077215532564647482e+01,-1.052260087612754969e-01,-9.683449739202337758e-02
-1.077416839957469996e+01,-1.062929210124025914e-01,-1.037417926900333076e-01
-1.077075700642327938e+01,-9.105058357621934051e-02,-9.678251208719651499e-02
-1.076859920138301163e+01,-9.588276148344365701e-02,-9.227378728499835425e-02
-1.078181865612003421e+01,-1.020748837170663281e-01,-9.688867854923198519e-02
-1.077380918521067343e+01,-8.899178696042188419e-02,-1.037058777771589502e-01
-1.077485900202187885e+01,-9.259949308839870996e-02,-9.233457763764782444e-02
-1.078432591497633020e+01,-9.897218965546218661e-02,-9.723563820947345171e-02
-1.077331866285250328e+01,-1.026388677695414253e-01,-1.006687059556496538e-01
-1.077185236414358371e+01,-9.300892773011852632e-02,-9.576947478017092119e-02
-1.076453116033935054e+01,-9.069889344774120787e-02,-9.819698687959210748e-02
-1.077545453887255356e+01,-9.239777172310847941e-02,-9.854219437756250866e-02
-1.077755118364959763e+01,-9.436478010719101528e-02,-1.005493639516852888e-01
-1.077356657998966583e+01,-9.705095447493064520e-02,-9.387615367391925758e-02
-1.077266986370278445e+01,-9.973847227410723160e-02,-9.769314165641036773e-02
-1.077575447452608870e+01,-1.055800460843815541e-01,-1.061508835973383469e-01
-1.077084387155261069e+01,-9.834020432386145205e-02,-1.044596472969039902e-01
-1.076890767183305186e+01,-1.047528774038643529e-01,-1.038385356551373706e-01
-1.076429301054673360e+01,-1.019171161002747628e-01,-9.714394059542431903e-02
-1.077528057095591230e+01,-9.119827457153571737e-02,-1.022468539373183744e-01
-1.077617555395510607e+01,-9.677562765511756038e-02,-1.005813726409030967e-01
-1.076569863127636317e+01,-9.564922820740315301e-02,-9.291309110489091860e-02
-1.077120072665830186e+01,-8.851836121190459483e-02,-1.072609573749491590e-01
-1.077548285570805220e+01,-9.567485273897997911e-02,-9.706345774563382434e-02
-1.078100056528257333e+01,-9.727412866541192138e-02,-1.087604518592376474e-01
-1.078056131889061575e+01,-9.993248959721323654e-02,-9.394896446261286060e-02
-1.077826321396530140e+01,-9.355513425526182369e-02,-9.833327181402400086e-02
-1.077631416826524458e+01,-1.001100044334812394e-01,-9.950925324486527279e-02
-1.077726630201857105e+01,-9.323700180982759378e-02,-1.003627264992837109e-01
-1.077778839535169197e+01,-9.807788782329049382e-02,-9.763739902228973921e-02
-1.077274713007794560e+01,-9.718251844664785311e-02,-1.051734252247913393e-01
-1.076936476949894761e+01,-9.933969960013118439e-02,-9.028825287989247772e-02
-1.077824177995754518e+01,-9.909144080055820591e-02,-9.393288338551451788e-02
-1.077016656857756516e+01,-1.058645612356295812e-01,-9.550936320479616604e-02
-1.077109524639875104e+01,-9.604311579145181910e-02,-1.011398914145586331e-01
-1.077178841109471996e+01,-9.894817702941845206e-02,-9.207265712035334060e-02
-1.076474041290510897e+01,-1.011860458272928753e-01,-1.046939376941511818e-01
-1.077176862673867497e+01,-9.819551850817678784e-02,-9.176813660823691932e-02
-1.077290111188378496e+01,-1.049738509393428054e-01,-9.600733756910392880e-02
-1.077988696974054861e+01,-9.550887321114553963e-02,-9.204958105851308858e-02
-1.077310434981074572e+01,-9.994218011017522163e-02,-9.154098411491513876e-02
-1.076921706347521912e+01,-9.930012385812003739e-02,-9.819491766983072523e-02
-1.076635361665822010e+01,-9.106852024994725736e-02,-9.857663007150414824e-02
-1.076928175635041640e+01,-9.914680488462961072e-02,-9.346462636652741462e-02
-1.077736342711313711e+01,-9.487703415420589703e-02,-1.011447415506915304e-01
-1.077075085883840444e+01,-9.880170559165396549e-02,-9.195057301815395823e-02
-1.078153869354108707e+01,-1.087572151515410340e-01,-1.009214257087012734e-01
-1.077890605312545702e+01,-1.007211698748877865e-01,-1.114933091906409462e-01
-1.077167546535554621e+01,-1.005033813805755183e-01,-8.979862510558056510e-02
-1.077420325806235901e+01,-1.008691390569981666e-01,-9.411316006596540107e-02
-1.077100802855856365e+01,-9.243707446413977624e-02,-1.031252169909700617e-01
-1.077312906448209695e+01,-9.448415101295920548e-02,-1.070756559793560464e-01
-1.077628344563205331e+01,-9.584281003720014624e-02,-9.175824188432350759e-02
-1.077512730250669648e+01,-8.968977659747570663e-02,-9.276273601118825707e-02
-1.077168831956637263e+01,-9.823843921672699431e-02,-8.505768562040703917e-02
-1.077533761776315835e+01,-1.033682958845232452e-01,-8.352002771631521216e-02
-1.077181211341746625e+01,-8.758152745362690617e-02,-9.522207971586744979e-02
-1.077900697907705663e+01,-9.827141781696570322e-02,-9.546134786659281335e-02
-1.076191586928400135e+01,-1.006597784983963711e-01,-9.974637467770397503e-02
-1.077069269162784870e+01,-9.976140344518011349e-02,-1.024029164078513465e-01
-1.077108466293980804e+01,-1.061898916501170520e-01,-1.035376060587462482e-01
-1.076550884699783595e+01,-9.226668505191244762e-02,-1.024883219080809788e-01
-1.077452095694701839e+01,-8.504206528823762823e-02,-9.661774641643358641e-02
-1.077100516698668820e+01,-9.873593656495564808e-02,-1.013746774028747577e-01
-1.077472088360128133e+01,-9.888736912197090834e-02,-1.033836319549884253e-01
-1.078066626176848963e+01,-9.402336309180323037e-02,-9.853537918165154730e-02
-1.077362044727404822e+01,-9.869119338651334561e-02,-8.403720549185271504e-02
-1.077357017307283904e+01,-9.010700653475606225e-02,-9.251818895627721140e-02
-1.076595863695657940e+01,-9.444878166599988967e-02,-8.643131555309455094e-02
-1.076943183726432984e+01,-9.615452506843519265e-02,-9.589786840635498855e-02
-1.077096090939136808e+01,-1.047927731569735926e-01,-9.481249965039835470e-02
-1.078627164329414967e+01,-9.349405322039275323e-02,-8.938011522712846491e-02
-1.077475788651397970e+01,-1.000658948882427179e-01,-8.476417462948752923e-02
-1.077417740506867894e+01,-1.007432058998537355e-01,-9.159693192417434071e-02
-1.076890702336502947e+01,-9.539299066765485891e-02,-9.281439280292246019e-02
-1.078207699252219953e+01,-8.993615504134834515e-02,-9.956027618411553148e-02
-1.077713323037465187e+01,-9.561618802201057865e-02,-9.758418968953228023e-02
-1.076509338121967296e+01,-8.414356737927865260e-02,-9.331435773408261469e-02
-1.077196521034556476e+01,-8.523419402671039702e-02,-1.005978626717707325e-01
-1.077715390127605843e+01,-1.054978943540329367e-01,-9.130702412671634627e-02
-1.077149016316686669e+01,-1.038514527540699700e-01,-9.799170609690424638e-02
-1.078318822609508132e+01,-9.693384247068227710e-02,-9.510112384237848215e-02
-1.077164074349466283e+01,-9.255448335912969116e-02,-9.638912157803319891e-02
-1.077728096193579432e+01,-9.567706706974209163e-02,-9.987873237657843295e-02
-1.077834564985190546e+01,-9.285618617634272542e-02,-1.001171176258867090e-01
-1.076696127199323527e+01,-9.126799203065112664e-02,-9.457861907523797129e-02
-1.078047370060080112e+01,-9.736051148502958275e-02,-9.607553398531702704e-02
-1.077866096518414452e+01,-9.868440611044224098e-02,-9.223735136186098083e-02
-1.077550571209402008e+01,-1.022388439987386016e-01,-8.890030236223639415e-02
-1.076895381140946384e+01,-9.923519939094453679e-02,-9.410910554750265278e-02
-1.076711620526268653e+01,-9.166372287812302178e-02,-9.578664090899563499e-02
-1.076852895669210319e+01,-9.821505796606194716e-02,-9.833953497940203792e-02
-1.077461355078370708e+01,-9.290733663200116677e-02,-9.454255752661948342e-02
-1.076639450595435576e+01,-8.869218634245953914e-02,-9.661339011555163114e-02
-1.077965192809504735e+01,-9.365278698921310208e-02,-9.728666422169053585e-02
-1.077741032017870104e+01,-9.570544785874929294e-02,-8.703265527280178160e-02
-1.076797276763900868e+01,-1.025741857146130059e-01,-1.020038210210846286e-01
-1.077338093630436511e+01,-1.024053690784229864e-01,-9.445854665455136190e-02
-1.077020037638953553e+01,-9.537178974379563468e-02,-9.651167299501033081e-02
-1.077693945555272848e+01,-1.028671697512820449e-01,-9.659337127939114642e-02
-1.078464019807981167e+01,-9.595362404393503741e-02,-9.831134113558180621e-02
-1.076853939066469223e+01,-1.075913317402858171e-01,-9.880243079032635656e-02
-1.077011944286121192e+01,-9.843368413306403941e-02,-1.040267704463554432e-01
-1.077607168068057142e+01,-9.163802815150251524e-02,-1.048582946566445073e-01
-1.076672575084413097e+01,-9.987936095284853655e-02,-9.626879315851329111e-02
-1.076859257170041495e+01,-9.991754879713174442e-02,-1.024450063530375210e-01
-1.077888566952221794e+01,-1.044050100542750353e-01,-9.896526250012047110e-02
-1.077602228160402298e+01,-8.836889211591035520e-02,-9.826452760216476678e-02
-1.077504624976911529e+01,-9.630533027970174242e-02,-9.267372359228975842e-02
-1.078495988902734659e+01,-9.427136438232558424e-02,-9.595045048045668101e-02
-1.076391283440115565e+01,-1.049643007158685554e-01,-1.004164006608205401e-01
-1.077942823757528679e+01,-1.064575819669111162e-01,-9.904543843747604104e-02
-1.077345471236872854e+01,-1.038394854987297888e-01,-9.292306007735014195e-02
-1.077980721602393288e+01,-9.632488836484699724e-02,-1.044924432734975622e-01
-1.077625030646996684e+01,-9.060680155589181939e-02,-9.693789463430325937e-02
-1.076302845551515652e+01,-1.042569185233343382e-01,-1.035473922065724695e-01
-1.077045444747036029e+01,-1.020213554694301833e-01,-1.062934449536863113e-01
-1.077670332508558637e+01,-1.051336621774058427e-01,-8.662468797066735782e-02
-1.077226482802874408e+01,-9.445566858218028272e-02,-8.974595702436176381e-02
-1.077965706280893166e+01,-9.682353971500040624e-02,-9.989073864356631804e-02
-1.076785444563678951e+01,-1.027298098560079920e-01,-9.407289938902621551e-02
-1.076993345881992781e+01,-9.736133540398447805e-02,-9.893249533553979957e-02
-1.075931300915343058e+01,-1.037743893497392877e-01,-1.004548279884554252e-01
-1.076852341552674730e+01,-8.522602504633933207e-02,-1.011415618394019833e-01
-1.077259296375678588e+01,-1.075777783929821596e-01,-1.094010302717619426e-01
-1.077435805446746997e+01,-9.661348508275519054e-02,-9.761083583308403921e-02
-1.077167257196223282e+01,-9.137679860563635570e-02,-9.510447762841721386e-02
-1.077106108934296458e+01,-1.005666717479629935e-01,-1.028748638435907081e-01
-1.077534629925671261e+01,-1.028255380623002424e-01,-9.767462914859591228e-02
-1.076498551344808341e+01,-9.372555857083790520e-02,-9.995719436503910926e-02
-1.076261354598628728e+01,-9.841423414958487548e-02,-9.345473832536804748e-02
-1.076811466505066939e+01,-9.021461912759633217e-02,-9.694989094795189444e-02
-1.077523723322923210e+01,-9.620365159099628083e-02,-9.588751555665032955e-02
-1.077355391760671033e+01,-1.093095163352380272e-01,-9.686079858346165194e-02
-1.077139434444585930e+01,-9.524252157660879903e-02,-9.577422428207797711e-02
-1.076937476665945859e+01,-8.990267089268277889e-02,-9.929384700160169552e-02
-1.077788813752534480e+01,-9.157461866490350377e-02,-9.215657180456528208e-02
-1.076671430968580445e+01,-9.918488542854912715e-02,-9.529295616751959352e-02
-1.077767426292223618e+01,-1.007649658805086224e-01,-9.573464534147116400e-02
-1.076925331912762118e+01,-9.581029847747225825e-02,-9.469108557385866320e-02
-1.076305024101164598e+01,-1.006212748694587933e-01,-1.061399653267618981e-01
-1.077391048340247082e+01,-9.414502928316388630e-02,-8.728254687088042585e-02
-1.076910135491645093e+01,-9.634553481890238691e-02,-9.987142980565508199e-02
-1.077202993302585909e+01,-1.062115205803559614e-01,-9.046251269311116061e-02
-1.077480152043207617e+01,-9.617298513367869561e-02,-9.715499919236390836e-02
-1.077695153126646410e+01,-9.663055262843915638e-02,-9.386866757732591215e-02
-1.077429563687008951e+01,-9.031581276842801098e-02,-1.003804150628967717e-01
-1.076770355548176461e+01,-1.002797837813624304e-01,-1.077396934800461392e-01
-1.076898793194875559e+01,-1.018120619035477042e-01,-9.490410883113424567e-02
-1.077396476691481375e+01,-9.286479580867744443e-02,-9.832149903037894212e-02
-1.077407173075254576e+01,-9.377117466158921277e-02,-1.002106507177335376e-01
-1.076808516101363189e+01,-8.933832898341091677e-02,-9.465203479315399682e-02
-1.077338755643024903e+01,-9.493037875599499853e-02,-9.870105415189781017e-02
-1.077874491909383536e+01,-9.382309491754811659e-02,-1.035372113590821708e-01
-1.077805563356657714e+01,-1.042265823435202243e-01,-8.952599517698586751e-02
-1.077135918152360361e+01,-9.401645234031914822e-02,-1.037277580846879266e-01
-1.077302620344226902e+01,-9.892278841947158008e-02,-9.587496305085649317e-02
-1.076903466110517726e+01,-9.965849016280825534e-02,-9.743005293437934089e-02
-1.077072386891027200e+01,-9.707572164475186671e-02,-9.545288059110972056e-02
-1.077790667256544310e+01,-1.030239218382604377e-01,-8.726416136761058762e-02
-1.076273995461979993e+01,-9.803536329869720622e-02,-9.278199509308587833e-02
-1.077486128295769952e+01,-9.310342290724490932e-02,-9.257324937367970852e-02
-1.077137792098190339e+01,-9.612682700194839780e-02,-9.372070412154674679e-02
-1.077309134101594168e+01,-9.904126137299748556e-02,-9.390834551938380403e-02
-1.077970783599253224e+01,-1.021750152465667610e-01,-9.266134859986066563e-02
-1.077785358302318386e+01,-9.677049898255297988e-02,-9.823210001845469885e-02
-1.076668664913084505e+01,-1.008157575905997971e-01,-9.848837519802894347e-02
-1.078002276869054121e+01,-8.889438207116011348e-02,-9.325868308468447665e-02
-1.076965457014150473e+01,-9.497868159193766091e-02,-9.244195037236503654e-02
-1.076864708796706260e+01,-9.850309453183789254e-02,-9.174336315496013639e-02
-1.076480120974745880e+01,-1.006765887576899221e-01,-1.013117406526070352e-01
-1.077722661667610282e+01,-9.561297952276232026e-02,-1.003329566476162255e-01
-1.077659040096815879e+01,-9.695352517848897234e-02,-9.947870736204299236e-02
-1.077539027282308659e+01,-8.824361238708088029e-02,-1.007559110976174038e-01
-1.077525945459704815e+01,-1.005568539758408819e-01,-9.995825682319153804e-02
-1.077570616187973407e+01,-9.095172584762079016e-02,-1.042501087694889111e-01
-1.077427857999346195e+01,-9.458159025222437344e-02,-9.864621146343406644e-02
-1.078185136074467110e+01,-9.826468819615287453e-02,-9.832486965360866249e-02
-1.077102063270552001e+01,-1.031047264881011782e-01,-9.733013806654138012e-02
-1.077642138065172084e+01,-9.775534511715407160e-02,-9.481730077032482495e-02
-1.076713495422609768e+01,-1.083559335802747464e-01,-9.562068726791075890e-02
-1.077793639312557694e+01,-1.068097416353383788e-01,-9.445884576119661924e-02
-1.077911562612922936e+01,-9.400423024273486805e-02,-1.011247816143039380e-01
-1.076814683817844198e+01,-1.034589653443205859e-01,-9.357038347426677172e-02
-1.078081235234919788e+01,-9.993756498642557273e-02,-9.955066203844650796e-02
-1.077584599096744356e+01,-9.713270042534240256e-02,-9.294722388837578508e-02
-1.076457786279928186e+01,-9.709693226018226153e-02,-9.794423383705995467e-02
-1.077921775413514816e+01,-9.558054802825913243e-02,-1.055875914175482266e-01
-1.077838824227335657e+01,-9.266873036933437335e-02,-1.020183471415511550e-01
-1.076211574364161017e+01,-1.050869033768234012e-01,-1.056870794799679575e-01
-1.078178570183230356e+01,-9.641415276283604729e-02,-1.017940725289794429e-01
-1.078536718720803300e+01,-9.176239150372517139e-02,-9.500941355906948604e-02
-1.078350018921920395e+01,-1.000840056795683219e-01,-9.570714497276648636e-02
-1.077137639841808436e+01,-1.017572325025968838e-01,-9.749351417135580788e-02
-1.077456111443912690e+01,-9.490292374176688417e-02,-1.002507897656904207e-01
-1.077611281075037475e+01,-8.827581940861331522e-02,-9.245462675085973359e-02
-1.077138354157156286e+01,-9.693594359195373267e-02,-9.519603568722127818e-02
-1.077550040237102458e+01,-8.710936076419338592e-02,-9.648108637248925534e-02
-1.077033056659077204e+01,-1.020586834383264696e-01,-9.679130475677648338e-02
-1.076799111411015097e+01,-1.064296920789367940e-01,-9.760113629238460764e-02
-1.078144774061929567e+01,-8.939439463240446415e-02,-9.076175422894636191e-02
-1.076869284301551133e+01,-9.995096531453868949e-02,-9.886468080898305755e-02
-1.077655796724309845e+01,-9.591355145439656171e-02,-9.744250247583627345e-02
-1.076743120744255400e+01,-9.815290879603261187e-02,-1.021069182871552905e-01
-1.077674652761133700e+01,-8.791966919165347671e-02,-1.007228530240180941e-01
-1.077508807623318887e+01,-9.916486604147735362e-02,-9.397974421546163859e-02
-1.077929643530775650e+01,-9.690418730602089192e-02,-1.022001676230065992e-01
-1.076996967169515074e+01,-1.033540015510710786e-01,-9.676972384724009946e-02
-1.077573124474663580e+01,-9.334803246739444005e-02,-1.020478466572425358e-01
-1.078372323612168593e+01,-1.027964277397550585e-01,-9.566182115876351033e-02
-1.077730888142837706e+01,-9.434293656690118102e-02,-9.962691518143740321e-02
-1.077033850134929338e+01,-9.248681158205475372e-02,-9.906162476815609519e-02
-1.077448454961552038e+01,-9.162225956495917423e-02,-1.061794129407364895e-01
-1.077418454191407626e+01,-9.965539546076657151e-02,-8.685319074307894238e-02
-1.077009405232107575e+01,-1.036606674175542669e-01,-9.633043652484785113e-02
-1.077479177651974851e+01,-9.418904685094975360e-02,-1.036756978989544914e-01
-1.077901728288203032e+01,-9.263411257459039372e-02,-1.018374988457657893e-01
-1.077008302505781501e+01,-9.768226786458471256e-02,-9.390581807782354129e-02
-1.077121608377339967e+01,-8.928484166742529926e-02,-9.686537070566643426e-02
-1.077314447676876163e+01,-9.699988931885122900e-02,-9.660113129948336153e-02
-1.078009360156557328e+01,-1.008903886425099039e-01,-9.582770540425811223e-02
-1.077426327565775210e+01,-9.947804671806502463e-02,-9.165775123429155402e-02
-1.076723369904558680e+01,-1.057806106052624068e-01,-9.788123157055354795e-02
-1.077714365036644573e+01,-9.460977533858114241e-02,-1.015105550620085534e-01
-1.076795903124549980e+01,-9.707075900388936751e-02,-9.947157572733174302e-02
-1.077415641819151482e+01,-8.703272746075736699e-02,-9.213367717892423370e-02
-1.076211064874919110e+01,-1.061259506725329288e-01,-9.653841445865267434e-02
-1.076074137035189260e+01,-1.011408171288737806e-01,-9.339285939461473840e-02
-1.077148720968114404e+01,-9.956011102143060010e-02,-9.628131678500456703e-02
-1.077001791872473468e+01,-1.074491881948299310e-01,-9.236695099555090882e-02
-1.076793825367130886e+01,-9.066242445988385856e-02,-1.004347922516050373e-01
-1.077524657420842402e+01,-9.764719899648716117e-02,-9.629450898077442089e-02
-1.078298024834602664e+01,-9.353044134321282510e-02,-9.906292546827701051e-02
-1.077742190253800736e+01,-9.930294611845130737e-02,-9.840401037119816952e-02
-1.077493328758726854e+01,-9.883840171313627854e-02,-1.014060828983149865e-01
-1.077645078174460558e+01,-9.592789563900232241e-02,-9.697911394309678690e-02
-1.077638818040112767e+01,-9.563102694941580384e-02,-9.423023106679405403e-02
-1.077496806571323695e+01,-9.820969951663370556e-02,-9.777295844722122542e-02
-1.077062211319672258e+01,-9.766248921066260358e-02,-1.022614008418727405e-01
-1.078149779034034594e+01,-9.263698727426253332e-02,-9.146557420393253146e-02
-1.077191274830325618e+01,-1.052896101825250841e-01,-1.017463901636554285e-01
-1.078825770187177824e+01,-9.038335910330629053e-02,-1.045513983131014235e-01
-1.077803983132308474e+01,-1.015104398619138121e-01,-8.896303204819577815e-02
-1.078297086160712936e+01,-8.892816351108348560e-02,-9.898375489462964139e-02
-1.076940462725313630e+01,-9.361497630286072513e-02,-9.508270087787856761e-02
-1.077352807728075135e+01,-9.205456742198882270e-02,-1.024415189333291593e-01
-1.077389720915864757e+01,-9.384445120376055938e-02,-8.572294653322172497e-02
-1.078230132339152014e+01,-9.238248889369288230e-02,-9.745809355206622171e-02
-1.077281702715185396e+01,-9.635510548377496098e-02,-9.875910501719301071e-02
-1.076823011095097193e+01,-1.031525966671637262e-01,-9.845198732852294965e-02
-1.077401633349991705e+01,-1.024804484944460831e-01,-9.025691401393207136e-02
-1.076371201394747779e+01,-1.055191329902766956e-01,-9.910500071232963837e-02
-1.077783294981391649e+01,-9.297801234539593285e-02,-9.373973519846157121e-02
-1.075866788670288976e+01,-9.864479290677069523e-02,-9.704874722663824060e-02
-1.077913095419707901e+01,-8.598494549369813111e-02,-9.849421608424134555e-02
-1.077527312946348736e+01,-9.639128599124585639e-02,-1.023719548607087138e-01
-1.077737550674540579e+01,-9.127052342489572201e-02,-1.060928368000629562e-01
-1.077396617890090091e+01,-1.018781224972692273e-01,-9.891119259608348313e-02
-1.077247330033885220e+01,-9.811070494691893906e-02,-1.061595773792321368e-01
-1.077387444922823967e+01,-9.605788217187273548e-02,-1.004829189614487722e-01
-1.077320927399636119e+01,-9.412296436460172722e-02,-1.004357797948692010e-01
-1.077681358374295328e+01,-1.020681622272302108e-01,-9.842246455428567409e-02
-1.077382530063177946e+01,-9.704828622233004076e-02,-9.953729172822313453e-02
-1.077930873452209681e+01,-1.027142486586855030e-01,-1.093229969435490917e-01
-1.077512608511355019e+01,-9.656499311702476662e-02,-1.007131283799554550e-01
-1.077213780827527678e+01,-1.010053228320024754e-01,-1.052252074260003611e-01
-1.077017265197539153e+01,-1.030520675706139144e-01,-1.011090918093487112e-01
-1.077415981391270705e+01,-9.450962633935318380e-02,-9.967502271476402775e-02
-1.077601173191846051e+01,-1.032666066651040243e-01,-1.028649206579631825e-01
-1.077843142664225340e+01,-1.046869327412953549e-01,-9.719307344840071028e-02
-1.077130309170806832e+01,-9.492535853388896216e-02,-1.031165922243512251e-01
-1.077280682531450928e+01,-9.511200040401115996e-02,-9.775917954379047259e-02
-1.077345039366008272e+01,-9.646349478537445676e-02,-9.820302994809448904e-02
-1.077683573829728303e+01,-9.947487994516542031e-02,-1.018403806048015642e-01
-1.076966579651193001e+01,-1.016946966338022201e-01,-9.310863398330995744e-02
-1.077289728323165718e+01,-1.005160109694223508e-01,-9.106482304311930287e-02
-1.077534931278271024e+01,-1.033414163846537032e-01,-1.042043764509660297e-01
-1.077123401206205955e+01,-1.037763089955637680e-01,-9.817824843251943268e-02
-1.077444449386764092e+01,-9.759570730274598482e-02,-8.807280066835325438e-02
-1.077760982813907198e+01,-1.076347168906658103e-01,-8.869303545512680076e-02
-1.077532094061440482e+01,-9.760326361977252063e-02,-9.481837342891955012e-02
-1.077869710036296880e+01,-9.869716160861047305e-02,-9.644103587649040243e-02
-1.077851686936424791e+01,-1.046685535732214123e-01,-9.859219321178348816e-02
-1.077968484985084174e+01,-9.740490071468728417e-02,-1.025170622149845084e-01
-1.077027448841735513e+01,-9.989258574199021135e-02,-9.716935941558473011e-02
-1.077194354904736784e+01,-9.926472157271976071e-02,-9.339407948453073982e-02
-1.077687094133865564e+01,-1.045311787323763286e-01,-9.985620548841193933e-02
-1.077005631299810062e+01,-9.907074731298357029e-02,-1.003788463823395288e-01
-1.076776355707628241e+01,-9.336890115263071777e-02,-9.783218328623141669e-02
-1.078568080156763287e+01,-9.615654575956562866e-02,-9.816241725929172879e-02
-1.076839659099213620e+01,-1.001475694703321817e-01,-9.768606525976150645e-02
-1.076711474741032326e+01,-1.056727311552911885e-01,-9.993061237632452909e-02
-1.076882585316699270e+01,-9.600148913449557675e-02,-9.120263639422156177e-02
-1.077690005075278457e+01,-9.169529150885126489e-02,-1.013333444717463699e-01
-1.077261408266603837e+01,-9.509112195337010576e-02,-9.113713744477626444e-02
-1.077473085800636099e+01,-1.042564106975831933e-01,-9.591268694113244675e-02
-1.077101004606245382e+01,-9.759938655069816393e-02,-1.015542600559705827e-01
-1.077688000062978269e+01,-1.012908297262986312e-01,-8.857324476309649808e-02
-1.076016365634239591e+01,-9.485121285210398878e-02,-9.540303149947856887e-02
-1.076763186011575968e+01,-9.367725513129138148e-02,-1.029486734978723034e-01
-1.076265682722493189e+01,-9.133002994417664666e-02,-1.062181840479301254e-01
-1.077264902847706196e+01,-9.199942866670046682e-02,-9.721249119853030141e-02
-1.077346353307178894e+01,-9.542673365782407269e-02,-9.406004263975645263e-02
-1.077859542442366347e+01,-1.026793284527966199e-01,-1.020116717915412613e-01
-1.076622220765350590e+01,-1.003569383090738149e-01,-9.326238588011766251e-02
-1.076944921010371026e+01,-1.005438054889921246e-01,-9.385032621157488042e-02
-1.077449678731220395e+01,-9.914535126580191482e-02,-9.583415787906297834e-02
-1.077740293811342198e+01,-9.465535254375619101e-02,-1.010287211737961738e-01
-1.077532108177532599e+01,-1.054508721465171883e-01,-9.837983609340504587e-02
-1.077489904861831072e+01,-9.762909511803134766e-02,-1.005475967780330437e-01
-1.076939698034615844e+01,-9.298327545872882294e-02,-9.837787476203069259e-02
-1.077506834566436034e+01,-9.283975744239765515e-02,-1.056771465289160772e-01
-1.076871117315458903e+01,-9.596639272510182339e-02,-9.324894060972006848e-02
-1.077923864927392827e+01,-9.039462832722390540e-02,-9.225638811129688310e-02
-1.077639482165775853e+01,-9.424093637129868362e-02,-9.538889917923000505e-02
-1.076745984099212983e+01,-9.569889090445800328e-02,-9.359254538620957742e-02
-1.078506939202254955e+01,-9.537725125179864760e-02,-8.825333394939074982e-02
-1.077672531547633206e+01,-9.667694628012199476e-02,-8.953778590289680761e-02
-1.077600407200739241e+01,-1.009771196532646270e-01,-1.071183854365279770e-01
-1.077348622273000878e+01,-9.003702992656563431e-02,-1.055981747941079629e-01
-1.076829722231611797e+01,-1.016463573969231676e-01,-1.011515174174903720e-01
-1.076485137871673103e+01,-9.168393087568431354e-02,-9.337257180801225576e-02
-1.078198964695795148e+01,-1.039493432019223257e-01,-1.020725602034072282e-01
-1.078309935385135354e+01,-9.802426292785652862e-02,-8.709476022826012631e-02
-1.076797044098936951e+01,-1.038550691482358901e-01,-9.341260755685307227e-02
-1.076720343740159969e+01,-1.053801600670337402e-01,-1.003368792430229389e-01
-1.077843083255782552e+01,-9.841586816778495617e-02,-9.560519347247750654e-02
-1.077192364237643751e+01,-9.746486823878547368e-02,-8.711948844113874546e-02
-1.077540951344270326e+01,-1.112209567935224935e-01,-9.781310644645097030e-02
-1.077945239654034992e+01,-9.545181373498753952e-02,-9.880634612644523251e-02
-1.076403080389904332e+01,-9.336317951798342452e-02,-9.227851315517178465e-02
-1.077024730901866967e+01,-9.985694957425703122e-02,-9.050935861094200341e-02
-1.077949157462830598e+01,-9.176542483202816680e-02,-9.429176060404229065e-02
-1.077484469815731494e+01,-1.025303360547502457e-01,-8.813069571938954294e-02
-1.077840374933056644e+01,-9.608108740339751930e-02,-9.001828291237783108e-02
-1.076935504596114690e+01,-9.224106731839359918e-02,-1.046764248263714336e-01
-1.077101583149712205e+01,-9.663683164358283229e-02,-9.782916349181342008e-02
-1.076984641408382437e+01,-9.267521593423601323e-02,-1.015305887888044434e-01
-1.077372167312946871e+01,-8.912360734980083465e-02,-9.758287745746031805e-02
-1.077286170940736021e+01,-9.507036550528426277e-02,-9.363312015931686549e-02
-1.077336826910520529e+01,-1.019146918069917668e-01,-1.018140136438135251e-01
-1.077424003214192361e+01,-9.844526696792670062e-02,-9.618725882515458125e-02
-1.078009637635245532e+01,-9.922278222416104632e-02,-1.014162352143908041e-01
-1.077412357026512169e+01,-9.934096254002673654e-02,-9.305956668836397327e-02
-1.076770816757047555e+01,-9.861250473303369291e-02,-9.111216491624633818e-02
-1.077591788409454843e+01,-9.952617013235975918e-02,-9.358732160498685337e-02
-1.077957598890403546e+01,-9.014310528652975940e-02,-9.548858254741232621e-02
-1.076724832543177968e+01,-1.022488754976448588e-01,-1.020923301376917558e-01
-1.077816446125764571e+01,-9.354334839024383563e-02,-1.005640108204419597e-01
-1.077200094252197893e+01,-9.952388253891067404e-02,-1.028348831154580895e-01
-1.077259461068704915e+01,-9.612582214340385789e-02,-9.453157762819354437e-02
-1.076987611541718159e+01,-9.803530389263222233e-02,-9.144229918910878885e-02
-1.077937434588704413e+01,-1.026297621629273793e-01,-9.047357582405826659e-02
-1.076402238193922933e+01,-1.036548133979962594e-01,-9.425224150309523263e-02
-1.076999255513871390e+01,-9.717019873103130423e-02,-8.668976676719948593e-02
-1.077358537938651928e+01,-9.089622124535635950e-02,-1.011544492323050715e-01
-1.078096735525978112e+01,-9.113992004495119481e-02,-1.029367217025344283e-01
-1.077518194557071318e+01,-9.527270695182107896e-02,-9.699331246267327289e-02
-1.077067622058063989e+01,-9.621910812656303547e-02,-9.518426327805104559e-02
-1.077492405928796160e+01,-9.365771749423117132e-02,-9.331160140821848081e-02
-1.077263846214181520e+01,-1.003293960436896642e-01,-9.646699372889595836e-02
-1.077509244952006284e+01,-9.614919190611154187e-02,-1.009875308249679055e-01
-1.077504583028290419e+01,-9.417968464865221490e-02,-1.058689314790459413e-01
-1.077980858553112498e+01,-9.990999064829172993e-02,-9.049071710543779568e-02
-1.078378130277588731e+01,-9.415602055927171921e-02,-9.147770200475992264e-02
-1.076759647788024310e+01,-9.484918272719830568e-02,-9.280621687820983512e-02
-1.077029781548791298e+01,-9.349860657952908938e-02,-1.012212144463779107e-01
-1.076859357074386914e+01,-1.075484743958801809e-01,-9.739409197577068855e-02
-1.077375032315772785e+01,-9.337337400079694094e-02,-8.836666911742678543e-02
-1.076586743176137695e+01,-9.613987854529477961e-02,-9.563587678497602329e-02
-1.076610204442972218e+01,-1.000638351688672156e-01,-1.051922007534935588e-01
-1.077155510860661103e+01,-9.624211150973091544e-02,-1.013065469334140656e-01
-1.077959920581708531e+01,-1.009033180059926843e-01,-1.005844405669166358e-01
-1.076847399803233429e+01,-9.641507477523324210e-02,-1.002307396191377820e-01
-1.077699928465687229e+01,-1.003046329462898290e-01,-1.028785886022523383e-01
-1.077810744509034713e+01,-9.311778183967558964e-02,-9.663386462052139803e-02
-1.077290354191253918e+01,-9.060725462966290333e-02,-8.949095680865362668e-02
-1.076715422707345660e+01,-1.018157819516227747e-01,-9.111150325992707633e-02
-1.076751237916976400e+01,-1.035793495378490164e-01,-1.010840639394345736e-01
-1.077282383960329248e+01,-8.988236059717223669e-02,-1.012838923807567598e-01
-1.078054783264275152e+01,-9.546383086875231960e-02,-9.730414889270222467e-02
-1.076929910371294241e+01,-9.109830885913017262e-02,-9.518913479352500429e-02
-1.077221503897854937e+01,-9.651827490408886046e-02,-9.590626812593029682e-02
-1.076544463843774047e+01,-9.705160690290269565e-02,-1.015228275845273809e-01
-1.076933257523639043e+01,-9.883751140599345009e-02,-9.366306653235161039e-02
-1.077924764961787396e+01,-9.706013948469183195e-02,-9.689414955680815400e-02
-1.076918144514756648e+01,-9.662933814170454605e-02,-1.002005367843442213e-01
-1.077494098083805518e+01,-1.004348847751383722e-01,-9.377207705028252349e-02
-1.076811082422011978e+01,-9.701382763081992100e-02,-1.008280250766485364e-01
-1.077261492873016024e+01,-9.783722220673053693e-02,-1.002936098767769346e-01
-1.076822073867346319e+01,-1.006615622189336728e-01,-9.186849040339299666e-02
-1.077381008932606754e+01,-9.668876249041462312e-02,-9.802585219832068986e-02
-1.078028938054464803e+01,-1.087864064892650889e-01,-9.617474363434992679e-02
-1.077607516590121151e+01,-9.527172602363979947e-02,-1.044794373437180207e-01
-1.076868997298611852e+01,-9.864725916007466289e-02,-9.587379341828163037e-02
-1.077710426826589440e+01,-9.565358421903810693e-02,-9.725176232679044741e-02
-1.077289843868993025e+01,-9.221681430380962441e-02,-9.464523545217091993e-02
-1.078900482466867317e+01,-1.023890986147027865e-01,-9.166491408675654651e-02
-1.077405945839596413e+01,-9.921382647142261424e-02,-8.781901671386459218e-02
-1.076930519170720402e+01,-9.316137920214427603e-02,-9.940452582112963009e-02
-1.077529917281664673e+01,-9.988940825575010063e-02,-9.660175382470813366e-02
-1.077316540322723348e+01,-1.008921846446061144e-01,-9.264434326170756240e-02
-1.077829352278965303e+01,-1.051843701610001708e-01,-9.372906149092617711e-02
-1.077701533786582999e+01,-1.011636114986755874e-01,-1.055726928220502570e-01
-1.077036740958740246e+01,-9.406540047885902922e-02,-9.557999233337947931e-02
-1.078434080141894214e+01,-9.744454275263400578e-02,-9.743304728260525349e-02
-1.078241921669645720e+01,-9.495580986823899672e-02,-9.569192978592402921e-02
-1.077984625408523023e+01,-9.524567119591177689e-02,-9.683236749861932890e-02
-1.078197324461083006e+01,-1.001797745605124135e-01,-1.095935880180899658e-01
-1.077379863752594424e+01,-9.273093832848851303e-02,-9.320700679983671966e-02
-1.076005766149767240e+01,-9.750367064338567868e-02,-1.012600127365766434e-01
-1.077651906465059106e+01,-1.055475290008274086e-01,-9.960147137289154795e-02
-1.077687054308919734e+01,-9.657951074074062892e-02,-1.003960411566993532e-01
-1.076730770998415387e+01,-9.909281819535301072e-02,-9.242705847199526870e-02
-1.077523515064758897e+01,-9.441385516441037906e-02,-9.694702113155805046e-02
-1.077577912816729899e+01,-9.776417315416768838e-02,-9.466437080776431146e-02
-1.077565354300876876e+01,-9.799245189585267801e-02,-1.032498116560472273e-01
-1.077221638687335670e+01,-1.016034949638124074e-01,-1.063928127652478128e-01
-1.077494481283017969e+01,-9.987223576285995941e-02,-9.891150036449060379e-02
-1.076580291454540372e+01,-9.311935690752375094e-02,-9.360015974085816870e-02
-1.076622943624686535e+01,-9.917123075787909192e-02,-9.605246936056341389e-02
-1.077747817146046394e+01,-9.511373489924833391e-02,-1.000488766370694893e-01
-1.077579926415647549e+01,-9.278752344092210114e-02,-9.728596874236532244e-02
-1.077011058982298408e+01,-1.029265109414508883e-01,-9.597014223492772445e-02
-1.077634423990068768e+01,-1.079306031165144647e-01,-1.069062234875056833e-01
-1.076482230975361709e+01,-9.275252644914827593e-02,-1.003906054536233550e-01
-1.078103771731909966e+01,-1.011494316006805033e-01,-9.649368101545478804e-02
-1.078185076846690293e+01,-9.005770902864829175e-02,-9.406641556388486980e-02
-1.076800470743063087e+01,-9.685373069704970861e-02,-1.009099301727966885e-01
-1.077515985300341406e+01,-9.356471241696641405e-02,-1.020860971547297158e-01
-1.076434525658554264e+01,-1.085826912758686147e-01,-9.900646835740087304e-02
-1.077179579151839839e+01,-1.065114035140208998e-01,-9.946695143562411801e-02
-1.078040826193211110e+01,-9.478623531118771095e-02,-9.853607843325759563e-02
-1.077495419094470819e+01,-1.055676501031276721e-01,-9.173608301972753509e-02
-1.078140546632418406e+01,-9.194731298641520278e-02,-9.256220983023320803e-02
-1.077446531366355842e+01,-9.979070069725173853e-02,-8.728855871177149117e-02
-1.077223181661421414e+01,-9.802163047676473728e-02,-9.627011833079070213e-02
-1.077195004710689652e+01,-1.068860229514406041e-01,-1.022918604060268355e-01
-1.077623574898326453e+01,-1.026035028496047469e-01,-9.902810140380877146e-02
-1.077830376060334849e+01,-9.523895091973949567e-02,-9.883965498593066945e-02
-1.077549842861282592e+01,-9.930317676707001162e-02,-9.971141504710809289e-02
-1.078084740206793768e+01,-1.018221207466202677e-01,-9.474567709684815486e-02
-1.076649883957188081e+01,-1.006356228214799475e-01,-1.046870801109887616e-01
-1.077608496452111986e+01,-1.011215234367889987e-01,-9.913477814354476614e-02
-1.075908383371714017e+01,-9.609540743498083681e-02,-9.478251666656112295e-02
-1.077513359296382944e+01,-9.667804157593179459e-02,-9.241346913541276242e-02
-1.076705007970611128e+01,-8.585078176814024686e-02,-9.485317972958749733e-02
-1.076632979901041232e+01,-1.028762312871625284e-01,-1.087998655288679034e-01
-1.077599876007342772e+01,-1.029953774504406838e-01,-1.016880518916756238e-01
-1.077570136135319778e+01,-9.938806813218542535e-02,-9.224931007854826615e-02
-1.077613496378475055e+01,-1.167185194923748282e-01,-9.862780387308518748e-02
-1.077805454071244107e+01,-9.911733851573459320e-02,-9.343814336935639397e-02
-1.076621085591243521e+01,-1.006332737403236310e-01,-8.997256809992534854e-02
-1.077234099210259011e+01,-9.281837942007489795e-02,-9.633634223103129668e-02
-1.077518687081627036e+01,-9.993595225153811823e-02,-9.803604059943468729e-02
-1.076582881375321676e+01,-9.474673668727112696e-02,-9.522515083703031458e-02
-1.078153639507056383e+01,-1.090436994163810902e-01,-1.004839808736249368e-01
-1.078341660213381026e+01,-8.871930759802554300e-02,-9.157356304196011265e-02
-1.078067053094933847e+01,-1.065036561020832884e-01,-9.259298493894407844e-02
-1.076844504356194676e+01,-1.003175390337621570e-01,-9.907991729775729450e-02
-1.077053160519778174e+01,-9.942149118991536194e-02,-9.507749785736141490e-02
-1.077909403989522552e+01,-9.712690750355008895e-02,-1.065772071864912740e-01
-1.077213202096068123e+01,-9.712481959870530868e-02,-1.037368457859517701e-01
-1.077127265643619936e+01,-9.390012163496687381e-02,-8.924776163441500154e-02
-1.076991359379040425e+01,-1.073559881777661207e-01,-1.065028584604623407e-01
-1.076721547615651353e+01,-9.967702776244972973e-02,-9.744646816333141226e-02
-1.078470511962590273e+01,-1.027304125359880804e-01,-9.975409344985029791e-02
-1.077512169804984055e+01,-9.146358524869012407e-02,-1.072597558265496326e-01
-1.077099031714925559e+01,-9.684265687653292876e-02,-1.055775352784808913e-01
-1.077228149549987890e+01,-9.673136938385930306e-02,-1.102659493313703082e-01
-1.077141347063295207e+01,-9.846089201052886375e-02,-9.714709759200113037e-02
-1.076834889154639008e+01,-9.469463317089256427e-02,-1.026923358531519059e-01
-1.077819968240696369e+01,-9.862412374136943216e-02,-9.577439668970080811e-02
-1.077491200617903822e+01,-9.515375946792199724e-02,-9.686829373939914722e-02
-1.077560636167713781e+01,-1.057924523442379527e-01,-1.002749044618413826e-01
-1.077817149634288896e+01,-9.393538067489913546e-02,-1.077839295492582505e-01
-1.077085576893534302e+01,-9.702473415149327762e-02,-9.600517091344454301e-02
-1.077839482070045030e+01,-9.715092046792656033e-02,-1.028742780720443978e-01
-1.076737293881859969e+01,-9.424983021024542496e-02,-1.054290321618261139e-01
-1.077614149384706721e+01,-9.240099623613548530e-02,-9.870635506644405421e-02
-1.078429436131082930e+01,-9.812835976568669294e-02,-1.034338362008946355e-01
-1.077775512294087612e+01,-9.193067208044237992e-02,-9.608167498344195867e-02
-1.076964886625020057e+01,-1.001934067180026283e-01,-9.273485491697486260e-02
-1.077495340528131429e+01,-1.019658985004002899e-01,-9.162106615633518192e-02
-1.077883777033830093e+01,-8.991130114302033072e-02,-9.261713956591188790e-02
-1.077247239768269438e+01,-9.324174979421488707e-02,-1.025917552239409281e-01
-1.078101836866436436e+01,-9.926202818927452876e-02,-9.915854845787784588e-02
-1.077070078177561285e+01,-9.138917050890732474e-02,-1.007056395949028488e-01
-1.077006598682755012e+01,-9.584157023325894087e-02,-9.884454768880811260e-02
-1.077442027754026199e+01,-1.009752447830839645e-01,-8.578473114354019657e-02
-1.077244011612897623e+01,-9.338216113039456145e-02,-1.068151356071440072e-01
-1.077305068766606411e+01,-9.098483835710992340e-02,-9.828285673280295898e-02
-1.077326597571306088e+01,-9.738428023987705240e-02,-9.231927324424671344e-02
-1.077704543025441808e+01,-9.717863204969726110e-02,-9.471891498124142272e-02
-1.078066120634993830e+01,-9.710304599387312163e-02,-1.008424317816809246e-01
-1.077048300655919633e+01,-9.062711522042148082e-02,-9.707703296388547898e-02
-1.077180260744257012e+01,-9.822193477429615183e-02,-1.015773005987390953e-01
-1.077590806197990858e+01,-1.033366297126269012e-01,-9.746218427813653495e-02
-1.078014704171883231e+01,-9.608364521868875685e-02,-9.697100166572319990e-02
-1.076031758625814128e+01,-9.779453283170591593e-02,-9.923813095250140492e-02
-1.077646487131523223e+01,-9.384069417315472894e-02,-1.048937350501022298e-01
-1.077071541266613330e+01,-9.875511232129238759e-02,-1.063340328769766946e-01
-1.077309724461395923e+01,-9.805299853232250784e-02,-9.503599234242589289e-02
-1.076809990096847081e+01,-9.188830763323804773e-02,-1.004341955667285569e-01
-1.077367016276234146e+01,-1.045105183224078749e-01,-9.409341267469698011e-02
-1.077059238877262359e+01,-1.000675054772094397e-01,-9.558314643853750570e-02
-1.077588401013472641e+01,-9.590517129738465596e-02,-9.652266477902950170e-02
-1.077716462675994968e+01,-9.519588911501057626e-02,-9.549056509497702572e-02
-1.076888804927402532e+01,-9.924563146479231657e-02,-9.994686774734952428e-02
-1.076982377654432810e+01,-1.035572188850193420e-01,-1.002108404119977370e-01
-1.077481686970884489e+01,-9.876594260668861147e-02,-8.758883975504158648e-02
-1.077634617960924679e+01,-8.951119938353840899e-02,-1.003218668479415737e-01
-1.077767227438880582e+01,-1.020054582407287358e-01,-9.664954518219968926e-02
-1.077227265712678062e+01,-1.029956357721971832e-01,-8.865686875835782077e-02
-1.077517285575433981e+01,-9.878698225490056828e-02,-1.047923357549309514e-01
-1.078215855662136669e+01,-9.154311332734069162e-02,-9.503407891848100753e-02
-1.077931253263559697e+01,-8.594184780605249041e-02,-9.931329159406336593e-02
-1.076548807666385876e+01,-9.561293103310274100e-02,-9.815748350570924208e-02
-1.077610098500024449e+01,-1.030900902039529610e-01,-9.602351111935980565e-02
-1.077090191529301677e+01,-1.008386434989148595e-01,-9.499391314480790105e-02
-1.077034956384456166e+01,-9.024244430292117924e-02,-9.605649251357824270e-02
-1.077571993290543872e+01,-9.662877284019999458e-02,-8.983326619284075221e-02
-1.078389196411443329e+01,-9.361318852632502518e-02,-1.024982255399976144e-01
-1.077629073329317499e+01,-1.015158747818265539e-01,-9.485088314397994991e-02
-1.077133195805049226e+01,-9.801511262251692835e-02,-9.505573111452557400e-02
-1.078338974289644270e+01,-9.623943665469084086e-02,-9.386069454760305464e-02
-1.077823614177862410e+01,-9.189422309754151363e-02,-9.144946580733434582e-02
-1.078515434259118244e+01,-9.704629601738604117e-02,-8.805327039638277675e-02
-1.077980973494871364e+01,-9.723959864414961907e-02,-9.281693457058771968e-02
-1.076407737804645848e+01,-9.514786177718687066e-02,-9.631045066018012468e-02
-1.077232298687126999e+01,-1.013960378178475202e-01,-9.783709011925648125e-02
-1.078111929681281467e+01,-9.100005990533617528e-02,-1.011675563653254700e-01
-1.077267782883550673e+01,-1.014629205365778636e-01,-1.041086649446088946e-01
-1.077206312804757893e+01,-1.007356734709979884e-01,-9.400775361783626771e-02
-1.077581177735507367e+01,-9.962324726804512587e-02,-8.399917019540417695e-02
-1.077657641630629470e+01,-1.031002641155966126e-01,-1.013083361176104341e-01
-1.077958436350486870e+01,-1.017871584319389039e-01,-9.329080750335647099e-02
-1.077162221715948576e+01,-1.037290545870964281e-01,-1.073052888090806206e-01
-1.076917508939720491e+01,-1.008941797996624340e-01,-1.054025714692302385e-01
-1.077443499534511417e+01,-1.050685665254475626e-01,-1.018552430700669503e-01
-1.077577219116243157e+01,-9.603296853273089739e-02,-9.341586050894452875e-02
-1.076799649146537163e+01,-1.042618498628819085e-01,-9.982991288752188219e-02
-1.077632257328829191e+01,-9.791884182435324491e-02,-9.836579084670746265e-02
-1.077210789746442998e+01,-1.010863988369408717e-01,-1.024514794055373795e-01
-1.077442514179942279e+01,-9.154466994034680949e-02,-9.667551249975364636e-02
-1.077668659371683013e+01,-9.684664602653048071e-02,-9.353497732998745928e-02
-1.077900343741363898e+01,-9.948793646763198772e-02,-9.283369998444353233e-02
-1.076453803190578284e+01,-9.662393680262154616e-02,-9.361609960739486480e-02
-1.077313598765386793e+01,-9.888556106872765927e-02,-9.817021518703725191e-02
-1.076540093718869073e+01,-9.967917231933397237e-02,-9.702858176348612418e-02
-1.077091260292975683e+01,-9.099208731977388720e-02,-9.128022841593683157e-02
-1.077608674559209057e+01,-1.003392464159877789e-01,-9.518810304341504547e-02
-1.077526334761249949e+01,-1.007046132073310674e-01,-1.030719499246060128e-01
-1.078133419109674129e+01,-9.120557866249218160e-02,-1.002492022019035589e-01
-1.077598615168504992e+01,-9.914645435670212115e-02,-9.722533746760776696e-02
-1.078023463960266426e+01,-9.899472953008241205e-02,-1.033955678122908117e-01
-1.077329842661364445e+01,-9.857993385002515596e-02,-1.037660377351987684e-01
-1.077274761556526705e+01,-9.580221991246805346e-02,-1.031007252181402323e-01
-1.077390342180604144e+01,-1.044043552036013484e-01,-9.653599765196116400e-02
-1.077377068756563361e+01,-9.659786228483452364e-02,-9.376972922064023830e-02
-1.077511444474126101e+01,-1.007246330601445777e-01,-9.601339544050821462e-02
-1.077660152232394175e+01,-9.565615187182588408e-02,-9.524714934458629323e-02
-1.077068217093261282e+01,-9.856396798861202790e-02,-1.011577108888302851e-01
-1.077459980355641811e+01,-1.015276170585552307e-01,-1.075709417656609684e-01
-1.076779399399527470e+01,-1.000432677897603179e-01,-1.032161828972620182e-01
-1.077992369965881991e+01,-9.161405718538166709e-02,-9.399072244800113496e-02
-1.077545740583659573e+01,-9.544140936987430268e-02,-1.095568715275125476e-01
-1.077230016432070947e+01,-9.632473092609533660e-02,-9.452597936872571271e-02
-1.077811961599750035e+01,-9.211960857040149553e-02,-1.100495331076925404e-01
-1.077169126903624097e+01,-9.897651712703234295e-02,-9.564522448525714093e-02
-1.077152876934346182e+01,-9.337515129527164393e-02,-9.985752490805019366e-02
-1.077027783641272762e+01,-9.203264425473707544e-02,-9.964312570131494962e-02
-1.076889779818712078e+01,-9.024366148562379397e-02,-1.054133544758321939e-01
-1.077186955802645585e+01,-1.020830904464954114e-01,-9.872084010795825759e-02
-1.077615517605743278e+01,-9.990276652550590664e-02,-9.875485208843857998e-02
-1.077931810216671060e+01,-9.388652431785268759e-02,-9.347202127359129087e-02
-1.078026386682347137e+01,-9.581967247004598287e-02,-1.000141298068396578e-01
-1.076941985459456141e+01,-9.960010290102681851e-02,-9.370013663815582317e-02
-1.077572738430986021e+01,-9.135101121803965163e-02,-9.905713301731355891e-02
-1.077951096844732959e+01,-1.021036960656076381e-01,-9.902311752287384916e-02
-1.077364351635002393e+01,-9.637331695685491528e-02,-9.821847851261655826e-02
-1.077831442517630833e+01,-9.632595930557473485e-02,-9.953879983821697919e-02
-1.077403252886120200e+01,-1.046481202858062787e-01,-9.304195082106525572e-02
-1.077772881584074227e+01,-9.846098767659053341e-02,-9.014678876509210625e-02
-1.076972883671448855e+01,-9.514356196223608397e-02,-9.697980617339620191e-02
-1.077760220294017479e+01,-8.773689412053953252e-02,-9.634771674601949609e-02
-1.077223122028042646e+01,-9.571300440851185365e-02,-9.030918989566680266e-02
-1.077220010318140986e+01,-9.902623951883354758e-02,-9.793873525293576854e-02
-1.077698615687193673e+01,-9.302705634592892125e-02,-1.030081432142825604e-01
-1.077247354975044757e+01,-8.988185527047916346e-02,-9.972972168425954520e-02
-1.077436929841981694e+01,-9.903370233804953404e-02,-9.481706610071440056e-02
-1.077627592817566615e+01,-8.505969621510652001e-02,-1.044499906237730258e-01
-1.077084643201836656e+01,-1.017874558327779844e-01,-1.083035971346371917e-01
-1.076469776007508017e+01,-1.039919947083900870e-01,-9.199279169022414604e-02
-1.076321133952688847e+01,-1.037480161328040301e-01,-9.821661298966534448e-02
-1.077385786110417065e+01,-9.308014825065932807e-02,-9.768729515723849344e-02
-1.077697824027233509e+01,-1.053081741537896243e-01,-9.853776983367137920e-02
-1.078054111322504838e+01,-9.568994697730778820e-02,-1.019611458794978803e-01
-1.077672625909946014e+01,-9.783960299772925806e-02,-9.519268258797840276e-02
-1.077484069073334183e+01,-9.282090593787763189e-02,-9.955605002051184926e-02
-1.077826359374842724e+01,-1.009151408188085214e-01,-8.789014275541448540e-02
-1.077006830327365883e+01,-9.400869622192443986e-02,-1.058769599442886677e-01
-1.076671674588458849e+01,-1.046960471164646717e-01,-1.000962281395439551e-01
-1.077841628192725665e+01,-9.807044882810737885e-02,-9.546050748480712500e-02
-1.077124022500174405e+01,-9.671860267013469847e-02,-1.023694865295542988e-01
-1.077511477567469278e+01,-1.034591947318939942e-01,-9.660083195258531430e-02
-1.076734423472194102e+01,-1.010414873761328186e-01,-9.845369597296652064e-02
-1.077221905099032284e+01,-9.078455655368006250e-02,-1.033355912275324417e-01
-1.077344116602050228e+01,-9.147751389067673711e-02,-8.884114450805900842e-02
-1.077095905807994214e+01,-9.835605527126436987e-02,-9.209425954422630067e-02
-1.078084383035898242e+01,-8.473763259151283200e-02,-9.523154054208307628e-02
-1.077437634540342515e+01,-1.032388400243487298e-01,-9.815775174450964979e-02
-1.077083146645327894e+01,-9.831311035760890993e-02,-9.498006952943532921e-02
-1.077600314323225383e+01,-8.807657765649522241e-02,-9.505270243818018938e-02
-1.077570345162970078e+01,-9.327256598289886125e-02,-9.724225298935629258e-02
-1.077193101035775413e+01,-9.667904899465622204e-02,-9.450036912312446968e-02
-1.076675262465411009e+01,-9.416755408313379205e-02,-9.164885671949857260e-02
-1.077181319204889576e+01,-9.482987213733802545e-02,-9.715252047889369469e-02
-1.078175528228661406e+01,-9.645849989472875252e-02,-1.071389171021156494e-01
-1.077751099159423909e+01,-9.964465302590670703e-02,-9.760745394169524636e-02
-1.076892411211548861e+01,-9.598141375421820332e-02,-9.626566252098449350e-02
-1.077566957818425308e+01,-9.965017848959270563e-02,-1.009572915212647304e-01
-1.077541112256520606e+01,-8.138660079327549035e-02,-9.599550673333884232e-02
-1.077214585330404972e+01,-9.652185706446603231e-02,-1.069908756903788088e-01
-1.078077118802824508e+01,-9.994083159940518601e-02,-9.360779919934673898e-02
-1.076875386130815215e+01,-9.198786502339456606e-02,-9.704569512130815923e-02
-1.077638860920513508e+01,-8.995985198261408078e-02,-1.036935363138106747e-01
-1.076748899302608997e+01,-9.515203195147266257e-02,-9.932764501373490817e-02
-1.077528102962976320e+01,-9.451287742135981718e-02,-9.370901537782813651e-02
-1.077940007522549770e+01,-9.619191521690081959e-02,-9.632038327856361215e-02
-1.077256489491911218e+01,-9.791129503885034890e-02,-9.017559334280589312e-02
-1.077636190826046203e+01,-1.010387951622722935e-01,-9.261986152255267946e-02
-1.076787564246814988e+01,-9.586975169313233236e-02,-1.040297154227591142e-01
-1.076797318375101042e+01,-9.520999811534200385e-02,-9.305020040769695910e-02
-1.076882119908407986e+01,-9.182523082959263838e-02,-9.995885420461209092e-02
-1.077266106068684159e+01,-9.877176260155877408e-02,-1.043954610130452265e-01
-1.077529932687768444e+01,-9.215645864167898438e-02,-1.032694146917457340e-01
-1.077572151542612389e+01,-9.553194506378623330e-02,-9.937967766474668785e-02
-1.077699274075861879e+01,-1.062800202006190520e-01,-1.037987208360592051e-01
-1.077994945224248369e+01,-8.895069963757290532e-02,-1.015360941839061615e-01
-1.077635933379175626e+01,-9.439550142729322135e-02,-8.679417444376154311e-02
-1.077580194054855234e+01,-1.100245118037566222e-01,-1.051521726127356143e-01
-1.075953886661303294e+01,-9.250285940836522336e-02,-9.924327695943005456e-02
-1.076989140682252177e+01,-8.981301654223150521e-02,-8.803182096685802094e-02
-1.078164641221083464e+01,-1.103046838219564341e-01,-1.044590503575276719e-01
-1.078249920465461820e+01,-9.872293509738891415e-02,-9.620465924911571209e-02
-1.077493631625056558e+01,-1.040374281892292169e-01,-1.006823708933669292e-01
-1.077239771872775442e+01,-9.280535761424832386e-02,-1.071281993374135766e-01
-1.078392878146771494e+01,-9.152757017207133194e-02,-9.492751221940638751e-02
-1.077129159353777332e+01,-8.822563278160938660e-02,-8.521533149238469385e-02
-1.076663320648395583e+01,-1.040870864571742244e-01,-9.507301517160343662e-02
-1.076503038915266153e+01,-1.012376711182826211e-01,-1.048876070312164122e-01
-1.078046014023933630e+01,-9.653941861814271941e-02,-1.003861371886937970e-01
-1.077243333015285209e+01,-8.670500809400716324e-02,-1.037921520356792221e-01
-1.076961131351222889e+01,-9.658526419891588777e-02,-1.018355674519232229e-01
-1.078123170588410318e+01,-9.246491105745451022e-02,-9.203770094249373590e-02
-1.077910493526943903e+01,-9.571198180818431267e-02,-8.311721279281210351e-02
-1.077880842591135391e+01,-9.001352948203432403e-02,-9.483707323784326682e-02
-1.078071670980310515e+01,-9.836387064832474714e-02,-9.632937985097983491e-02
-1.077440338552862009e+01,-9.562103848912584247e-02,-1.104144377397930088e-01
-1.077771013495992847e+01,-1.023662349049754700e-01,-1.060181995948115963e-01
-1.077592294541486950e+01,-9.553732765043820852e-02,-9.619131764529700868e-02
-1.076849909349541434e+01,-1.010892088151149060e-01,-9.704751473387550342e-02
-1.077026274023518049e+01,-9.283570643340340045e-02,-1.069550917091455638e-01
-1.076502511598416056e+01,-9.484776387522324270e-02,-1.070166661065085068e-01
-1.078051553191446388e+01,-9.497208891488906346e-02,-9.169493177234783188e-02
-1.076753179680955874e+01,-9.704442000533394785e-02,-9.119127198412708968e-02
-1.078123009196419702e+01,-9.333000065528715417e-02,-9.719791478844254373e-02
-1.077292656892266542e+01,-1.061493082758574596e-01,-1.106294769812695006e-01
-1.077328244389268619e+01,-1.035111384697993964e-01,-1.014238062994625295e-01
-1.077845354130244360e+01,-9.873787456210270097e-02,-9.821471467285464163e-02
-1.077891605686719778e+01,-8.952718662796707583e-02,-1.041850746354096163e-01
-1.077724839581539307e+01,-9.988962951911146970e-02,-8.968023340762484863e-02
-1.076927250626978072e+01,-9.447374587704421289e-02,-1.028266134316406510e-01
-1.078259719410453066e+01,-9.434840632660360105e-02,-9.773336335216993576e-02
-1.076658883866835126e+01,-9.582275845069579412e-02,-1.017825152760857693e-01
-1.077344025161001539e+01,-8.503395966694803076e-02,-9.731241636242039805e-02
-1.077063053764645062e+01,-1.033490546195942189e-01,-9.843531428860044508e-02
-1.078504214402401473e+01,-9.730792966073269212e-02,-9.988929938431018174e-02
-1.077027314810010417e+01,-9.669388337573034398e-02,-9.474988103990157617e-02
-1.077565432737140583e+01,-1.026357631603629500e-01,-9.199003755966900231e-02
-1.076650961660982730e+01,-1.043236619725927961e-01,-9.912174412701511839e-02
-1.077457787842099890e+01,-8.840420186204130115e-02,-1.056881249520473520e-01
-1.077099289355827239e+01,-1.048752624451705640e-01,-9.376505700061305015e-02
-1.078068427185084488e+01,-9.770313018031615004e-02,-9.497206528607105014e-02
-1.077823219182679892e+01,-1.024995334231507543e-01,-1.029709604589877231e-01
-1.077008345340954243e+01,-9.068486503485337358e-02,-9.877344355980628710e-02
-1.077987137321636624e+01,-1.028172313932430859e-01,-9.013270719947243104e-02
-1.077153448296820848e+01,-9.372939476313565943e-02,-8.824093394977769456e-02
-1.077693445390953464e+01,-1.069837271586483451e-01,-1.056454173886725995e-01
-1.077938923476653876e+01,-9.803039315317975400e-02,-9.547451086631893180e-02
-1.078374986582072914e+01,-9.531824656462124790e-02,-9.551098849979447469e-02
-1.078122998437419078e+01,-1.011409793866847318e-01,-9.181662049107092161e-02
-1.077570310957441002e+01,-9.678489392836711613e-02,-9.742323417464497648e-02
-1.076742076262558356e+01,-1.021278474364205602e-01,-1.032353360661961150e-01
-1.077286372171299078e+01,-9.825118159987572541e-02,-9.708719856145395233e-02
-1.077707447332757518e+01,-9.579660458769365117e-02,-9.981339840438571698e-02
-1.076426615265429909e+01,-9.405990160662763833e-02,-1.011654344452687371e-01
-1.078037757356997872e+01,-9.960020705558107756e-02,-9.448178909280202653e-02
-1.077156963896189446e+01,-9.305910577859143051e-02,-9.299241653426008891e-02
-1.077188114091419813e+01,-9.608463425811242242e-02,-1.064634153941289019e-01
-1.077582282302135042e+01,-9.265394917662413132e-02,-9.506303208727932830e-02
-1.077926672683189402e+01,-1.035449889686675395e-01,-9.139927045990187127e-02
-1.077182241986760403e+01,-1.089376157650341487e-01,-8.752283451474024423e-02
-1.077013632432456980e+01,-9.459303405231961337e-02,-1.061757326229649245e-01
-1.077424940395831676e+01,-9.536228216867725926e-02,-1.069524938240941081e-01
-1.077988859331423299e+01,-8.969092104933812371e-02,-9.332950463152170362e-02
-1.077534432276705978e+01,-9.476704753210722643e-02,-9.229263740961080043e-02
-1.076985183629365928e+01,-1.056757620729784769e-01,-9.110429377110944305e-02
-1.077472811746303982e+01,-9.172081644679369594e-02,-1.086409001192059354e-01
-1.077032909913969760e+01,-1.020329426974056763e-01,-9.695188155811135244e-02
-1.078400577834217877e+01,-9.360229918041287900e-02,-1.030380301061478432e-01
-1.078253489471036630e+01,-9.389317920361812952e-02,-1.034398861979484718e-01
-1.077044922055151943e+01,-9.836973568848197957e-02,-9.949114671104458685e-02
-1.077646997530231765e+01,-8.867988851142490081e-02,-9.367400916501104902e-02
-1.077305915509792378e+01,-8.456673058412010613e-02,-9.667946133814619980e-02
-1.077560453433750887e+01,-1.013178812975646936e-01,-1.019401952473953377e-01
-1.076863150038260741e+01,-9.651970715756733044e-02,-9.880937626644138716e-02
-1.077436576696049464e+01,-9.685926064956612569e-02,-9.197012746857194387e-02
-1.076442736049514437e+01,-9.934863674998567484e-02,-8.842185286101850172e-02
-1.077630291735723311e+01,-9.501703287998770897e-02,-9.666273374425714271e-02
-1.077290810134338273e+01,-9.714648923954143089e-02,-9.830029354825606247e-02
-1.076728961021011521e+01,-1.004145690485733766e-01,-1.012461359226664581e-01
-1.077283114437443245e+01,-9.929662472799372086e-02,-1.048208857920933934e-01
-1.077586516176899067e+01,-1.015492753936785009e-01,-9.767884478530822201e-02
-1.077233721588605064e+01,-9.384132143380505275e-02,-9.811567683743119272e-02
-1.077121860422963273e+01,-9.511873407013243797e-02,-9.407609087500747036e-02
-1.077027228161550987e+01,-9.389862545900549973e-02,-1.076559645937765902e-01
-1.076508942072108610e+01,-8.565923116220525158e-02,-1.042345572233061846e-01
-1.077869918463914090e+01,-1.088592117556186345e-01,-1.052940974862559970e-01
-1.077569147042665598e+01,-1.032269829212413975e-01,-9.967317623197906318e-02
-1.077455153728155324e+01,-1.088988908695264629e-01,-9.685292737182267520e-02
-1.077618601042967050e+01,-9.653949926307710261e-02,-9.433129790462196906e-02
-1.077494533755527151e+01,-9.137510776610251184e-02,-9.454693733724735261e-02
-1.077220388060090350e+01,-9.942418764889246474e-02,-9.600030451824601019e-02
-1.077446616113807742e+01,-9.841019044568349861e-02,-1.005877999285285512e-01
-1.077364706426987162e+01,-9.861108649550437422e-02,-1.004096932346440763e-01
-1.078019004012004167e+01,-1.015787317236849369e-01,-9.774132887412124993e-02
-1.077479658150347142e+01,-1.026652520828817416e-01,-9.704843218310936492e-02
-1.077471950745380447e+01,-8.819940968419059946e-02,-1.000010019105425918e-01
-1.076955344949021764e+01,-9.427736757406528223e-02,-8.225551795827487633e-02
-1.077366972456212402e+01,-1.006426078859554568e-01,-9.791145154206233603e-02
-1.077406228710425395e+01,-1.032990344741574751e-01,-1.008894111836411839e-01
-1.077252757407644346e+01,-9.292407298645521951e-02,-8.719849935218791648e-02
-1.077376302851651424e+01,-9.904281603719676530e-02,-9.861500935674301360e-02
-1.078151837789874001e+01,-8.934432530277271189e-02,-9.364163639183249732e-02
-1.077217521750072038e+01,-9.935161480335336082e-02,-9.554463025991979941e-02
-1.077414422673068906e+01,-9.420825016255361672e-02,-9.448441455453211735e-02
-1.077677659932430210e+01,-9.115501744185022792e-02,-9.459493357055619167e-02
-1.077158597545966678e+01,-1.006195906669545559e-01,-9.751161269576727464e-02
-1.077654402446672144e+01,-9.770534487790699663e-02,-9.365929470237481513e-02
-1.077441713409938906e+01,-1.010040175403661422e-01,-1.066316308608750013e-01
-1.076974814381095946e+01,-1.078009112330918506e-01,-9.153299513905320539e-02
-1.076658090810753698e+01,-1.012585464857492928e-01,-8.852497509600747161e-02
-1.077577623594884670e+01,-9.112470424693901172e-02,-1.001783919529555117e-01
-1.077689902840839942e+01,-9.520588810399863156e-02,-1.030975690518964039e-01
-1.076874631860244946e+01,-9.561982461804514888e-02,-9.239771935188455243e-02
-1.076693262044067012e+01,-9.820118845708369903e-02,-1.024169419616914045e-01
-1.077498541640602170e+01,-1.011233338482759592e-01,-9.509861359793669866e-02
-1.077473209810494481e+01,-8.982206868038317138e-02,-9.307171365858285528e-02
-1.076725682677289520e+01,-1.009203783281442529e-01,-1.015020627865354796e-01
-1.076945922461316840e+01,-9.555869946685764671e-02,-9.646758589147078067e-02
-1.077350706492055288e+01,-9.447744939076117843e-02,-9.200536037491736929e-02
-1.077242564858970120e+01,-1.017573226385874857e-01,-9.379297605049276287e-02
-1.077574792249147606e+01,-9.754356840464209477e-02,-1.005071082016896489e-01
-1.077368191349054705e+01,-9.633202891827317982e-02,-9.386099440954212558e-02
-1.076355811931528095e+01,-1.001554845511788278e-01,-1.067845178501489606e-01
-1.078129676257463387e+01,-1.039415133871881697e-01,-9.908414746154109443e-02
-1.077016330154935453e+01,-9.438982992978466047e-02,-1.029509717027064924e-01
-1.077275111943585451e+01,-1.094479503528263536e-01,-9.042307213219773210e-02
-1.077013954458032785e+01,-9.235978305453958204e-02,-9.608392812122319715e-02
-1.077378942556920904e+01,-9.101312337108907746e-02,-1.054170183344527861e-01
-1.077151029853368946e+01,-9.364918308082720300e-02,-9.048695591017033579e-02
-1.077578705141516302e+01,-9.045525707043559904e-02,-9.937497387987616337e-02
-1.076782916916070221e+01,-9.896412058889995922e-02,-9.645554050570737115e-02
-1.076983809704375084e+01,-9.285683314000971189e-02,-9.087085712835639428e-02
-1.077559386508083428e+01,-9.358229493839881341e-02,-1.034117450595793686e-01
-1.077744999433285855e+01,-9.858068213552945158e-02,-8.787288698648067220e-02
-1.077238363602513616e+01,-9.214115646892621914e-02,-9.762053997783076698e-02
-1.076150457483432099e+01,-1.043663034823831687e-01,-1.001005348583327570e-01
-1.077233186496948569e+01,-9.957835553940880269e-02,-1.003746991917369991e-01
-1.076876466408109501e+01,-9.910803220399076741e-02,-1.052656220009247773e-01
-1.076659977671396007e+01,-9.711479943389678127e-02,-9.918057146032942251e-02
-1.077636153686605702e+01,-1.038716011183731802e-01,-9.483542388281682167e-02
-1.078228379265315695e+01,-1.056658816889147479e-01,-1.023629333999687974e-01
-1.077300716872829156e+01,-1.071475211540074829e-01,-1.008842823490810059e-01
-1.077383040084169430e+01,-9.160402743350762322e-02,-9.290655183958826391e-02
-1.077158865397976228e+01,-1.065464505789693178e-01,-1.079398807240777580e-01
-1.076967897626932924e+01,-9.137574409820406474e-02,-1.050401058924470554e-01
-1.077238175318917257e+01,-9.071329629087994395e-02,-9.574760663121191506e-02
-1.077770236523515734e+01,-9.639442467058439989e-02,-1.040329077871828684e-01
-1.077086054447664232e+01,-9.377976828580909807e-02,-9.749002188558744675e-02
-1.077567547203409504e+01,-9.826151372310037990e-02,-9.562552742093394231e-02
-1.077627700194143401e+01,-9.351103994942329412e-02,-9.656871526670153527e-02
-1.076764846173243484e+01,-8.987396401286720793e-02,-1.025155093062485034e-01
-1.077482194730296960e+01,-9.450607867730166645e-02,-9.275449200770384539e-02
-1.077230146042265346e+01,-1.018831334544062495e-01,-9.264264900524309121e-02
-1.077587610905557192e+01,-9.407022774716743141e-02,-8.887040227914234924e-02
-1.076744237020592010e+01,-9.565375294681038865e-02,-1.038916463439881754e-01
-1.078241453889488000e+01,-9.408735552076377684e-02,-8.960029173580404127e-02
-1.077938301947669508e+01,-9.966954837645279619e-02,-1.008275402527001180e-01
-1.076917379286495624e+01,-1.000023511494517736e-01,-1.001607510649285687e-01
-1.077460046946692529e+01,-9.200968907295820065e-02,-9.286179438546507403e-02
-1.076959821732849676e+01,-9.993410312980449683e-02,-1.066793394175493959e-01
-1.076919467820838783e+01,-9.932442568197910604e-02,-9.655826829072926276e-02
-1.076401328820852576e+01,-9.923302058161621864e-02,-9.442066007860962229e-02
-1.077200602019952136e+01,-9.211280497857221583e-02,-1.003301339072828618e-01
-1.078145962938290658e+01,-9.814143637975707157e-02,-8.700773802412019309e-02
-1.077062038023897195e+01,-9.559274451561737551e-02,-9.569059369263772930e-02
-1.076932038968407745e+01,-1.008849159808533763e-01,-9.523987257664655315e-02
-1.077027749405258206e+01,-9.438297861794360533e-02,-8.689394572425500340e-02
-1.077704520709139047e+01,-8.942967362968383405e-02,-9.306863051529104536e-02
-1.076521579176653809e+01,-1.031377070155921061e-01,-9.363488622802909611e-02
-1.077127479257823595e+01,-1.055680708582172056e-01,-1.004658693009213843e-01
-1.077676164498110367e+01,-9.608869860511094763e-02,-9.810951091618883013e-02
-1.076506626832784441e+01,-9.431436162705326975e-02,-9.622792738661814504e-02
-1.076452015486491653e+01,-9.057364674429856100e-02,-9.623066526372693608e-02
-1.077727894637309269e+01,-8.961224067999409848e-02,-9.533371352881263305e-02
-1.078022024275995960e+01,-9.205144472425952351e-02,-1.040031444497552388e-01
-1.076988402901908159e+01,-1.032585184563930975e-01,-9.441783849706643361e-02
-1.077641417131181534e+01,-9.707153234531680497e-02,-9.071536770564174457e-02
-1.077596702319358357e+01,-9.541330704878107916e-02,-9.584619869968065420e-02
-1.076619625824425341e+01,-9.383404955051607987e-02,-1.009312559753405281e-01
-1.077457298989089729e+01,-9.424432144123978672e-02,-8.451409705136304906e-02
-1.077357276140112674e+01,-9.512010075930255049e-02,-9.544828142382626168e-02
-1.076613045243225386e+01,-9.493082121296950171e-02,-1.071290793214815656e-01
-1.076958044321808039e+01,-9.974236054180475597e-02,-9.665634937798740778e-02
-1.077870827929135267e+01,-1.017642178252172458e-01,-9.866635053454737847e-02
-1.077960237471803140e+01,-9.414552926542778255e-02,-8.867009318122268113e-02
-1.076788346672388030e+01,-9.879260577646753472e-02,-9.776637044180945535e-02
-1.078311587197445576e+01,-9.832505322806486814e-02,-9.600227005878644859e-02
-1.077577214877850587e+01,-9.200196412416231095e-02,-9.447131783430580410e-02
-1.077280237318997358e+01,-9.988771612924488008e-02,-1.034533625645136096e-01
-1.077923018600792560e+01,-1.008600169668555646e-01,-9.310014850549996890e-02
-1.076808572349649751e+01,-1.015251309161005477e-01,-1.005382456740439995e-01
-1.077643167152570136e+01,-1.007257657204104068e-01,-1.011284624758639894e-01
-1.077595651117004749e+01,-9.203749151500149883e-02,-1.003443274491191417e-01
-1.076591138452945806e+01,-9.025911208507575445e-02,-9.569573963511052161e-02
-1.076993208084879861e+01,-9.998594426573340077e-02,-9.156190866687065333e-02
-1.076852799218878332e+01,-9.839352650056151783e-02,-1.080256389832661146e-01
-1.077317529990424205e+01,-9.013568979769985556e-02,-9.392402815899789092e-02
-1.078306603178496026e+01,-9.953431121011123428e-02,-9.039595780256427793e-02
-1.077413504525255128e+01,-8.815178989408271881e-02,-9.128667880193919171e-02
-1.077106466654189099e+01,-9.029143241663266373e-02,-9.549590258213473681e-02
-1.077296998015705043e+01,-1.031553159706108391e-01,-9.356355495644250175e-02
-1.077591125285210261e+01,-9.581257970444514993e-02,-1.044143506776444297e-01
-1.076484075786904882e+01,-9.818196584989954956e-02,-1.008722880500830948e-01
-1.077751637015643738e+01,-9.641233160060472263e-02,-9.814592958642429088e-02
-1.078052472893476477e+01,-9.367750206682252945e-02,-9.619887773881237447e-02
-1.078114686673103328e+01,-1.021222593476575208e-01,-9.548078235311760475e-02
-1.077576835763081142e+01,-9.205341544776642071e-02,-8.821005689903736735e-02
-1.076938358131542195e+01,-8.967023827261892677e-02,-9.729336364441801277e-02
-1.077585738251853087e+01,-9.825945412468138629e-02,-1.013984378455687202e-01
-1.076288605239856011e+01,-1.004427073770368800e-01,-1.004448456685445440e-01
-1.077843230609722447e+01,-1.032292679487896436e-01,-1.036078449412527469e-01
-1.077676532202225879e+01,-9.853467514746257205e-02,-9.610492886457769335e-02
-1.076813622569218509e+01,-9.130188470284268665e-02,-9.133572130644501685e-02
-1.077742131469172016e+01,-9.969320096068150228e-02,-1.005619740558310743e-01
-1.077332975478178412e+01,-8.945833193692789842e-02,-1.033737462333680218e-01
-1.077328277404860124e+01,-9.160338106224237553e-02,-9.961819484565431759e-02
-1.077637453352633123e+01,-9.399526137075189802e-02,-9.599477656898505740e-02
-1.077899606555713241e+01,-9.232025736895493884e-02,-9.506884397606832349e-02
-1.077773844669663106e+01,-9.680574322316708169e-02,-1.014529404887282577e-01
-1.077587344428931893e+01,-1.008168593626277421e-01,-9.931990029636125761e-02
-1.077261866427540582e+01,-9.809594830231407880e-02,-8.452830885411899420e-02
-1.077037723847942274e+01,-1.058713229260127009e-01,-9.361923064402338790e-02
-1.076926660370212474e+01,-9.875838931585366465e-02,-9.622134671465955302e-02
-1.077806869891469255e+01,-9.933854823304863468e-02,-9.533367982888854564e-02
-1.077377793123073602e+01,-1.006773475100157800e-01,-8.570509088276320742e-02
-1.077570464603377864e+01,-1.013723034416404156e-01,-9.394496324859777370e-02
-1.077633534679468852e+01,-9.761771573631089494e-02,-9.857477515561847980e-02
-1.076957969132897119e+01,-9.284542883824582760e-02,-9.080218641650215916e-02
-1.077168436593375134e+01,-1.053182130821447571e-01,-1.013360532104110867e-01
-1.077705495644729261e+01,-9.663050818728154134e-02,-1.025170391242934548e-01
-1.077710730076465317e+01,-9.361508149004446611e-02,-9.157305985740543663e-02
-1.076825833749323102e+01,-9.864708420001283562e-02,-9.106968904018164501e-02
-1.078400789642358149e+01,-9.991714988583934309e-02,-1.005712262301669546e-01
-1.077350714918659236e+01,-9.085882092333655291e-02,-9.820908295481223238e-02
-1.077292120403900810e+01,-9.485840237809024800e-02,-1.081716589191322742e-01
-1.077000777802993170e+01,-9.943394382403433762e-02,-1.031000684060701389e-01
-1.077235295387152014e+01,-1.039010106400546085e-01,-9.242353415394533034e-02
-1.077632105966670117e+01,-1.040343587711709678e-01,-9.175812015351017537e-02
-1.077546508878206311e+01,-9.721804317810610330e-02,-9.123057018453652189e-02
-1.077380522783545125e+01,-1.002625554035187772e-01,-9.248374515673919716e-02
-1.077309760141309702e+01,-1.014131243791573239e-01,-9.922748336198838892e-02
-1.076474536111298796e+01,-8.848765591117431495e-02,-9.560599475367197175e-02
-1.077569702495309123e+01,-9.673018624879750615e-02,-1.004372441678425681e-01
-1.078063036979687084e+01,-9.556036675017501314e-02,-1.003157585991316242e-01
-1.076433975068324500e+01,-1.026186629621527180e-01,-1.070140313576355556e-01
-1.077778218070948313e+01,-9.830739029741283885e-02,-9.970211623153663050e-02
-1.077280919719400387e+01,-8.815736840231103155e-02,-9.878211293602168208e-02
-1.076849660651101637e+01,-9.696566057127736782e-02,-9.220366201972489406e-02
-1.077427198083704418e+01,-9.289335975136138457e-02,-1.059023322820065172e-01
-1.077923454385534185e+01,-1.028903861969725220e-01,-1.064451165752814121e-01
-1.078165136739862184e+01,-9.117428674359949470e-02,-8.825936252380237046e-02
-1.077536253110233844e+01,-1.049148037105174652e-01,-1.055305531672771080e-01
-1.076866725158879490e+01,-9.416548515148606691e-02,-9.755961004048488427e-02
-1.077589429808598531e+01,-8.349220670340282147e-02,-9.908121698404397104e-02
-1.077386188266513400e+01,-9.450309857893199328e-02,-9.633759062914037941e-02
-1.076946612517121160e+01,-9.312634319933808802e-02,-9.861036915333483421e-02
-1.077205885568975674e+01,-9.502335824772606410e-02,-9.679349934999367799e-02
-1.077507941960381643e+01,-1.005744395265261715e-01,-9.941244194628812147e-02
-1.077213779852598918e+01,-1.011932498757377036e-01,-9.871654901471277332e-02
-1.077456467602024404e+01,-9.221240033853790596e-02,-1.022296385537555946e-01
-1.076824825225278204e+01,-1.001331778753883073e-01,-9.754250387513022091e-02
-1.077141409123733062e+01,-9.675875610830061979e-02,-9.250346903083379868e-02
-1.077106227379649006e+01,-9.634031156294423082e-02,-8.967837357719939118e-02
-1.076864453189807413e+01,-9.743536174449980714e-02,-1.062655929615584638e-01
-1.077896203449807899e+01,-9.222032401567474558e-02,-9.316927182975615063e-02
-1.077876588323668372e+01,-1.022244266341563318e-01,-9.111203339325094075e-02
-1.077445410240998136e+01,-1.077692443449425747e-01,-9.274624984998124100e-02
-1.077768463724030212e+01,-1.013307645538558399e-01,-8.483412990055322345e-02
-1.078155034670282575e+01,-9.845254608340889280e-02,-9.132327948854677968e-02
-1.077390100089200153e+01,-9.266433858632430742e-02,-9.186429259760282851e-02
-1.078032853146135928e+01,-1.014873706422770444e-01,-1.000865889594222957e-01
-1.078636198438658411e+01,-9.557552225581275596e-02,-9.857831400292803303e-02
-1.078683821570510837e+01,-9.479208782576073467e-02,-9.961611317782186059e-02
-1.077562702258121163e+01,-9.463455925698062432e-02,-8.863739219256736024e-02
-1.078045794790644862e+01,-9.509344191962776360e-02,-1.006706687368104647e-01
-1.076975341001180730e+01,-1.005747738633135518e-01,-9.599046520501963720e-02
-1.077232957346984143e+01,-1.057482055325598969e-01,-9.823815308398632651e-02
-1.076858533678006502e+01,-9.969962858303359210e-02,-9.817247107498798531e-02
-1.077628198403274240e+01,-9.710045550139061177e-02,-8.879814864846415079e-02
-1.077563344032122217e+01,-9.193563565031832863e-02,-9.465708695188500277e-02
-1.077157324207139233e+01,-9.508200040307965284e-02,-1.002652259282028196e-01
-1.077193791328960870e+01,-9.111294791509839952e-02,-9.888134417400384901e-02
-1.078033335969547579e+01,-1.033666830409401133e-01,-9.356062090524558394e-02
-1.077086917442536596e+01,-8.904833640609383094e-02,-9.654454909517945493e-02
-1.076902852278819367e+01,-9.510037538285591452e-02,-9.695787816886110300e-02
-1.077193031783418142e+01,-9.809442019564422466e-02,-9.286382232437806472e-02
-1.077838461175246465e+01,-1.006705339460377963e-01,-9.099592251580065905e-02
-1.077857143786983052e+01,-1.014052716918583674e-01,-9.623340177948633278e-02
-1.077379448725251621e+01,-9.567033308892110288e-02,-9.780029671729936758e-02
-1.077436277999565739e+01,-9.010117131360734222e-02,-9.714921913407299769e-02
-1.076912247309554971e+01,-1.030470692169921237e-01,-9.291659763148511775e-02
-1.077685325062025790e+01,-1.027809428752189946e-01,-1.016012808782250226e-01
-1.078044063148231402e+01,-8.679256034025201183e-02,-9.683939380447768863e-02
-1.076947004599376889e+01,-1.027758984577734763e-01,-9.799106183583411456e-02
-1.077412586891311719e+01,-1.041659977531556730e-01,-9.943195600401896761e-02
-1.078012422278316862e+01,-8.409230110015068760e-02,-1.000856251184927964e-01
-1.078135143519610573e+01,-9.061365803279700093e-02,-9.913022662463978618e-02
-1.078032665961185188e+01,-9.837776476880513710e-02,-8.933545882939272764e-02
-1.077875866759587176e+01,-9.848488816629651088e-02,-9.268837838974783305e-02
-1.077772632799680963e+01,-9.230509832791600200e-02,-1.064060318854619519e-01
-1.077766124525128610e+01,-9.628029935637166803e-02,-9.738944265165923320e-02
-1.077727445925160410e+01,-9.301509075697489415e-02,-1.039092322500801691e-01
-1.077886816627143141e+01,-9.795564180415493316e-02,-8.762180622172283107e-02
-1.077288126274175184e+01,-9.583064810009650492e-02,-1.007849628699826611e-01
-1.076645920790610944e+01,-1.044176372815457110e-01,-9.658125203735828945e-02
-1.078534056560421206e+01,-9.926115828712558931e-02,-1.006349583539303677e-01
-1.077020308762189593e+01,-8.392187957557334377e-02,-9.550842056722980145e-02
-1.077724795717994688e+01,-1.027039767383680358e-01,-9.937109521727144346e-02
-1.077525098271694048e+01,-1.026964509415211890e-01,-1.012328522388903917e-01
-1.077365691380619950e+01,-8.918979071875868248e-02,-9.513855689949368699e-02
-1.076497878493965921e+01,-1.076668147722445179e-01,-1.032091691800264693e-01
-1.078206655298744643e+01,-1.050041937779687962e-01,-1.002691960866402415e-01
-1.077496752791658707e+01,-9.615916170537040786e-02,-9.651555255839253111e-02
-1.077236745101292748e+01,-9.689647052627900492e-02,-9.991449165885513128e-02
-1.077327441603426550e+01,-9.094238996807739450e-02,-8.831787427857112904e-02
-1.077753990480504420e+01,-9.706621042913214648e-02,-9.687566535306439686e-02
-1.077550489002111078e+01,-9.962368353556494416e-02,-1.014205046520129383e-01
-1.078331991894259367e+01,-9.429384860046707839e-02,-8.944476703148676600e-02
-1.077178804019536784e+01,-1.010119976963972516e-01,-9.092745203975974300e-02
-1.077039784721590898e+01,-9.701716120887775296e-02,-9.037530509959648684e-02
-1.077943808734311659e+01,-9.862917242463159484e-02,-9.661947964526146349e-02
-1.076658434057403291e+01,-1.007545586513610703e-01,-1.023235819684116671e-01
-1.077569603069414406e+01,-1.012696310226893492e-01,-9.520732126561899655e-02
-1.077112235346025138e+01,-1.032954777022599274e-01,-9.299017872246631566e-02
-1.077666311165391910e+01,-8.503511256805781904e-02,-9.879047991100732562e-02
-1.077421615543777556e+01,-9.904908430297564015e-02,-1.050188575832482069e-01
-1.077720005994434871e+01,-9.349101184756861138e-02,-1.029445165495273817e-01
-1.076126088170988915e+01,-8.888173061707221878e-02,-9.496204781046865828e-02
-1.077880995472001757e+01,-9.546483847810352530e-02,-9.658463463984232056e-02
-1.077065091334461222e+01,-9.939771139300990210e-02,-9.539963731496768629e-02
-1.076600851241383339e+01,-9.403061892191831583e-02,-9.226419831916739256e-02
-1.077778124660250292e+01,-1.001608718194496733e-01,-9.439048213298732726e-02
-1.076885847860054213e+01,-9.803419879690210281e-02,-9.534530641690747155e-02
-1.078048990699732812e+01,-9.204655290449802185e-02,-1.001911760189586192e-01
-1.077654653894937731e+01,-9.495214773138353770e-02,-9.759071903013229188e-02
-1.078078957039352481e+01,-9.718861264992205429e-02,-9.051126075867090004e-02
-1.077284900559513403e+01,-9.857924123967760910e-02,-9.190492003349730321e-02
-1.077851682302417125e+01,-9.972138814530281947e-02,-9.508863813197641901e-02
-1.076788369734692274e+01,-1.034188025989070531e-01,-1.075928391441819121e-01
-1.078325850557794041e+01,-9.519612168675523067e-02,-9.803938836124012624e-02
-1.078208789094609976e+01,-9.664373564601501376e-02,-1.024677112707166188e-01
-1.076889345452760516e+01,-1.023602034549244422e-01,-9.101142376782442311e-02
-1.077903425839093288e+01,-9.343711876440694009e-02,-1.019591205852192622e-01
-1.077728632560265787e+01,-9.820267904375294676e-02,-1.087764610793290898e-01
-1.077077497013143770e+01,-1.019955996696733785e-01,-1.025254667268834519e-01
-1.077113185628732595e+01,-1.012443329142443810e-01,-1.053732553763104540e-01
-1.077140035930438522e+01,-9.518180677799556455e-02,-1.038443326620208107e-01
-1.076801338506790984e+01,-9.316578106064025977e-02,-1.016999890192722550e-01
-1.076456155849913898e+01,-9.425495677962013319e-02,-9.103595184593947509e-02
-1.078354629766512751e+01,-1.056923542524240145e-01,-1.045889452954890941e-01
-1.077084683287967870e+01,-9.337168871746553966e-02,-1.001842619297068637e-01
-1.077939734832094310e+01,-9.777972337013154935e-02,-9.735479218003034729e-02
-1.077085153261479533e+01,-1.004773597755171111e-01,-9.270439506894087578e-02
-1.077594284542642811e+01,-8.982127484426186137e-02,-1.043984910707140695e-01
-1.076988343433513862e+01,-9.481787521397613827e-02,-9.073968844712025639e-02
-1.076618147004798409e+01,-9.980984116450455912e-02,-9.067547003405264372e-02
-1.077418044240740613e+01,-8.888275696876263288e-02,-1.023178077336289599e-01
-1.077798761801474825e+01,-9.180358532284683959e-02,-9.217547079384802444e-02
-1.077312663109884383e+01,-1.059626420939306646e-01,-9.651146948703070994e-02
-1.077518364926618410e+01,-9.579052085080705381e-02,-1.012853648009560820e-01
-1.077414640706315829e+01,-9.942016626984190308e-02,-1.069597242366007728e-01
-1.077972777955897676e+01,-9.663236889258609852e-02,-9.836726463561579203e-02
-1.077477527678547276e+01,-9.255201558612116686e-02,-1.037193889220948406e-01
-1.077373036283196228e+01,-9.672872223485169674e-02,-9.631407218645167412e-02
-1.078097984652031727e+01,-1.012673246960364010e-01,-1.015105832626506527e-01
-1.077120128287650225e+01,-8.953166588014865868e-02,-9.688432278654827978e-02
-1.076380266177551626e+01,-9.376063723523070381e-02,-9.266878196550486224e-02
-1.077113617896650588e+01,-9.402168865633150907e-02,-1.035862138477968986e-01
-1.076873622783805828e+01,-9.613067261734696556e-02,-1.020166512881202775e-01
-1.077933321578263737e+01,-9.964705692314251850e-02,-1.067844338267354976e-01
-1.077348436503951135e+01,-9.767252844656298949e-02,-9.759417375228392200e-02
-1.077164531968588257e+01,-1.030070914840840596e-01,-9.724739991910801018e-02
-1.077346192084226040e+01,-9.150540743309656944e-02,-1.020119711166229265e-01
-1.077790828721453309e+01,-9.514883733897809559e-02,-9.572892550370555587e-02
-1.077913978629031533e+01,-9.198287857634554476e-02,-9.883862926716834030e-02
-1.077533022253249761e+01,-9.868451951242324105e-02,-8.833381988334901291e-02
-1.076519413274351678e+01,-9.926181534592239120e-02,-1.047007441366951397e-01
-1.076551873696723050e+01,-1.091417840796856248e-01,-9.732957379888552973e-02
-1.077208304243288772e+01,-9.465806138469068376e-02,-9.388558099586132022e-02
-1.077515887448340415e+01,-9.405944991335160599e-02,-9.827907910405875302e-02
-1.077748189804249179e+01,-1.008627679838669938e-01,-1.014706612617956860e-01
-1.077620083524388406e+01,-9.084904266339634271e-02,-9.817267278788502360e-02
-1.076821295621020802e+01,-9.775011135545132179e-02,-9.539729031611042520e-02
-1.077463347959117534e+01,-9.805518477536449840e-02,-1.024309819429459756e-01
-1.076829556487832917e+01,-8.901296467607910934e-02,-9.768128516783106119e-02
-1.077249691682997224e+01,-1.007167392031841496e-01,-1.082141490838586795e-01
-1.077003724195448697e+01,-8.853731203129883154e-02,-9.029645999021788938e-02
-1.077447541291741651e+01,-9.276770754830318544e-02,-8.751143060344084013e-02
-1.077400580491904414e+01,-9.971996169225579021e-02,-9.134529173062515273e-02
-1.077695805641745430e+01,-1.035059134037313866e-01,-9.047382043448991273e-02
-1.076745655048704009e+01,-9.928376369335742413e-02,-8.808208007841672460e-02
-1.077199804494604862e+01,-1.024974220878173137e-01,-1.065927441834051553e-01
-1.077075053116432812e+01,-9.504824486475579870e-02,-9.843255193754051058e-02
-1.077897904484566283e+01,-9.686227334438619885e-02,-1.033945487099150046e-01
-1.077048596565004601e+01,-9.992696554469041037e-02,-1.006709514646940834e-01
-1.077800588801407145e+01,-1.048581064172579569e-01,-9.905914366152132611e-02
-1.077268578026280821e+01,-9.419566265356203727e-02,-1.002156869437264147e-01
-1.077172858449583615e+01,-9.872936643902276155e-02,-8.645281397661203071e-02
-1.077806308491704534e+01,-9.042890115222806946e-02,-9.499822479500286132e-02
-1.077426838106713447e+01,-1.017784008265138623e-01,-1.050265307511210056e-01
-1.078038835621687319e+01,-9.486028609668141487e-02,-9.546777211587666179e-02
-1.077701140898717469e+01,-1.011535067118909392e-01,-1.072717461509319486e-01
-1.077269551611274245e+01,-9.648635858868614967e-02,-1.048880363468297910e-01
-1.077536048001736013e+01,-9.981208075944422720e-02,-9.631891476325706025e-02
-1.077345345843885482e+01,-9.947767566801667127e-02,-9.864441152208985875e-02
-1.077990632507578539e+01,-9.073054596254667703e-02,-1.060587291149845540e-01
-1.077463510239561728e+01,-9.698925603555245967e-02,-9.811883611467257793e-02
-1.077841441904731035e+01,-9.387973765035401152e-02,-1.014357874873239029e-01
-1.076750686986085981e+01,-9.323861582354922573e-02,-9.969382786543436181e-02
-1.077257702829172992e+01,-1.000720028466463574e-01,-1.007185339959251191e-01
-1.077073447216646152e+01,-1.007610539874249367e-01,-1.022481846540207046e-01
-1.077271742282922062e+01,-9.545783232059269763e-02,-9.870174347672884541e-02
-1.077118028714526154e+01,-9.248254114861359509e-02,-9.268254807874530543e-02
-1.078135255663845982e+01,-9.503637565866572545e-02,-9.148100962502977995e-02
-1.077546209458207827e+01,-9.439492413298677942e-02,-9.798319057023546774e-02
-1.076908348873356402e+01,-1.082747379385274045e-01,-8.586578986217537068e-02
-1.077141383969163435e+01,-9.791181584578825814e-02,-8.570173777929199210e-02
-1.077567900812828583e+01,-1.010086149133822137e-01,-9.895633968654361790e-02
-1.077949675154967402e+01,-9.843504681722695104e-02,-9.611894874006299272e-02
-1.077608914052064115e+01,-9.922138744858721715e-02,-9.541900072482815964e-02
-1.076866547164006427e+01,-1.051615404238982615e-01,-1.023712841122540046e-01
-1.077722704334431469e+01,-9.679487695747657217e-02,-9.817235182799098625e-02
-1.077156500104078773e+01,-9.716825789051720952e-02,-9.208262857760628195e-02
-1.077959059488142302e+01,-1.008168849829378377e-01,-8.979988240670626343e-02
-1.077444052855071455e+01,-9.605791832008057918e-02,-9.341308797905403805e-02
-1.077864793993181358e+01,-9.652596909115376822e-02,-9.653692227528319625e-02
-1.076707018594668952e+01,-9.576239310461236165e-02,-1.009806224149430998e-01
-1.076918272444442692e+01,-1.030346952355638834e-01,-1.051542842670833144e-01
-1.077341473688514562e+01,-9.757908047862742795e-02,-9.307548314358947417e-02
-1.077313305271832711e+01,-1.029835538738104461e-01,-9.567484921266235232e-02
-1.077393762246918207e+01,-9.291625149771423620e-02,-1.009369893172665372e-01
-1.077170624513617980e+01,-9.049048613736047908e-02,-9.529693695383315011e-02
-1.077513992256586484e+01,-9.741406299939660285e-02,-8.786073615481786170e-02
-1.077715383081466172e+01,-1.012965749704600044e-01,-9.786387624448976419e-02
-1.078366788034577617e+01,-9.701347409342568617e-02,-1.024517834841852382e-01
-1.077169214013536624e+01,-1.059125269233899824e-01,-1.052421843296585530e-01
-1.078172316702074163e+01,-8.437518697508401833e-02,-1.020530182035638278e-01
-1.077157394902237009e+01,-9.831971299120227659e-02,-1.018947039788637293e-01
-1.077527781147680308e+01,-9.939512160469028690e-02,-9.315137600510543792e-02
-1.076850389190370016e+01,-9.753775541633490087e-02,-9.610119610658833522e-02
-1.076257749126461150e+01,-9.305338637055321493e-02,-9.872489234486808707e-02
-1.076957746522501758e+01,-9.681824829446285252e-02,-9.114356311964449953e-02
-1.076871971327180866e+01,-1.051937157749544688e-01,-9.379302807131634223e-02
-1.076590488810236046e+01,-1.008541207853461824e-01,-1.002871961762164810e-01
-1.077677066395541061e+01,-1.058827811338059061e-01,-9.568403838697708830e-02
-1.076073263520376599e+01,-9.447230787622241943e-02,-9.414152593332363039e-02
-1.076986034418321481e+01,-1.019046084403125163e-01,-9.663802513917180148e-02
-1.077995949256860797e+01,-1.024219446647528509e-01,-1.094678479166900364e-01
-1.077094266175244819e+01,-1.003479376978131110e-01,-1.031337610215555256e-01
-1.077064864654381360e+01,-1.067471211404411174e-01,-9.747159209085859422e-02
-1.077526756933345276e+01,-9.848834539168620228e-02,-9.869480217088134888e-02
-1.076593227413682108e+01,-9.530967079627281069e-02,-9.768466050683116686e-02
-1.077569030276368700e+01,-9.613489843018852010e-02,-1.066368668725277413e-01
-1.077458787984463662e+01,-9.957885296718713142e-02,-9.692632232328902975e-02
-1.077409642799879741e+01,-9.588909590559854812e-02,-1.027794931485679769e-01
-1.077428880412881007e+01,-1.011578740651127295e-01,-1.036761501095366383e-01
-1.077253631843020010e+01,-9.736850290345916425e-02,-1.024836551461707490e-01
-1.077419072696030788e+01,-9.444927022042562403e-02,-1.017174971132239619e-01
-1.077258138598657844e+01,-9.994163025265020983e-02,-1.087924261474285531e-01
-1.077032367968566362e+01,-9.874056335653601246e-02,-9.335933265449047891e-02
-1.077801221114613028e+01,-9.659776843341021102e-02,-1.005451134911809763e-01
-1.077468032965937361e+01,-9.697505618583020237e-02,-9.543583878403415210e-02
-1.077214011480905675e+01,-1.024235068270720334e-01,-1.046298748953513047e-01
-1.078752702021380117e+01,-9.938534267760976149e-02,-9.992013478564315543e-02
-1.077941305428338836e+01,-9.756493713116942690e-02,-1.033491222763586043e-01
-1.077609009797748385e+01,-9.409199081768963857e-02,-9.436057248703633160e-02
-1.077087813683291273e+01,-8.998110470837862584e-02,-9.587118314254461371e-02
-1.076848924262585960e+01,-9.657580440021899804e-02,-9.434301240262367438e-02
-1.077916838609536931e+01,-9.587724932105479159e-02,-1.012562946208783454e-01
-1.077457896198596821e+01,-9.835990279429571159e-02,-8.988583652213723296e-02
-1.076618476301884719e+01,-8.815210514348788273e-02,-9.184365314004731828e-02
-1.077574082093098795e+01,-1.045591725296991792e-01,-9.473045625081415178e-02
-1.078054606036252139e+01,-9.559384981159906036e-02,-1.002668647770926930e-01
-1.077412035834575832e+01,-9.023200254719873636e-02,-9.774609071350300049e-02
-1.076397485685789412e+01,-9.588458063208317450e-02,-1.008104478756853828e-01
-1.078029958054191972e+01,-9.581015513713629639e-02,-9.053681700323905346e-02
-1.076616745467174141e+01,-9.926067910400798722e-02,-9.978190680861065420e-02
-1.076809706374045561e+01,-9.706107492691150307e-02,-1.016913941844947711e-01
-1.077087319585575820e+01,-1.001235643527697700e-01,-9.412769731614024915e-02
-1.077453291290233750e+01,-1.021809321567129225e-01,-9.982477321074388621e-02
-1.077408412050712450e+01,-1.026196143310556391e-01,-9.694158660933431537e-02
-1.078007290800637641e+01,-9.110128786923502031e-02,-9.057644963367161850e-02
-1.077644585384962106e+01,-9.950959024577638035e-02,-9.577925370635625990e-02
-1.077609249235896982e+01,-1.040106077085761749e-01,-9.400513456723187666e-02
-1.076752991620571009e+01,-9.905564215215796608e-02,-9.646317486365318938e-02
-1.077678103972802504e+01,-8.976397427491311642e-02,-8.676204567783070420e-02
-1.077455473071088399e+01,-9.530826232482590699e-02,-9.605661363188934543e-02
-1.077265342297569006e+01,-9.293842892945497480e-02,-9.217116170773931305e-02
-1.077741264273310762e+01,-9.769453005849884630e-02,-8.846207034042341544e-02
-1.077523064390003427e+01,-9.704672430571290032e-02,-9.217737360492024579e-02
-1.077125008714461352e+01,-9.413859313436373499e-02,-8.926115574284432252e-02
-1.077175481170904803e+01,-9.376493452785583660e-02,-1.005873603387816700e-01
-1.077532049874669084e+01,-9.162846866839453874e-02,-9.462965639585238509e-02
-1.077440561252141649e+01,-8.897398680857800113e-02,-9.264262311712330444e-02
-1.076785915086546908e+01,-1.010179680703776894e-01,-9.309054534666956482e-02
-1.077471968059177421e+01,-9.042549777810997280e-02,-9.397184777205663808e-02
-1.077218832959420602e+01,-9.760962456307917257e-02,-9.462098888166230182e-02
-1.077346143761539743e+01,-9.510246067409941495e-02,-1.007089423817789792e-01
-1.077678095920076728e+01,-9.539138322419003779e-02,-8.845329285672220987e-02
-1.078608135550362057e+01,-9.785824020951890134e-02,-9.214398786683110354e-02
-1.077300311410638578e+01,-9.358504788610343128e-02,-1.012094029885161617e-01
-1.077419409197523237e+01,-1.001378480179456743e-01,-1.068820155894795315e-01
-1.076881136409233441e+01,-1.020274841970923718e-01,-9.696520295124853861e-02
-1.077601957911680763e+01,-8.657357337345428228e-02,-1.014556094975465617e-01
-1.077104248677273723e+01,-9.187015719191343743e-02,-9.634067299010709573e-02
-1.077790859627926245e+01,-1.006156198013861830e-01,-9.955635445308097520e-02
-1.077464324587162281e+01,-9.759751356977207359e-02,-9.696424328652104851e-02
-1.077631003836090962e+01,-1.001892802341449312e-01,-9.868759168127927417e-02
-1.076814028934309420e+01,-9.875267164685468113e-02,-9.291103208493332877e-02
-1.076766167032751298e+01,-9.108232837096327805e-02,-1.006887686302215812e-01
-1.076919146562682172e+01,-9.487277339266941834e-02,-9.745270827986506068e-02
-1.077177451455864166e+01,-9.385866665901007599e-02,-9.036759282363709955e-02
-1.077003230943781453e+01,-1.034352825347305133e-01,-9.877154846803952448e-02
-1.078230369328556471e+01,-9.100052296998657753e-02,-9.933628706897131011e-02
-1.077077018230192529e+01,-9.449361127813452055e-02,-9.962183493350047769e-02
-1.077285895074409439e+01,-9.357915207228767462e-02,-9.592171618145264866e-02
-1.076787227686183002e+01,-9.374266039624513935e-02,-9.103354583282727286e-02
-1.077193370340811107e+01,-9.742094569488321532e-02,-1.003792840705517303e-01
-1.077687039351259024e+01,-9.933999933768615509e-02,-9.465277607588686026e-02
-1.077910189394336093e+01,-9.502876127930043326e-02,-9.537724681532130933e-02
-1.077085269406273582e+01,-9.975966260338210712e-02,-9.889550373390854077e-02
-1.077002667079890230e+01,-1.089720453217388196e-01,-1.038527928954025292e-01
-1.077558862765602044e+01,-1.043348806668113471e-01,-9.610204609283565236e-02
-1.077350597839886426e+01,-9.988141854097969119e-02,-9.074692198419241629e-02
-1.077015001218904366e+01,-1.049984093400963409e-01,-9.826550592004308637e-02
-1.077328017176895969e+01,-9.601409953030137778e-02,-9.667830155397341696e-02
-1.077268851099310965e+01,-9.673936181258593892e-02,-9.525689832587605488e-02
-1.077294213140985768e+01,-9.894191033730653784e-02,-1.028473590436560642e-01
-1.077110500858806574e+01,-9.779988529699271127e-02,-1.042106966379701405e-01
-1.077284943234105263e+01,-1.008670334691769144e-01,-9.692984427923656554e-02
-1.077318833564838485e+01,-9.643774457704122616e-02,-9.345033598396483565e-02
-1.076982178389908640e+01,-8.717538970294984313e-02,-1.042272714077787793e-01
-1.077312873779937696e+01,-9.521146513340583706e-02,-1.056557143184816833e-01
-1.076829114019525591e+01,-1.108848348252310517e-01,-1.026362137086055809e-01
-1.076735698140238462e+01,-9.635248574687810263e-02,-9.710083349380159434e-02
-1.076702489155438336e+01,-9.955134409076910051e-02,-1.043498744767585584e-01
-1.077618032283408134e+01,-9.839164004583500489e-02,-9.897258605123743225e-02
-1.076932367477815156e+01,-1.033898956916699530e-01,-9.787365111971602083e-02
-1.077138175088102123e+01,-1.020575000774414237e-01,-1.027207503568829533e-01
-1.076858378211150047e+01,-9.638538715864537754e-02,-1.051912724241249458e-01
-1.078108434240876967e+01,-1.018974681590719272e-01,-9.674581304210669308e-02
-1.078008676990074832e+01,-8.726242720571943112e-02,-9.378073569243761121e-02
-1.077624912326805351e+01,-9.379931296276758368e-02,-9.851289541802833727e-02
-1.077314410251615939e+01,-1.042293778741384264e-01,-9.676573996268138245e-02
-1.078085035629510635e+01,-9.793899454352079925e-02,-1.011787670138260820e-01
-1.076924356500143709e+01,-9.329897328390976408e-02,-9.911443315864841563e-02
-1.077415248078153809e+01,-1.125813748705833395e-01,-9.649615764585764421e-02
-1.077463202313501078e+01,-9.865693398487455912e-02,-1.018306446420796929e-01
-1.076624255761432458e+01,-9.920961063112149203e-02,-1.095319657961085630e-01
-1.076552595639013887e+01,-9.529295442633180235e-02,-9.624197000211104358e-02
-1.076999708133814160e+01,-9.013006408388990476e-02,-9.828794284472928966e-02
-1.077281080852013240e+01,-9.823908783228117725e-02,-9.297640436860563073e-02
-1.078192256295788276e+01,-9.822432319545872093e-02,-9.637492560824741095e-02
-1.078002677521393515e+01,-9.803480136167885828e-02,-9.692595209510276866e-02
-1.077870890934854842e+01,-9.991695394300341426e-02,-1.000124691589935194e-01
-1.078199324348721966e+01,-1.010084708397065434e-01,-9.591204395195022936e-02
-1.076928710757230867e+01,-1.012534309982689729e-01,-9.339996033703028278e-02
-1.076952516822557371e+01,-9.935873072983349152e-02,-9.339852733332010271e-02
-1.077936625997057263e+01,-9.553893464597132401e-02,-9.658179665742168407e-02
-1.077194607984161401e+01,-1.048855818098116677e-01,-9.768413048794283293e-02
-1.077344768735656011e+01,-9.792310001868603786e-02,-9.882792086028956147e-02
-1.076754300258522079e+01,-1.024159469265428640e-01,-9.388726750009053490e-02
-1.077265628973479572e+01,-8.729791543097716044e-02,-9.967413582765378977e-02
-1.077624925797482902e+01,-9.720436398596302152e-02,-9.769873571029093207e-02
-1.077026033566064811e+01,-9.834870667067444061e-02,-9.891543305903381655e-02
-1.076560852828978376e+01,-9.927688479386571896e-02,-9.714571155334779384e-02
-1.076754458345946475e+01,-1.028237117062127115e-01,-8.669020097376085865e-02
-1.077047659616498976e+01,-1.027593661242281742e-01,-9.638291847263678880e-02
-1.077850785103047215e+01,-8.971572719196878321e-02,-8.548077797997598315e-02
-1.077457599235202146e+01,-1.001558195954975611e-01,-9.943162589504798976e-02
-1.076966170161278669e+01,-9.063107768050622515e-02,-1.020393411238771642e-01
-1.077083609457734603e+01,-9.291750158239758806e-02,-9.710323856634030248e-02
-1.076932933931954040e+01,-1.003435213016665439e-01,-8.965133852985102125e-02
-1.077868831924255311e+01,-9.310239093206208738e-02,-9.829767415657453267e-02
-1.077430584865405550e+01,-1.064378430128185143e-01,-9.542347819332498704e-02
-1.077779899728404445e+01,-9.630089537844782610e-02,-1.053231903493607180e-01
-1.077239854679461750e+01,-1.025058174362233482e-01,-9.302439652274031856e-02
-1.077699581142272045e+01,-9.955729801833505810e-02,-9.485298986470255822e-02
-1.076999958942255375e+01,-9.505426376547325418e-02,-9.435817466609867921e-02
-1.077024961675213000e+01,-9.885155729210171049e-02,-1.076625386728253253e-01
-1.077379329375000516e+01,-8.986335097205076783e-02,-9.209547663981430821e-02
-1.077254000881234930e+01,-9.221490863184422793e-02,-1.033002113575904740e-01
-1.077218053282205190e+01,-9.931588345946898433e-02,-9.959942731531865046e-02
-1.076862368103947887e+01,-8.919446571117012335e-02,-8.927177403982877735e-02
-1.077357810210081013e+01,-9.767717482870504064e-02,-9.641609124971134426e-02
-1.077432027029858119e+01,-1.019424084926371793e-01,-9.391185745988676892e-02
-1.077726152497695722e+01,-1.015452159318780967e-01,-9.151312888332098494e-02
-1.077041211111967733e+01,-9.927054942738043619e-02,-9.718271148650145519e-02
-1.077612712861534128e+01,-8.515610653930381913e-02,-1.005674063928009426e-01
-1.076912893529441284e+01,-9.048111006224343611e-02,-9.775184168985959210e-02
-1.076538909767360153e+01,-9.722175736341641394e-02,-9.350233452965843461e-02
-1.076757170198600377e+01,-1.004437295426317128e-01,-1.030754387871233857e-01
-1.077498831308258254e+01,-9.421637273629061837e-02,-1.000472145266058516e-01
-1.076934123687950695e+01,-1.009448381019967256e-01,-9.575088499949424570e-02
-1.077186327170892000e+01,-1.051108621867513221e-01,-9.771788678718090759e-02
-1.076716363752373340e+01,-9.972784081988460281e-02,-9.904922634324364594e-02
-1.077905538394920448e+01,-8.839409563254380098e-02,-9.240171554140971799e-02
-1.078046339427703337e+01,-9.880133900589069262e-02,-9.144617689199514843e-02
-1.077353655650053099e+01,-9.454712164170357702e-02,-1.011793218931864718e-01
-1.076648978650704969e+01,-1.028225014232374696e-01,-9.972162972409887027e-02
-1.077124948603307786e+01,-1.038970783522230740e-01,-9.530355335720562537e-02
-1.077255321851565206e+01,-9.470727542189794068e-02,-9.693539782184314169e-02
-1.077044941930001087e+01,-1.020181517567436413e-01,-9.190888572473802920e-02
-1.077722483221194416e+01,-9.175047646594003403e-02,-1.004706882580484045e-01
-1.077212722385388943e+01,-9.751200422335519480e-02,-9.141100238136863620e-02
-1.077630186538865154e+01,-9.066818546180685501e-02,-8.598940334240792738e-02
-1.077508058218422526e+01,-9.782940364531915456e-02,-9.321795122043020909e-02
-1.077154341704202345e+01,-9.628141808504572796e-02,-9.221526406649879770e-02
-1.076776435832807621e+01,-9.673934533345525388e-02,-1.022428478884622877e-01
-1.076549298959586842e+01,-1.014161467424983254e-01,-9.379598800931115976e-02
-1.077113316609804627e+01,-9.465313721743451314e-02,-1.047410456412556645e-01
-1.078401888720356538e+01,-8.464003772204271858e-02,-9.637322500332114183e-02
-1.077697389368654690e+01,-1.043622298291112110e-01,-8.675765543265545610e-02
-1.077046568783434211e+01,-9.702395856117321249e-02,-9.611919404211610729e-02
-1.077525743946051406e+01,-9.658486621741164957e-02,-1.033727753220755746e-01
-1.077721470781126811e+01,-9.712191804630690428e-02,-9.988547889297307025e-02
-1.078664430951072184e+01,-9.041265620785977897e-02,-1.050274905322117897e-01
-1.077855378802739672e+01,-9.526882357269998713e-02,-1.024760762554553922e-01
-1.077903133820121084e+01,-9.403425153627434363e-02,-1.024701413445052722e-01
-1.077967420984880498e+01,-9.568854070627166863e-02,-1.022748004491790402e-01
-1.076615342305346346e+01,-9.274912194723720915e-02,-9.465509061492485832e-02
-1.077357352963819004e+01,-8.574502539485058528e-02,-9.406159287682834547e-02
-1.077781595197181375e+01,-1.026621620452592698e-01,-9.316014025361891993e-02
-1.076703121853320511e+01,-9.931856187903088939e-02,-9.333013935409938122e-02
-1.077568161072822939e+01,-1.077365788851783052e-01,-9.272891583997869280e-02
-1.077186375169113219e+01,-9.331671078909303807e-02,-9.595941677583209872e-02
-1.077863438129024942e+01,-9.771404884981797767e-02,-9.321183187401939352e-02
-1.078047038341460073e+01,-8.686889645779023728e-02,-1.028911413809188713e-01
-1.076107017552283018e+01,-9.879748165230754775e-02,-1.025207187875326748e-01
-1.078089608811551869e+01,-9.562247985127368677e-02,-1.032588849193030733e-01
-1.077682230820374620e+01,-9.448511549079868788e-02,-1.021178933467291466e-01
-1.077223747057470860e+01,-1.008484277307414717e-01,-9.680786851338733789e-02
-1.078066277950853724e+01,-9.266699956789403725e-02,-1.029447975850407565e-01
-1.077350240908472578e+01,-9.751940775438817932e-02,-1.002484074619083565e-01
-1.077744566434201090e+01,-9.928858176177082773e-02,-9.382224777547842898e-02
-1.076649061478824976e+01,-1.050427162409036108e-01,-1.008333004866909105e-01
-1.077796535928826671e+01,-9.728254206364393697e-02,-9.661116332058823641e-02
-1.076762617860089577e+01,-9.483538560369282611e-02,-1.000267658276110389e-01
-1.077506205598332123e+01,-9.402189345992884029e-02,-1.011180913669789960e-01
-1.077599634810213480e+01,-9.565940226851060713e-02,-8.737837702115437699e-02
-1.077640953137026081e+01,-1.032224773523157529e-01,-1.036209916265889847e-01
-1.077389301000816602e+01,-8.994027181113918579e-02,-9.512691012921162259e-02
-1.077416487403275980e+01,-9.818989499635785712e-02,-9.846598413360806157e-02
-1.077259841713970623e+01,-9.890425985450441992e-02,-9.589892872637521826e-02
-1.077290365211667478e+01,-1.083759678800269716e-01,-1.025988808264030883e-01
-1.077714849726632096e+01,-8.808739153715502979e-02,-9.901696608036188174e-02
-1.077328469874005101e+01,-9.832270175723199779e-02,-9.625763378687823835e-02
-1.076913936679259720e+01,-9.635802175554276927e-02,-1.012380919481783437e-01
-1.077177906476734925e+01,-1.031884177341637898e-01,-1.014239599480585702e-01
-1.077051246010871033e+01,-9.735126358330532803e-02,-1.016492834026839071e-01
-1.077312774920964777e+01,-1.035478020048077458e-01,-1.002636262408785200e-01
-1.077363143416038049e+01,-9.645314024215326243e-02,-9.213293373832930067e-02
-1.077698201450556326e+01,-9.678078932216128971e-02,-1.046180474125749937e-01
-1.077092537120212867e+01,-8.954293704591281822e-02,-8.939579494449809149e-02
-1.077639227937746824e+01,-9.441992398952882282e-02,-1.056401501568316609e-01
-1.077028035910847770e+01,-1.007129047468190430e-01,-1.048755492136744100e-01
-1.077681192651489539e+01,-9.292094957997525106e-02,-1.047872905429175910e-01
-1.077971241971829386e+01,-9.089813287819477339e-02,-9.327050628093026818e-02
-1.077373949200210212e+01,-9.658642615247250984e-02,-9.179847010204346403e-02
-1.078144863876710779e+01,-8.990391553259509394e-02,-8.803067923651330950e-02
-1.077297652591274968e+01,-9.980611551508181134e-02,-1.047541030381090449e-01
-1.077758017906788268e+01,-9.487990642581570211e-02,-9.930308057887460294e-02
-1.077497929723839398e+01,-9.414824360347008592e-02,-8.737170609869993054e-02
-1.076924492031186809e+01,-9.876016175400170738e-02,-9.946406763702585196e-02
-1.077021368800983936e+01,-9.817566402362577771e-02,-9.475931179854586717e-02
-1.076697181090964150e+01,-8.698555205960328829e-02,-1.073400425273181719e-01
-1.077623647958750830e+01,-1.033259134975159643e-01,-1.010569886445469717e-01
-1.077923811641984919e+01,-1.018174453184340911e-01,-9.449251751754240980e-02
-1.077413714792341182e+01,-9.722734408467749445e-02,-9.754835163391904762e-02
-1.076026151359415728e+01,-9.842712313737803087e-02,-1.043273405863742453e-01
-1.077228194321932797e+01,-9.740799264791810685e-02,-9.214968788245971043e-02
-1.077710751144885215e+01,-1.014005208256824053e-01,-9.421256654072421299e-02
-1.077575873808111950e+01,-1.004579504018411618e-01,-9.772400490608572354e-02
-1.077299961508520987e+01,-9.196207180911193657e-02,-9.704020460307294371e-02
-1.078172909017673220e+01,-1.018762264288486097e-01,-9.084870700883909689e-02
-1.076774176021765683e+01,-9.745889282171406320e-02,-1.073520671603524629e-01
-1.077739387471721244e+01,-9.501658576279263524e-02,-9.453656054674171305e-02
-1.077735339066281561e+01,-9.161038295486899352e-02,-9.301306151408868239e-02
-1.077643197735263492e+01,-9.158281599636163006e-02,-9.999277073184886788e-02
-1.077099498031513747e+01,-8.862755311331409203e-02,-9.580272401232629853e-02
-1.077526716167180432e+01,-8.512810561509652485e-02,-1.127094346798188929e-01
-1.077885340469365261e+01,-1.054852909747647366e-01,-8.865767141457232825e-02
-1.076597677547047560e+01,-9.157090852097500566e-02,-8.723818153795553920e-02
-1.077478352159774744e+01,-9.693587088436494970e-02,-9.659527127537775870e-02
-1.076917018304044049e+01,-9.350296162920901377e-02,-9.272451235224923871e-02
-1.077394558319393703e+01,-1.053967083449844910e-01,-9.994142925098577213e-02
-1.077337774954673222e+01,-9.111764475665987129e-02,-9.623702397708003287e-02
-1.076339975424661155e+01,-1.044204668281055043e-01,-9.402254131068706056e-02
-1.077240918169746564e+01,-1.056424865727096374e-01,-9.386881786179644693e-02
-1.076569396562914172e+01,-1.008070259827951731e-01,-9.824847680873141642e-02
-1.077843189346266506e+01,-9.304811685285467593e-02,-9.849781674158131217e-02
-1.078336828673807624e+01,-9.173907697161022556e-02,-9.740424288807167374e-02
-1.077511277549755242e+01,-9.972667076906224781e-02,-8.735326769871872010e-02
-1.077583270922776038e+01,-9.059441079733389357e-02,-1.104272980303535323e-01
-1.077490510573933591e+01,-9.164184810090834910e-02,-9.700992644670516918e-02
-1.077097692101929738e+01,-9.731876646452956858e-02,-9.426340659944881795e-02
-1.077176347824107516e+01,-9.903681391836219317e-02,-1.027961788694312928e-01
-1.077589688028659509e+01,-9.597503838241737417e-02,-1.002563622274450783e-01
-1.077524328738314630e+01,-9.449164673205401321e-02,-8.629560420752142857e-02
-1.077009060198187917e+01,-1.026998557687745367e-01,-9.779374587417730136e-02
-1.076992999728199862e+01,-1.020513257786515859e-01,-9.621314617058061847e-02
-1.077339214755067864e+01,-9.085321918961258847e-02,-9.239792567753228603e-02
-1.077987584678549560e+01,-9.384749781317347495e-02,-9.497474072138784029e-02
-1.077242092070106594e+01,-1.083465875218869306e-01,-9.122595510628878079e-02
-1.077004880736385495e+01,-9.981844243020301932e-02,-1.001608450367155456e-01
-1.076619447162772403e+01,-8.983737917054654409e-02,-1.068072339682479138e-01
-1.078203601954661472e+01,-8.904313681962770788e-02,-9.218201381937889127e-02
-1.077334605868682260e+01,-9.399130887776642462e-02,-8.436199075940356562e-02
-1.077317409712407503e+01,-9.265182503662902636e-02,-9.980651392290412760e-02
-1.077327836823898366e+01,-9.412726237884266878e-02,-9.397337247297503360e-02
-1.077832897704244708e+01,-8.723668380965983460e-02,-9.121072042200031871e-02
-1.077435914656766869e+01,-9.344492293370312841e-02,-9.544721277518233848e-02
-1.077727127221757897e+01,-9.891986039852464219e-02,-9.880517692206941538e-02
-1.077542645464187565e+01,-9.989222643999821905e-02,-9.629168631678965140e-02
-1.077259712337704123e+01,-9.405319991194689699e-02,-9.612934972983951110e-02
-1.076718704947737670e+01,-9.784661662195258403e-02,-1.012724547881751758e-01
-1.077560050871561437e+01,-9.690027524322640529e-02,-9.605021272564341628e-02
-1.076914952561434191e+01,-9.397944141608852164e-02,-1.046076786339205505e-01
-1.077187407974803257e+01,-8.873427121252802641e-02,-9.087164959006374665e-02
-1.077971474212363034e+01,-1.074203436642008902e-01,-9.465504100540961252e-02
-1.077017386819808564e+01,-9.523894734118164285e-02,-9.854924715813342950e-02
-1.077740428350913149e+01,-9.586890825174571029e-02,-9.498153128556793834e-02
-1.077953768604859874e+01,-1.051477547593754336e-01,-9.626207168391202884e-02
-1.076899771396218952e+01,-9.317824045213632389e-02,-9.404667956000746509e-02
-1.077635961779738771e+01,-1.018032043585763435e-01,-9.302310377078432113e-02
-1.077697266062939363e+01,-9.968814899436304056e-02,-9.695723623886773335e-02
-1.077416291635014112e+01,-1.018969221951760012e-01,-1.051509380649182923e-01
-1.078585462610954693e+01,-9.768689908373101582e-02,-9.663478199336411611e-02
-1.076824683384963954e+01,-9.108100535349231142e-02,-9.346486449019943132e-02
-1.077877969474877773e+01,-1.041325318875641337e-01,-1.007732418554661002e-01
-1.077019021624311002e+01,-9.591636424006619310e-02,-9.834558770081813783e-02
-1.077764761118480052e+01,-9.431109841669479965e-02,-1.022976964938612232e-01
-1.076995195999093013e+01,-9.911023408274548252e-02,-1.040556749489932736e-01
-1.077616326350190867e+01,-9.637207146145454484e-02,-9.537416297536736864e-02
-1.077560558352847231e+01,-9.360124836414955574e-02,-9.559360345993382635e-02
-1.077319175502666759e+01,-8.747731569798188056e-02,-1.024101666393087418e-01
-1.077287701114462060e+01,-9.883038126711204963e-02,-9.887049956331002420e-02
-1.076924284895377681e+01,-9.289517034569559628e-02,-9.595466430891999576e-02
-1.077672238946964356e+01,-9.340928130632070170e-02,-9.407374108123139900e-02
-1.077840401474069054e+01,-1.065301862826396884e-01,-9.365309234353716428e-02
-1.077105463613010805e+01,-8.935015161393899952e-02,-1.032659402451409775e-01
-1.077705060897936029e+01,-9.955734574642760570e-02,-1.051834055420155928e-01
-1.077798142483852750e+01,-8.521076594887108668e-02,-1.036265417263085992e-01
-1.076793058377115742e+01,-9.825652229746149879e-02,-1.012356899035869034e-01
-1.078148308904797403e+01,-1.034297695183651056e-01,-1.000190535909802753e-01
-1.078446235636656958e+01,-9.708929321949666402e-02,-9.150902813513843437e-02
-1.077297491249022698e+01,-1.032554817726603485e-01,-1.006051325814877190e-01
-1.077746400838644725e+01,-1.021227909253061283e-01,-9.914146636014946334e-02
-1.077259572689582967e+01,-9.891404875559800525e-02,-9.762750490328565844e-02
-1.077342255053843267e+01,-9.741349665834175831e-02,-9.683067516511616180e-02
-1.076448457938135483e+01,-1.046088869555278356e-01,-9.263458264250433449e-02
-1.077082557706113697e+01,-9.041745712123297474e-02,-9.725516438935222219e-02
-1.078048017070588926e+01,-9.519112862340514680e-02,-1.065238574771799618e-01
-1.077663311964162318e+01,-8.321874112663943390e-02,-1.004607437888792310e-01
-1.078203453844252913e+01,-9.823307031146939761e-02,-9.735559702415709504e-02
-1.077384029741495475e+01,-9.183205916738333696e-02,-1.009594774949327256e-01
-1.077256628713821485e+01,-9.456909359468405885e-02,-9.344683132608100351e-02
-1.078662380810563626e+01,-9.352002351656994728e-02,-9.693591660783899833e-02
-1.077500878736645618e+01,-9.613011325299945786e-02,-9.816639684141803546e-02
-1.076917753732881167e+01,-9.553054694026068272e-02,-1.045093294494132546e-01
-1.078299365862482340e+01,-1.048889645985197488e-01,-9.060637140150692992e-02
-1.077512970901854672e+01,-9.782601519812936242e-02,-9.226700674675972214e-02
-1.078424355363862119e+01,-9.452091067050268081e-02,-9.372875509711380004e-02
-1.076551451866085962e+01,-9.950537718068389048e-02,-9.612690971879209179e-02
-1.077620102534010904e+01,-9.996347424087648204e-02,-9.950750449779192930e-02
-1.077370368280035073e+01,-8.940282512615224664e-02,-9.919321081756843350e-02
-1.077497051331046940e+01,-1.041723362195336455e-01,-1.015034235252670197e-01
-1.078091954913902306e+01,-9.998457521958618865e-02,-9.958013216250709287e-02
-1.077938852117363844e+01,-9.336993555493426633e-02,-1.014562740671623581e-01
-1.077477363178853764e+01,-1.011175393475878398e-01,-9.771825637318158619e-02
-1.077333084270503605e+01,-1.013420133086736230e-01,-9.083750090315761971e-02
-1.078532492305896717e+01,-9.409605173630086750e-02,-9.780708753675394773e-02
-1.077859097905923669e+01,-9.323614298902548059e-02,-9.244479901189156523e-02
-1.077397541064018682e+01,-9.410871656730591950e-02,-1.048899106506628043e-01
-1.077887053274262108e+01,-9.881693118442198831e-02,-9.393114675816693904e-02
-1.077098277787948888e+01,-9.613539890766757690e-02,-9.768712389420525222e-02
-1.077347408903479220e+01,-9.536896724223969946e-02,-1.063551680853816461e-01
-1.076617031426991211e+01,-9.443567234496191842e-02,-9.667473405754793692e-02
-1.077032207864218272e+01,-9.247216623994261586e-02,-8.633059280161456406e-02
-1.076720661235159149e+01,-9.647576860784565222e-02,-9.392256615356424365e-02
-1.078870482086598059e+01,-1.044225060719252557e-01,-9.630571304646415309e-02
-1.078126806314795516e+01,-9.023091391804048678e-02,-9.590529313935146349e-02
-1.077857994130897978e+01,-9.405384177637868270e-02,-9.842906456822361760e-02
-1.077159183541337661e+01,-9.841760374961011637e-02,-9.284169462468305767e-02
-1.077162349878829772e+01,-9.728593093957051130e-02,-9.291926469346958872e-02
-1.078101397500198289e+01,-1.010933287954039611e-01,-9.702291275073131327e-02
-1.077399236149478590e+01,-9.976987781124836696e-02,-1.055836445545528940e-01
-1.077246316263091686e+01,-1.029399596028855723e-01,-1.013420522114691774e-01
-1.077185663468244137e+01,-1.019436154294277863e-01,-1.061092770662294266e-01
-1.077647146403979228e+01,-1.022693648218415685e-01,-9.446257505885921613e-02
-1.078078911144541330e+01,-9.348015566243329799e-02,-9.801122332725939468e-02
-1.076609848780219636e+01,-9.776349953070608001e-02,-9.675610784124072383e-02
-1.077375853086477697e+01,-9.986175210475439767e-02,-1.031765663601134642e-01
-1.076475544154242847e+01,-1.003345757258345405e-01,-9.507009352288556259e-02
