gyro_x (deg/s),gyro_y (deg/s),gyro_z (deg/s)
4.855968643695150466e-01,4.994311645728297111e-01,4.574764332978817905e-01
4.871749312494753625e-01,4.663969978074267719e-01,5.523919917059515461e-01
5.628247409507289856e-01,5.358895660119056270e-01,4.835279888644061219e-01
4.731398429471117550e-01,5.519823942634396463e-01,4.685740674366241643e-01
5.750482359933283272e-01,5.189973046976935622e-01,4.991195488853010231e-01
4.721979334080307344e-01,4.274329487318168086e-01,4.933180788557415264e-01
4.662851328952365426e-01,5.251680135332659205e-01,5.190487701640775775e-01
4.461114187939805853e-01,4.909840907493764894e-01,5.297432189452531137e-01
5.061013494742914176e-01,4.816801051286135338e-01,4.636698562500368159e-01
4.123539034606584774e-01,4.796181364961735194e-01,5.586967857270480620e-01
4.760699765094537628e-01,5.041696028970227283e-01,5.965459380274474865e-01
5.332749946924761897e-01,5.345922586007170185e-01,5.536885985348333206e-01
4.651463286087105242e-01,4.880130044049788007e-01,5.454703693065857673e-01
4.640465918778710064e-01,5.371878003079471053e-01,4.608682905006608599e-01
5.057397048910182713e-01,5.213600579597253981e-01,5.041447581287479274e-01
4.974859866941019337e-01,5.190777697050318329e-01,5.078953664270396962e-01
4.906376721246660799e-01,4.632757929270163721e-01,5.031901774376703607e-01
4.061451539434782210e-01,5.213124056848849053e-01,5.327591697638619506e-01
5.135260320090633268e-01,5.555008110018373468e-01,4.870213033705944605e-01
5.344410128659662362e-01,4.739862065194396235e-01,4.707785151553364744e-01
4.668956973897554485e-01,4.772604006793276232e-01,4.623346554275032938e-01
5.298518592058309995e-01,5.226348603869979126e-01,4.686972327578861619e-01
5.542621369570581713e-01,4.482469440805808003e-01,4.945871717678782531e-01
5.091836073942732632e-01,4.529527892444267789e-01,4.903601951125144409e-01
5.314325411701618096e-01,4.994698026779292310e-01,4.911454909808699032e-01
5.146512394727923434e-01,4.900457819506227608e-01,4.856131216759087543e-01
5.697002969614444190e-01,4.314560091478202852e-01,4.731050041904361625e-01
5.305074162146022898e-01,5.252742703252605283e-01,4.579575961896897307e-01
4.908715970600717182e-01,4.849534070678169217e-01,5.294784036642993241e-01
5.140541743938752406e-01,5.609692474961822661e-01,4.685476120566282598e-01
5.065297232375419734e-01,5.331370625659574980e-01,5.182847915627941671e-01
4.745279950924015111e-01,4.521041100364321941e-01,4.603118415379155448e-01
4.930775189092110877e-01,4.784759672300810673e-01,5.320233139506805875e-01
5.179985929175160431e-01,5.485250828457547412e-01,4.920827787297195055e-01
5.063219790804600606e-01,4.797581894190429130e-01,6.167318068850177193e-01
4.363045837949600658e-01,5.364717598332781057e-01,5.047947862885849846e-01
5.502587471878813696e-01,5.671439729364968763e-01,5.226095596899319462e-01
4.486491104017032994e-01,4.712681248295083614e-01,5.135746112880195113e-01
4.973023916456937310e-01,4.692313140149338979e-01,4.800309930189075036e-01
5.340507765220042780e-01,4.792161070426410041e-01,4.808913140327210067e-01
5.315413899457422930e-01,5.138900754041825225e-01,5.241208363173298634e-01
5.477984814286581683e-01,4.499940212612423829e-01,5.619909677620986699e-01
5.471348187404845298e-01,4.714090527466644476e-01,5.690838591464104645e-01
5.728073834650710960e-01,5.324224640925724339e-01,5.430389912565816157e-01
5.186011491366663284e-01,4.940318585246866179e-01,4.390191596624468673e-01
5.390902233419117007e-01,5.346385621264989618e-01,4.707287956556560071e-01
4.229246569664578126e-01,5.158805486022508546e-01,4.953151061358401774e-01
5.084709799419048215e-01,4.697431213282181051e-01,4.939963960248643371e-01
4.865758465057603011e-01,5.243945898733320954e-01,4.932558661120989285e-01
4.147987326827093368e-01,5.284292175233625821e-01,4.698941271527090624e-01
4.560659871866589166e-01,4.962357045532780342e-01,5.205702550306631204e-01
5.154163967089556708e-01,4.942137840916237534e-01,5.165294036014297374e-01
4.992958714339818527e-01,5.106282943140041386e-01,5.098582539505978062e-01
4.753744576415394607e-01,4.929279227997817592e-01,5.427408922912514422e-01
4.753997161536233085e-01,4.932795196967367790e-01,5.276908392799135594e-01
4.322893960464676555e-01,5.940580540935512799e-01,4.889106090495705659e-01
5.290864246481477018e-01,4.499396616908412083e-01,4.812327923688056730e-01
4.694849966806652342e-01,4.568568063180876160e-01,4.699269270099190043e-01
5.856921533665370161e-01,4.925851118572232012e-01,4.355996357391349605e-01
5.655474847107223590e-01,4.294798529431398393e-01,4.931893013643252055e-01
4.165820210538937474e-01,5.595393689097055701e-01,4.471514926820019942e-01
4.840567411162159384e-01,4.442886142808493699e-01,5.714389815287728158e-01
5.014757735685532181e-01,4.658009510408518405e-01,5.203264311668270858e-01
4.797070308383901693e-01,5.789171980533106554e-01,5.738193524975968574e-01
5.410394369835299644e-01,4.572092821622626424e-01,4.644113275125775209e-01
4.970779079955409685e-01,4.451569779906422997e-01,4.728302807731539215e-01
5.261980770397925999e-01,5.154504764616014700e-01,4.992034202997530645e-01
5.145589653401539953e-01,5.298180439952064891e-01,5.377679094334942844e-01
5.312899061062931194e-01,5.416538352574383763e-01,5.802391413815207732e-01
4.905562667890305817e-01,4.954593737388859331e-01,5.500461153525512126e-01
4.390591909515298985e-01,4.903899990332117875e-01,4.929324175175055500e-01
4.338018605553824458e-01,5.403617790569350543e-01,5.082370283372339426e-01
5.247444820931144172e-01,4.831091686990642842e-01,5.792619156297258431e-01
4.832128613711446086e-01,5.386713182251490206e-01,5.401253888994187458e-01
4.810558742769247553e-01,5.600012254622539487e-01,4.815214117269485672e-01
5.369347848501747622e-01,4.944515279826822152e-01,5.428234637160359588e-01
5.112723730147725743e-01,4.628915452558621801e-01,5.084945180422102418e-01
5.163274158554396198e-01,4.721920996304243001e-01,5.235835526141285889e-01
5.709819593065337262e-01,4.859740443674486765e-01,4.770444873644945072e-01
4.676019882770391378e-01,3.940905873913398416e-01,5.427522092299512657e-01
4.283207775785166649e-01,5.369415386467218942e-01,5.027326738634360082e-01
4.228983420243866420e-01,4.664219647006269676e-01,4.479342068702195645e-01
4.835391124720523903e-01,5.065564739127453864e-01,4.521377736383366819e-01
5.467608986148740913e-01,4.499220942076341268e-01,4.336229788717277378e-01
5.551519279532360907e-01,4.655193275303937117e-01,4.779889477017024157e-01
5.334892065968284136e-01,4.927318311639752868e-01,4.898080039783885842e-01
4.249548485706007850e-01,5.600669321955428215e-01,4.958136834734609422e-01
4.896534633843291906e-01,4.985085984103926338e-01,4.596714838238589729e-01
4.534704214250488974e-01,4.932661987880857524e-01,4.466121345877214210e-01
5.416619181951681794e-01,4.748821614319367890e-01,5.193998549455988156e-01
4.493823171771564318e-01,4.896046064017487986e-01,5.247712623454442449e-01
4.637807507663679885e-01,4.524480007522038716e-01,4.695386639709478449e-01
4.696338517510576516e-01,5.379419967497265365e-01,4.766195693590382088e-01
5.100602295963400090e-01,5.451524364141384638e-01,4.798918459103597711e-01
4.327167214313490384e-01,5.128986900247761715e-01,4.085618000688604479e-01
4.780480831327748592e-01,4.961553444260280998e-01,4.933956011848647516e-01
4.633851119792308237e-01,4.724427831337723593e-01,4.656766718708088559e-01
5.072441832981708920e-01,4.757941386932125205e-01,4.614048364810096614e-01
4.098301742333053665e-01,3.869165839410629304e-01,5.580508317581618360e-01
5.132413315703958645e-01,5.231760923602373214e-01,4.904790717725355798e-01
4.433612588724284431e-01,5.394428759924104755e-01,4.944472274406172541e-01
5.854402545474403086e-01,4.783246172476912084e-01,5.996579327879661969e-01
4.357394910903591989e-01,5.080714608239608188e-01,5.549012667719621650e-01
5.153944607739486816e-01,5.571426209770000693e-01,4.837325704521034941e-01
4.677866498823581853e-01,5.488154034200658504e-01,4.467646716456943889e-01
4.526945494109547719e-01,4.803934648905354154e-01,4.847147416177774448e-01
4.804979842097243936e-01,4.818750999366694932e-01,5.159015401814155410e-01
5.347868088587209856e-01,4.957607444821370279e-01,4.709541772910329493e-01
4.942111328696089934e-01,4.751937968237845422e-01,4.745016311731997671e-01
4.748324836339010147e-01,4.951238952377212676e-01,4.748247311255489600e-01
4.775116617188265855e-01,5.328417750464220504e-01,4.868941483136077775e-01
5.116337099463893479e-01,4.875280976580350645e-01,5.467655758235495655e-01
5.045806414670864770e-01,5.194608195507990356e-01,5.186020643297806210e-01
5.988975062078181200e-01,4.682873955463635052e-01,5.039495083032912159e-01
5.440170981808029049e-01,5.145052347864423892e-01,5.173140477118135516e-01
4.392531541458712940e-01,5.046706696466851660e-01,5.198203934006194737e-01
5.383375948119569765e-01,4.598460294456412356e-01,4.717488930705656669e-01
5.159302112267685203e-01,4.898673463810965800e-01,5.581628044294127955e-01
5.323466256135388486e-01,5.422496508837713058e-01,5.359230933881208303e-01
4.890713977926327005e-01,5.241621266854995520e-01,5.302552976822813013e-01
4.897737655805559642e-01,4.782412700452717824e-01,4.858534902146937617e-01
5.479763483887235553e-01,4.840548047781598195e-01,5.131836174964394814e-01
4.780345173684276139e-01,5.230503581362568877e-01,4.841836943186209608e-01
5.002303582999990672e-01,5.275446968921377877e-01,5.414840875050962454e-01
4.528924388640942489e-01,4.488640472918983826e-01,4.539518264576083428e-01
5.651651871837014562e-01,4.971783741864793105e-01,5.300444116674493111e-01
4.695076096230376139e-01,5.092892123936798576e-01,4.682307549188188811e-01
4.702311140599271244e-01,5.603188765383917413e-01,5.684664747653961347e-01
5.420591299279213793e-01,4.778902943602552633e-01,4.618937177699556917e-01
5.126761493952739501e-01,5.009829324695561636e-01,4.491622963343769870e-01
4.446106432163366984e-01,4.826569341143670533e-01,4.753921314755326089e-01
4.619860771369704300e-01,4.576086065889994337e-01,5.669840738544553727e-01
4.783393657551380795e-01,5.295797154569878984e-01,5.063024673072533677e-01
4.953578218187325577e-01,5.005863025430841162e-01,5.259266775121361759e-01
4.770290713449948927e-01,4.686776631825070316e-01,4.494921828798102426e-01
4.175581134659903659e-01,4.111699551230679206e-01,5.862221084637962987e-01
4.784336049748679764e-01,5.412085712793383019e-01,5.362451695983759814e-01
4.807369850395697419e-01,5.267667256814857479e-01,5.377725657580655350e-01
4.853178883740038585e-01,4.717695595068969183e-01,5.743922208025512566e-01
5.777440431392806275e-01,4.277180729310736118e-01,4.438145115233224636e-01
5.316738739809647729e-01,4.851743649112534307e-01,5.755053576390227743e-01
5.482691764091479625e-01,5.415743445174283632e-01,4.977020053114038500e-01
6.189407827219646219e-01,4.842706453834106917e-01,4.773556026304269784e-01
4.467069920237886627e-01,4.834865416559393503e-01,5.745958018538693812e-01
5.030678807493811355e-01,5.418648874069869059e-01,5.331112795811990823e-01
4.484774157354766699e-01,4.653547103042493527e-01,5.047953325776611821e-01
4.713625915733553051e-01,5.489679856778612033e-01,5.200039812040418985e-01
5.140067263819091403e-01,5.689607527895139683e-01,4.750501529116298860e-01
4.744627028666485447e-01,5.241409872124797031e-01,4.649175437533316080e-01
5.447788348568916028e-01,4.874421772970157218e-01,5.033737625216593292e-01
5.686931906016980953e-01,4.837423521394079162e-01,5.149554026863671918e-01
4.742141021256329192e-01,4.954379516669387140e-01,4.489464735754756242e-01
4.852482740390368643e-01,5.317499760721763336e-01,5.239163034641566297e-01
5.158227080160524558e-01,4.431296086220340991e-01,4.576564403227293409e-01
4.367567187022277087e-01,5.053075302559837390e-01,4.570192169323785136e-01
4.916816974181636990e-01,4.524383040166428671e-01,5.265673148924295832e-01
4.587428428912046496e-01,4.990355520994523286e-01,5.163992691371237509e-01
4.820664414373558304e-01,4.101983414767013114e-01,5.061706672112571415e-01
5.373070809698607952e-01,4.719593883377254384e-01,5.132393904701242349e-01
4.766564822811776292e-01,4.638354229461093547e-01,4.773740270275070308e-01
5.276849407704113926e-01,5.125120538264269499e-01,4.507608964747538693e-01
5.342199801936152737e-01,4.722745738541194171e-01,5.322448814263156525e-01
5.159619792792037307e-01,5.270434608795793174e-01,4.789966721172399522e-01
5.208404790754626035e-01,5.455728777678067187e-01,4.475735602669588253e-01
4.573108706238530607e-01,5.336124123828314136e-01,4.480614908883343572e-01
4.911396617203516723e-01,4.371084247723452387e-01,5.412163555313064256e-01
5.201281404917248441e-01,5.365703697136199324e-01,4.799417373464436309e-01
4.397280542817503801e-01,5.546342028757480502e-01,5.027134453938332248e-01
4.625298595530718537e-01,4.525571183510885276e-01,5.179066988758989076e-01
4.775235920192166805e-01,5.104258297039160341e-01,5.055758993293416603e-01
4.947408470327931407e-01,5.082359556441086168e-01,5.161289608072153756e-01
3.877437794535759652e-01,5.120116324340359126e-01,4.745226492204732138e-01
4.828690050989324356e-01,4.072751773346301452e-01,4.671246332971675241e-01
5.141612713350848241e-01,5.558381455723401254e-01,5.053437620742533554e-01
5.663767080464539028e-01,5.344766655114971954e-01,4.527944708423111142e-01
4.745438620039953981e-01,5.218272013988977109e-01,4.605040244228044144e-01
5.142917830080723229e-01,5.068279442350290820e-01,6.074695163588090807e-01
5.602141578972642533e-01,5.910093969276467574e-01,4.570671004516660418e-01
4.252482488201314026e-01,4.388212531122399063e-01,5.499405284458138699e-01
4.813343969053197058e-01,4.550066343981177264e-01,5.168224754184780334e-01
5.113648915355814006e-01,4.328715779227334526e-01,4.966212918352361783e-01
5.103139671472040062e-01,5.059089373215694962e-01,4.489310127032096198e-01
5.039527757267021624e-01,5.314317563053584381e-01,5.424012924739757269e-01
4.462953605294888160e-01,4.664503280375571492e-01,5.236425515962072064e-01
4.790268934808969425e-01,4.793224813959143793e-01,5.260255716696028427e-01
4.956954835146864524e-01,4.795228566318053831e-01,4.935264019822271919e-01
4.790138248096314499e-01,6.184897412180342391e-01,5.347827887686981141e-01
4.658894054138900120e-01,5.163050642647875055e-01,4.487688205816975362e-01
5.093090707358660651e-01,4.504951810120200739e-01,5.162366784417908860e-01
4.402407999975689323e-01,5.394431512764634729e-01,5.025574080559684909e-01
5.481407984821199397e-01,6.336429510245482621e-01,4.304955932858452461e-01
5.198484902441843358e-01,5.082060935033924087e-01,5.119746456201319518e-01
5.564698901625869665e-01,5.147460101722874937e-01,4.731644416896777505e-01
4.997736865005037443e-01,4.985096412935697829e-01,4.240588713549620636e-01
5.010343094051117330e-01,5.211077431616485400e-01,5.635116418496260993e-01
4.132892291570207655e-01,5.467840931889158540e-01,4.755213493088754628e-01
5.316796752520470681e-01,5.152068447481853442e-01,5.517530974285813627e-01
4.647384704563294888e-01,4.903625844181154214e-01,4.901125528965222244e-01
5.691719596929867286e-01,4.599799483716162651e-01,4.968530345288280636e-01
5.486594492098763043e-01,5.531440400102400901e-01,5.351032674736524442e-01
5.225146355536616216e-01,5.235249460586767212e-01,4.466948015023213259e-01
5.605329397564081662e-01,5.383352306786487462e-01,4.939748316834829955e-01
5.465223355384842829e-01,5.502205758696843141e-01,4.493479606575062624e-01
5.174083648521610179e-01,4.977830769805641764e-01,5.404363813757789847e-01
5.019957107536311414e-01,5.271758760480389494e-01,5.285710577880593508e-01
5.429450146000228683e-01,5.154259079169061231e-01,4.482427509528612575e-01
5.614577274639545035e-01,4.653570617743967852e-01,5.175698826355046300e-01
5.137671058125029555e-01,4.964804741085237505e-01,5.380487685452778335e-01
4.507097886546488352e-01,4.737453336902543444e-01,4.768844473120404381e-01
4.881826389488552187e-01,5.056744588998283163e-01,4.624319258625987916e-01
4.491853788132068037e-01,5.540079237618279473e-01,5.140319506696499063e-01
4.802362607963233110e-01,5.838198952609816583e-01,5.615254581527462374e-01
4.681799962945513149e-01,4.637835821128578617e-01,5.047633617770936887e-01
4.302863092873817630e-01,4.925183895201273310e-01,5.276100293606980074e-01
5.323117400135024546e-01,4.648842971037162597e-01,4.243117246449418234e-01
4.179109765703732382e-01,5.313218355155271411e-01,5.126688985603207183e-01
5.620109846916504504e-01,5.053778499280806580e-01,5.041981505316158740e-01
4.916423636432774580e-01,5.367452846936620059e-01,3.990361793889245501e-01
4.007527907210873819e-01,5.263828134598645958e-01,4.688378293377117867e-01
5.724917189272997753e-01,5.274694087125315622e-01,4.952605109362189229e-01
4.967444403502418449e-01,5.502579261666706856e-01,4.483040640001520472e-01
5.104148105304706640e-01,4.312541078089752178e-01,4.935740538497766505e-01
4.694434615674668021e-01,4.206941811858287972e-01,5.185456303300608472e-01
5.352695874898825146e-01,5.794007380356510639e-01,4.992660089875869955e-01
5.239915949074942514e-01,4.529617618827633252e-01,4.811512548451961080e-01
5.253630508709807856e-01,5.323324692092772370e-01,4.942632227963320579e-01
4.212814507446949186e-01,5.267421711042888921e-01,5.017167570684719635e-01
4.554315063596570679e-01,4.850278929396972805e-01,4.818386328358194026e-01
5.098331406291120027e-01,5.346504318120824939e-01,5.482835047080222290e-01
5.665562388374627556e-01,5.185976894615106358e-01,5.188749736438086346e-01
4.752636212685555916e-01,4.031277170770773965e-01,4.723401493592871980e-01
4.758754326943632762e-01,5.567361142600990576e-01,5.004579144295677740e-01
4.740088961442696647e-01,5.015140835465179414e-01,4.757844796691057532e-01
5.447562538365783302e-01,5.106840639821629280e-01,4.691489745292966029e-01
4.806592198282740869e-01,5.817078859350937048e-01,5.210686355081208809e-01
4.658703323461980128e-01,5.281540941203131112e-01,4.923806219636982506e-01
4.879110852258478626e-01,4.723654785112227361e-01,5.133025513800659745e-01
4.305258052704366567e-01,5.640852066155563893e-01,4.221159603547243733e-01
5.175392056184857648e-01,4.441230295800528416e-01,5.340493530654618626e-01
4.285889966231515857e-01,5.115021390571001803e-01,5.657657688588821898e-01
5.556195119332029142e-01,5.350556373027741675e-01,4.804774979076978925e-01
5.775098476316744556e-01,4.834192304662701112e-01,4.942131474323837037e-01
4.831410473888786417e-01,5.139021618531445235e-01,4.934394157581818430e-01
5.399931613389264973e-01,5.049151012468945376e-01,4.931161604805815446e-01
5.275473055912747178e-01,5.132427670915868934e-01,5.057298067443488643e-01
4.262674946294395251e-01,4.540699734253677566e-01,4.824684262582889516e-01
3.753221993422383163e-01,5.130311018635062004e-01,5.199986264892273446e-01
4.480222385016503495e-01,4.904601534204719449e-01,4.679593837342707063e-01
5.240497737836825598e-01,5.432113305299656192e-01,5.078230950525167708e-01
4.429927271834705471e-01,4.689681699994505681e-01,5.159163654013023681e-01
5.485150509451590661e-01,4.536687025194630074e-01,5.691102898393932685e-01
5.010885439717780443e-01,5.871684888933428326e-01,5.387752423529676982e-01
5.184633886864804531e-01,5.033891894489449514e-01,5.686704750742762604e-01
4.510816996129524692e-01,5.029238412487756493e-01,5.405163867414343182e-01
5.163143706676824873e-01,5.070374142042816112e-01,5.907564558714255565e-01
4.451898972732541426e-01,5.401852826730932922e-01,4.866516807036398440e-01
4.662001784170922702e-01,5.185521259586325371e-01,4.871627851342560378e-01
4.293434793590568677e-01,4.968859588987323272e-01,5.408532620504751254e-01
5.304921272709859359e-01,4.714152648911790200e-01,5.371804385014372629e-01
5.201917900903009206e-01,3.970734947698574269e-01,4.863464428566943720e-01
5.249180967453530577e-01,4.818227632104329361e-01,5.063228194168259977e-01
5.495488987318406515e-01,5.218122907617966932e-01,4.483773263177454615e-01
5.102477079357669032e-01,4.714029484947077075e-01,4.395074170696194882e-01
5.170760229019930598e-01,5.222093509823363400e-01,5.556751130940091876e-01
4.922383459596555433e-01,5.099475745272131766e-01,5.035287472228783257e-01
4.627984143006197981e-01,4.846547564946535047e-01,5.112382662894568996e-01
4.343423762157928580e-01,4.967293395893013219e-01,5.651690021516306839e-01
4.056181758377521707e-01,5.195392864367219810e-01,5.332771001983175330e-01
5.623255079961539948e-01,5.458001205194151773e-01,4.560768050576067822e-01
5.288259933004244573e-01,5.114765099876052989e-01,4.821767704186959436e-01
4.729134049000436324e-01,5.303977472820805561e-01,4.721870059451783730e-01
5.494038093948581114e-01,5.115958828080342524e-01,4.427461986600326749e-01
5.297873634747249927e-01,5.582780826675515229e-01,4.968897549170549488e-01
4.730623107080128009e-01,4.864694106652007188e-01,4.287730190870844282e-01
5.345494133206817322e-01,5.015713723683283831e-01,5.410708196611576648e-01
4.416918497226745566e-01,4.586516352837035071e-01,4.936783898879909538e-01
5.004335368198342682e-01,4.126458837832415738e-01,4.838167563001853355e-01
5.422136128845439496e-01,5.031364000507460021e-01,6.085299764580429649e-01
5.527793705357226806e-01,5.544490205199614774e-01,5.606693660222235032e-01
5.264721306880218998e-01,4.965908278487599081e-01,5.204914004116695248e-01
4.769088539908856172e-01,4.738554187114484284e-01,4.566252594242403151e-01
4.466970560436639426e-01,5.622695574257385864e-01,5.119239299872080373e-01
5.618516325645879217e-01,5.085446579725115823e-01,5.336964681813436417e-01
4.758353826428517452e-01,4.760310644910817346e-01,5.065492858940513488e-01
5.849877798694008701e-01,5.005442646089498515e-01,5.158063029726450699e-01
5.293997926853327707e-01,5.433722286345559205e-01,5.490998140701378594e-01
4.522206887352842042e-01,5.179290935414886388e-01,4.666274443333365829e-01
4.731804812918884995e-01,5.678700344520478671e-01,4.941683967564231561e-01
5.266743580934056812e-01,5.121561986512517262e-01,4.148026738407183944e-01
4.979375032046352567e-01,5.214610935294031746e-01,5.341765980896351351e-01
5.037094590537268823e-01,4.000471435061353498e-01,5.835766002912041728e-01
5.160665093078733445e-01,5.017285782912324077e-01,4.456127781564596657e-01
5.644683701421990829e-01,4.971293932812583249e-01,5.489867877985029621e-01
4.890319851334058443e-01,5.505766076381605201e-01,4.696142931982765778e-01
5.665206240873756904e-01,5.456281023253528595e-01,4.055571695273507138e-01
5.344410246298644251e-01,4.626213076132298374e-01,4.351287415892869381e-01
4.878225839428564914e-01,5.471556294357415862e-01,5.210360327660421564e-01
5.185452966101580241e-01,5.523690725061024542e-01,4.433090316315632107e-01
4.124342696869991998e-01,4.675282631799030364e-01,5.126628833151719578e-01
4.889166262218663239e-01,5.438691690640267140e-01,5.068481672056870391e-01
4.928791611500671355e-01,4.832783405822022038e-01,5.533692783396323422e-01
5.412668777558105049e-01,5.167739424806179205e-01,4.866754022713593586e-01
5.498701887692731827e-01,5.090779673713358155e-01,4.241788085433836897e-01
4.954904407133866040e-01,4.227795682024272916e-01,3.950530638378031978e-01
5.013199517034432340e-01,4.707370499483110593e-01,4.504826396112603937e-01
5.077322641852760610e-01,5.206736291369933323e-01,4.908465946494121046e-01
5.094062579424487591e-01,5.736344750719984953e-01,5.075968492717982672e-01
4.547799164832456720e-01,4.943746553201557870e-01,4.900560255970434764e-01
4.857751533557729262e-01,4.624884623700522002e-01,5.211105472676939021e-01
4.385299177571976847e-01,5.120522178621041975e-01,4.759434742950535147e-01
4.586205398038619152e-01,5.297155972882449104e-01,5.403173329964758853e-01
5.711029651307689692e-01,5.192209227644503100e-01,4.499902099166778191e-01
4.299707672294183491e-01,4.634100376995676784e-01,4.838947233468211540e-01
4.266999598436233554e-01,5.456121533778788280e-01,5.119359383144057585e-01
5.704455763767107834e-01,5.784137801147924973e-01,5.133381647553783012e-01
5.262154021205582843e-01,4.480407213082098772e-01,4.896542375807705350e-01
5.072508484320407129e-01,4.755048374433972214e-01,5.338244556280786757e-01
5.000745619103015294e-01,5.064344097456532356e-01,4.969692183568271138e-01
4.148469224652063803e-01,5.458407223344783343e-01,4.630319701098956631e-01
5.557644668853130021e-01,3.923070300594140858e-01,4.768828099472404158e-01
4.587229219476978148e-01,4.402026089058072578e-01,5.089900149573655108e-01
5.106246645278689211e-01,5.376992452385365162e-01,4.720592856140085614e-01
4.414907502315143506e-01,4.439349163754225391e-01,5.317283230716735032e-01
4.546941703308560734e-01,5.733743312635322109e-01,4.612314292010128436e-01
5.612670504770248536e-01,6.232090790180350171e-01,5.846463638087552317e-01
6.271158174880780978e-01,4.948149620018331696e-01,5.409861595961441560e-01
4.495281857131406822e-01,4.657329300176505371e-01,5.160146136561645225e-01
5.507706355446287949e-01,4.835101534796270029e-01,4.464107872777460240e-01
4.295903154686170344e-01,4.011967226314803736e-01,5.594883531600769455e-01
4.412861058954236637e-01,4.598373327740349348e-01,4.547866001555952442e-01
4.649840198594440976e-01,4.435768092712104038e-01,4.197240749022069228e-01
5.251698430386151362e-01,4.650784122242909158e-01,5.438666255122908133e-01
4.540967942943466840e-01,4.852337520088412792e-01,5.049951662932088414e-01
5.072210250940853982e-01,5.210888767437777958e-01,4.843393614497413235e-01
5.236742065255853840e-01,4.434918358110386816e-01,4.704384587685500052e-01
5.172506997290422515e-01,5.033004345672578150e-01,5.515711141128800676e-01
5.203304767812315657e-01,6.009520961726055877e-01,5.078655252405941400e-01
4.506030355661255205e-01,4.696369875250693826e-01,5.475368387561673211e-01
4.757311445752542833e-01,4.906573652582024159e-01,4.902595250161393414e-01
4.347434460926860034e-01,5.372831198352236992e-01,4.710297039096340010e-01
5.412336521628093866e-01,4.934096078622025039e-01,5.377755718349245262e-01
4.939003479503600857e-01,4.533691350410024024e-01,4.884788266260762790e-01
4.965701336202200666e-01,5.388610067397948677e-01,5.164858112394232759e-01
4.871278470055693255e-01,4.733647631089084595e-01,5.589726779965696890e-01
5.053738885678130677e-01,5.534224427492848708e-01,4.748242626733691907e-01
4.887078308317745479e-01,5.042128023164307304e-01,5.025132766675928231e-01
5.084938663385405455e-01,5.306471698967863970e-01,4.662873754722755004e-01
4.849396457673135763e-01,4.695997159968705037e-01,4.609727817339806522e-01
5.318666880085614057e-01,5.556035003092980595e-01,4.993881827249646022e-01
4.721224384843904498e-01,5.089075093303107034e-01,4.273736728928582695e-01
4.940906526464961535e-01,4.675579837445784093e-01,5.368661467827967604e-01
4.465368778379530390e-01,4.994327871471906932e-01,3.910843881621396956e-01
5.124697520227665670e-01,4.993798437386139377e-01,5.630639613195675963e-01
4.751117560105850290e-01,5.572671378558615718e-01,4.622844833176806278e-01
4.672552274820762630e-01,5.228970479832782958e-01,5.321016565949810984e-01
5.021306020673378390e-01,5.105449355022444458e-01,5.580279461413822917e-01
5.164515706409624762e-01,5.117842517759618737e-01,4.549921961857134045e-01
5.080474533810239723e-01,4.891482883727369391e-01,4.451815629739525604e-01
4.871847776248010020e-01,5.495027901405227233e-01,5.034098219314347977e-01
5.295158799186444609e-01,5.223494510764847831e-01,5.153001602056976882e-01
5.351095630588635910e-01,4.533575375159389909e-01,5.144698662661381094e-01
4.670669161222611443e-01,5.143783059193370866e-01,4.498211704355261076e-01
4.558300982655703049e-01,5.714883353393074295e-01,5.216004615373301956e-01
4.713282724697694381e-01,5.600925239299237024e-01,4.887305552869352088e-01
5.773716831824348139e-01,5.094398914334796746e-01,4.480994671301955501e-01
4.967993333915109999e-01,5.295164264350628036e-01,4.291532908123176226e-01
5.594049610407766382e-01,5.074311914154073788e-01,5.345132856515731890e-01
4.821657064750999311e-01,4.666456633229646433e-01,5.308060041564365283e-01
5.227654106055940053e-01,5.177875839941492586e-01,4.476955534887596122e-01
5.218893264064866644e-01,5.314024659539400286e-01,4.959542194253557801e-01
5.345671540987277925e-01,4.531956364920561864e-01,5.368534841790174594e-01
4.796037688665351073e-01,5.055815387944769812e-01,5.485611871976462384e-01
4.456955594698604473e-01,4.574011939791141068e-01,4.325848543066025398e-01
5.267474270492095156e-01,5.797807117052068415e-01,4.699823447457137648e-01
4.410977058374159210e-01,4.699545788818225156e-01,4.751579653974716266e-01
5.177045893823813971e-01,4.326438988583319323e-01,4.685124470123075979e-01
5.004388548800645653e-01,5.550749271927261086e-01,3.869318909422858055e-01
5.394967521674018940e-01,5.373560205678872270e-01,4.625133380284418005e-01
5.211527716086070683e-01,4.829434651910191612e-01,3.986089614146913207e-01
5.421607553918629252e-01,4.484410196965962214e-01,5.439487411778223258e-01
4.750594654760914026e-01,5.194423598658095553e-01,4.670015950105897984e-01
4.584817113325803661e-01,4.672672896388669894e-01,5.162126528903852041e-01
5.260088441001222748e-01,5.464058632695639739e-01,5.925888288457553665e-01
4.402058697539116827e-01,5.215708638278448994e-01,5.417598901423016367e-01
4.964422728638467341e-01,4.140470488212062983e-01,4.740762203635147665e-01
4.629457276781991371e-01,5.353542264981968613e-01,5.212644530860768288e-01
5.058592047644041578e-01,5.007975677503851974e-01,4.506256764581461627e-01
4.546053320159488265e-01,4.227451356608277755e-01,5.195003683201169231e-01
5.013237481807826246e-01,4.601014102480893708e-01,5.254066856510153372e-01
4.972670844520115097e-01,5.248558659372403179e-01,4.516281453920599764e-01
5.395862607462659222e-01,3.971012735878330924e-01,4.685887568529248925e-01
5.498668297278529460e-01,4.913731382942440606e-01,5.323077075323301433e-01
4.412550851573731614e-01,5.301090413348349406e-01,4.851010095605901573e-01
4.872678709159640187e-01,5.026967166517397612e-01,4.978175355723598594e-01
5.179315851920540670e-01,5.547649790955343496e-01,5.148636786853184599e-01
4.551671680214664506e-01,4.880665528159737199e-01,4.970916808398448961e-01
5.138382143547540748e-01,4.992287392175289717e-01,5.302783236515515863e-01
4.856771485305334535e-01,5.353760814973284043e-01,4.755222016734206858e-01
5.717251737005693002e-01,5.019914152614783909e-01,4.606042463486303973e-01
4.450164367179767488e-01,5.632446380917930373e-01,4.437791859758735691e-01
4.806391319420665886e-01,4.499780833322097329e-01,5.842490586142273790e-01
4.864671115137882418e-01,5.527031101260999613e-01,5.116428355044322362e-01
4.676308436030390814e-01,4.949694330626206451e-01,4.937753625013586167e-01
4.087231627279036550e-01,4.054238527774866041e-01,5.528811046905279802e-01
4.441659439517173791e-01,4.910338226803270256e-01,5.494265412730048315e-01
5.494177639746257169e-01,4.859440279735508517e-01,5.022156577731755611e-01
3.975300962096834367e-01,4.283783455737191770e-01,5.271149507215815433e-01
5.137729220003469655e-01,5.635888126481861660e-01,4.359732131972353653e-01
4.423374676408181605e-01,4.419061869574626988e-01,5.053247603324438897e-01
4.261102254883465390e-01,5.407621783282215988e-01,5.841985059184812146e-01
4.687204482922843196e-01,5.233806346124596498e-01,4.997976652019118227e-01
4.640130470246129346e-01,4.033238814218089163e-01,5.937547392687781977e-01
4.873807096594350852e-01,4.980063391305221132e-01,5.298740400017670771e-01
4.407685463491621269e-01,4.967591085523072603e-01,4.525145667599310140e-01
4.685283422453918600e-01,5.751492201004142490e-01,5.354230757250366679e-01
4.797648902568871221e-01,5.760061909476872355e-01,5.821252668588517976e-01
5.290262839526519434e-01,5.547498625553753948e-01,5.103576529427038544e-01
5.041256838201251256e-01,4.860704754682061979e-01,4.594727024405621529e-01
4.347947527022450465e-01,5.259201221280054295e-01,4.885576448792947057e-01
4.578330502075949049e-01,5.184809163456767234e-01,5.049566895436380376e-01
5.072877824320984885e-01,5.778186758956089797e-01,4.466537715250814000e-01
5.392601509591786746e-01,4.560504498631670622e-01,5.462165986286192654e-01
5.060068216917398276e-01,5.433945913575942699e-01,4.313429867764341230e-01
4.451258770482664495e-01,4.746191192869058662e-01,4.576226328441638236e-01
4.982160080570057215e-01,5.251904313135984381e-01,5.174845468075793820e-01
4.642737269820539914e-01,4.884698755596103559e-01,4.405612965606223175e-01
5.285530220159483372e-01,4.836690286822881157e-01,4.847686876142729973e-01
5.429011599311475145e-01,4.759398214011287820e-01,3.747453584669053206e-01
4.887421972124912917e-01,4.428762583894150784e-01,4.441299597551180423e-01
4.524528976926254220e-01,4.841051706681916422e-01,4.390362724742351008e-01
4.944758501302049525e-01,4.974862003698597990e-01,4.736815264415473736e-01
5.067714581677422725e-01,4.769009357071536948e-01,5.043041229233026224e-01
5.075357502133350796e-01,4.998480624669009442e-01,5.099625056530553424e-01
5.205474446637056163e-01,4.352853122088423121e-01,4.831324083675494485e-01
3.608396946123257898e-01,4.412102732707145480e-01,4.962674231601610919e-01
4.660151722033730182e-01,5.137267331864401321e-01,4.719249582888901395e-01
5.072438888340917718e-01,5.397914884651539014e-01,4.448729543159201660e-01
4.968146073401320528e-01,5.482756531104063802e-01,4.885666541488494774e-01
5.058184854256807528e-01,5.431151454101585951e-01,4.729220337962912746e-01
4.101384330770477815e-01,4.762153675240247686e-01,4.744966215256009034e-01
5.081479053460401518e-01,5.378745974755315684e-01,4.626064436860942708e-01
6.005927420329366662e-01,5.306573843011419545e-01,4.718246156504259381e-01
4.700254872931519112e-01,4.677341099691197379e-01,4.201188200437652731e-01
4.671411796883101486e-01,4.590424884192522148e-01,5.356766341602441361e-01
4.551915380341006179e-01,4.419971903871935948e-01,4.603108985773995965e-01
4.986656128889577766e-01,4.905587351723964540e-01,4.637389698887262601e-01
5.893841320321004940e-01,5.142366571831382682e-01,5.131650470632428407e-01
4.474066339976150442e-01,4.722268063229113078e-01,5.389083908183641691e-01
5.403907327887381706e-01,4.958100251788504220e-01,4.410720471364527606e-01
5.152862423739120734e-01,4.959825217590864699e-01,5.391583773232700993e-01
5.004878637314906786e-01,5.597304297057483780e-01,4.681417032153705193e-01
4.724760918313258284e-01,5.256208667399659973e-01,4.749742748732735942e-01
5.115914290686779387e-01,4.521611771303610805e-01,5.537321701257650330e-01
5.500952258600224631e-01,5.407516596279340337e-01,5.017632146160465600e-01
5.297876932153119389e-01,5.307623293897397732e-01,4.864009957509511928e-01
4.450737940493547096e-01,4.367446120019795597e-01,5.039003017672424312e-01
4.122107727936427657e-01,5.128915016739027388e-01,4.822451131523438073e-01
5.810108378969791598e-01,5.548899708977867995e-01,4.443721250058425554e-01
4.729428699773279288e-01,4.786805691841756749e-01,4.917133860402549961e-01
5.396884396376808724e-01,4.122196562082394711e-01,5.730855305540342171e-01
4.723096085187118987e-01,5.039410016163321515e-01,4.900196790975353545e-01
4.971858099780689932e-01,5.052419176807666501e-01,5.275380495707365780e-01
4.842678524816075858e-01,4.696003029676224516e-01,5.177068935729635113e-01
5.453317191844175849e-01,4.443331422977220835e-01,5.573918607089292099e-01
5.014264628226577925e-01,4.892705776964001441e-01,5.082533459356528560e-01
5.358118148301073136e-01,4.596972753681329849e-01,4.785049900175414872e-01
4.963671098129007753e-01,5.074028617878871827e-01,4.458054532798081948e-01
4.397771048798977400e-01,4.920537738591370114e-01,5.490786332232718836e-01
5.354239508951103010e-01,5.121537077586592046e-01,4.493893699942225761e-01
5.225107533533456250e-01,5.190504473953517772e-01,5.131147183164537218e-01
5.322877211920901130e-01,5.334409237702745221e-01,4.832033837833482059e-01
4.440583614593948125e-01,5.384245334594908172e-01,5.080665350129502933e-01
6.055734253852006477e-01,5.177942980070714407e-01,5.023162014991414681e-01
4.633792062102408682e-01,5.370671613200285188e-01,5.070875211819509953e-01
4.650232009198111416e-01,5.487283459099235872e-01,5.248414926009954407e-01
4.753553024021604512e-01,4.657928604959228336e-01,4.874604030715070091e-01
4.619911097616342666e-01,5.353270780512739968e-01,5.441295015189463458e-01
5.316816988876957861e-01,5.256867878970816754e-01,4.942050754912811206e-01
4.457392434087733557e-01,5.485483026276214424e-01,4.677897114682828539e-01
4.304126682775863966e-01,4.876598876163129037e-01,5.246842818570022215e-01
4.261758115924675905e-01,5.430811724971507104e-01,4.487898150647408602e-01
5.887721884047749654e-01,4.072690769647743791e-01,5.375971516213224888e-01
5.539573347920897506e-01,4.994405953677475973e-01,5.668024881125771630e-01
4.920541669752717118e-01,4.006226658871649970e-01,4.759910208609263171e-01
5.766608407392094238e-01,5.082991710635594851e-01,5.432463713856178211e-01
4.865577615812574086e-01,4.838900602439594190e-01,4.460055412310072187e-01
4.379741234052013099e-01,4.891726355186143405e-01,5.356386417598132388e-01
4.960506030759607721e-01,4.741658466122277149e-01,5.264713160577885187e-01
4.722109374205425980e-01,5.296864005302320821e-01,5.185805478544436298e-01
4.109588677662678879e-01,4.601170857880088616e-01,4.678746413858811404e-01
5.516756201008241600e-01,4.085240511743031266e-01,4.827879121997256107e-01
4.427378976128898969e-01,5.812739143759879656e-01,4.517998961737922370e-01
4.464049947378285199e-01,5.739422042080081221e-01,5.366560549942245295e-01
5.010050517254971414e-01,4.681538783306661844e-01,5.325653582853103751e-01
4.897348140144677231e-01,5.653984422048505820e-01,5.338252397998021204e-01
4.796091212201216702e-01,4.655105337501614371e-01,5.100436196882121020e-01
5.020976033281426831e-01,5.264915850115571283e-01,5.459375099767720396e-01
5.355404838774497911e-01,4.429870390253113910e-01,4.658015433729369437e-01
4.668764969783006369e-01,5.157660099237507678e-01,5.119696329334867402e-01
5.240109361060859561e-01,5.277554387369068900e-01,5.936510221956141642e-01
5.595761880572406310e-01,5.504799028679101536e-01,5.154680370474354900e-01
5.304551346028916203e-01,5.538851389396536318e-01,5.456939805054330517e-01
4.928561399615101202e-01,4.919578492186844620e-01,5.039347553591866369e-01
5.228049186846180918e-01,4.911408333762712353e-01,4.452014153836919008e-01
4.334995218385559457e-01,5.260597172432901480e-01,5.216435205559585286e-01
5.096930949853553106e-01,4.845740924582652154e-01,5.612920789409087119e-01
5.733209130133511966e-01,4.206115770139634558e-01,4.748966712697346160e-01
5.042459724874015503e-01,5.271132681132112419e-01,5.083545942130009987e-01
4.902306465986487893e-01,5.458256864814375886e-01,4.866627642351196714e-01
5.095295001484247965e-01,5.188460504018347352e-01,4.913934799956957145e-01
4.692350602523573944e-01,5.174326537426180428e-01,4.873858385761717926e-01
4.827053858876086956e-01,4.746831830702180066e-01,4.684633970017781368e-01
4.804971206754319324e-01,4.607274849601126210e-01,4.978845680383392480e-01
4.923234743142697045e-01,4.983825245797748327e-01,4.735325068529983583e-01
5.300986647867398371e-01,5.464321541675611904e-01,5.129770075744739533e-01
5.455418629971038325e-01,4.777063325010325601e-01,4.500755040120131834e-01
5.293442649716110227e-01,4.713910208348424113e-01,4.790964446588331649e-01
5.619964095227930612e-01,4.923962194373770473e-01,5.684137935098085848e-01
5.016353226194028014e-01,4.448793647138831742e-01,5.619260224252222713e-01
4.377883949803908492e-01,4.489573015310688309e-01,4.576015586490134179e-01
5.262200298769934559e-01,5.782770113011618252e-01,5.455921786491764180e-01
4.868353573162644832e-01,5.504182269410226036e-01,5.225676992296623968e-01
5.308869552963533245e-01,4.953116678175850662e-01,5.106461692520609663e-01
4.848831030350724824e-01,4.880814499014884400e-01,4.859046321709429850e-01
5.367663835270238826e-01,4.826723097273578067e-01,4.408519195256619394e-01
4.938018651839662931e-01,5.506239183701383544e-01,4.543776724446184634e-01
5.453269951863289888e-01,5.133328889158637054e-01,4.835240365722699996e-01
4.967598085533073138e-01,4.122413817579300699e-01,4.895306654304389937e-01
4.489723701608541173e-01,4.935397467513007452e-01,4.750288560928006554e-01
4.833685227082173408e-01,4.285904403279399144e-01,5.102351666790407858e-01
4.875991234861995482e-01,5.042512542463151171e-01,5.012978132494280148e-01
5.699414589822362487e-01,4.507497221472407389e-01,4.475863634073765640e-01
4.436792879727743943e-01,4.948700258849903499e-01,5.975616075779903724e-01
4.914154853024139680e-01,4.500776704616252233e-01,6.012594019902950393e-01
5.123269726782061495e-01,4.830223909809450711e-01,5.106302246684597534e-01
4.950610395486182980e-01,4.742951041949259872e-01,4.788513152213056956e-01
4.555778631832189118e-01,5.574800127995633847e-01,5.430384467165187967e-01
4.797091837056944308e-01,5.199221093651920089e-01,4.263325235094619914e-01
4.696640840092506930e-01,5.410004734553608419e-01,5.250997219730656473e-01
4.652532075225619956e-01,4.700954151237844436e-01,5.541834972642478707e-01
5.193186636557316493e-01,5.542783374001709618e-01,5.166249259248033576e-01
5.186934694750919839e-01,4.960434755455809253e-01,4.958251864052354296e-01
5.239211416052601544e-01,5.398070744921333874e-01,5.254216054739577757e-01
4.975608032013204562e-01,4.246691968298795250e-01,5.097349188905765383e-01
5.155408684577231782e-01,4.695396267048559391e-01,5.039916379819537884e-01
5.479545193590265040e-01,4.894653085709184115e-01,4.964671530336215444e-01
4.928481080691238803e-01,5.160999847706669863e-01,5.787282453425384166e-01
4.954920389525993563e-01,5.399578159267074406e-01,4.568750365345893294e-01
5.222421448622697193e-01,4.806479989694433241e-01,5.326940865751086385e-01
5.155084440924622147e-01,5.524303637660568089e-01,4.975420056173240901e-01
4.853370943113709535e-01,4.726484204986085569e-01,5.247370329197542649e-01
4.913619964178044808e-01,5.370509978566321285e-01,5.214091881086404534e-01
4.881259583369381150e-01,5.291937245063542683e-01,5.675517311217531669e-01
4.431351350234232211e-01,5.024756531490740530e-01,5.046180318835611356e-01
4.627137090733218772e-01,5.633121012416950624e-01,5.032801065192160639e-01
5.197851955666598078e-01,4.352281564241657907e-01,5.470454960551521806e-01
4.783031376215332031e-01,5.077826452469054175e-01,5.377950726116228486e-01
5.477623888617704218e-01,5.686522765019423886e-01,4.634126336119692713e-01
4.488844562154183371e-01,4.883241123064746558e-01,5.270954476214813056e-01
4.865425631587924071e-01,4.788611498767754715e-01,5.045030023785280759e-01
5.348470732866387189e-01,5.380867521588155178e-01,3.985789926970673691e-01
5.479107508041027863e-01,4.004565006087202894e-01,5.108991782628484746e-01
4.733861001188812145e-01,4.155965280631076508e-01,5.056121314508337239e-01
4.829408792738224543e-01,4.959391870608569342e-01,4.942083929364253225e-01
5.439590912162567404e-01,4.769466925620771680e-01,4.581306406578149470e-01
4.809716828308047143e-01,4.393665584162281812e-01,4.810932123074103672e-01
4.671707064963590561e-01,4.241391975682091697e-01,4.522849199160022260e-01
4.449746238625429395e-01,4.226635588387049891e-01,5.259015958639546851e-01
4.511826298785894251e-01,4.282243638923839968e-01,5.041633460599639349e-01
5.126524489763574222e-01,4.893949393087578814e-01,4.122824284966079000e-01
4.737784528261637651e-01,4.955807304285914650e-01,5.465249321662349891e-01
4.720916212199370299e-01,4.986385674327183382e-01,4.599267545793719880e-01
5.297199594554615754e-01,4.555860970900111884e-01,4.117716720920960305e-01
4.558024229361383739e-01,4.954310546567685103e-01,5.376828497401814344e-01
4.938411659696222977e-01,4.529611013183051926e-01,5.174726203270988423e-01
4.959039160157661663e-01,4.842691826503150998e-01,5.186906597178667644e-01
5.143251669421199379e-01,4.575380215192429989e-01,4.798183768149865136e-01
4.395316699133670069e-01,5.174633454512519437e-01,4.966063484076406742e-01
4.796852936004034618e-01,5.378508331188313063e-01,5.143750433647636955e-01
4.623801007660163220e-01,4.110038148409317915e-01,4.903813899010212585e-01
4.881503094466281834e-01,5.020377486518279309e-01,5.232978299946279277e-01
4.558569817731747409e-01,5.253770895876108682e-01,4.998023160570169154e-01
5.129381250350331101e-01,4.843271759084694650e-01,5.431252078441892728e-01
4.682684991866252200e-01,5.224078429335653473e-01,5.143032450394208199e-01
5.314768689991496986e-01,4.844621133886203856e-01,4.895605953813918498e-01
5.158162267226258368e-01,5.089903156979116439e-01,4.851562670820279144e-01
5.156502142897466667e-01,5.172554779120699386e-01,4.860704176937648557e-01
4.950661658436267820e-01,4.886535676732123856e-01,5.137222072258121885e-01
4.579051933631135829e-01,5.226064687916479601e-01,5.129503349372157572e-01
5.761710087273754777e-01,4.820451236773056203e-01,4.940513799055157862e-01
4.447852279521749552e-01,5.377863133561093800e-01,4.971510977394615338e-01
4.990130502354735431e-01,5.348319847578483222e-01,5.307480546478174910e-01
5.551916637354759043e-01,5.087362288992480774e-01,5.006016437159874766e-01
5.127088655777671811e-01,5.511748000241794010e-01,5.327528272654860064e-01
4.871031047979543782e-01,5.765843774279835188e-01,5.258615136722809558e-01
4.566642547607617231e-01,5.710666722228534553e-01,5.391382160417006464e-01
4.707909380547447564e-01,4.895048404573025813e-01,4.982024581072396763e-01
4.279437588767336931e-01,4.922620056270056166e-01,4.307292881372308813e-01
4.990055441649110524e-01,5.168442890148957636e-01,4.816645110282273823e-01
4.822799197964197648e-01,5.632439152095182200e-01,4.852512201054094421e-01
5.143443625559281918e-01,4.511186946286149246e-01,4.582349500940222642e-01
5.118926404550979692e-01,5.126605971740808565e-01,5.404341830538466063e-01
5.043897711277841589e-01,4.923210393389681472e-01,5.244290887341113150e-01
4.962984731306378516e-01,5.263082357947185264e-01,5.129991470518387997e-01
4.942605024219414722e-01,5.263071041251022875e-01,4.991771665501546495e-01
5.580011258244869099e-01,5.295540156781114449e-01,5.142139469958723064e-01
4.595616018035056372e-01,5.231917679199011850e-01,4.639516894392178847e-01
4.976556914197965975e-01,4.445163065390417279e-01,4.953008555393578760e-01
5.224638730478777804e-01,4.814547633005242799e-01,5.137070704961959056e-01
5.727773433437081119e-01,4.627530619352416830e-01,5.190680750150713507e-01
4.888285567406380205e-01,4.512745016461246483e-01,4.961282924167609298e-01
5.845411463617414816e-01,4.273936692113636804e-01,5.892801935268372482e-01
4.868556939957605079e-01,4.864536186113915806e-01,5.527358853319018772e-01
4.969613666392388440e-01,4.756504783131405012e-01,5.073507889935044979e-01
4.815948582521352717e-01,5.250010922165320171e-01,4.508713804811563808e-01
4.592545419938972029e-01,5.070803917603905475e-01,4.263435367379194152e-01
4.449126660973694025e-01,4.537562485831756476e-01,4.497208855879791245e-01
4.713624907163353472e-01,5.531163674236780903e-01,4.566616865176353901e-01
4.613461819761796034e-01,4.688859857355021643e-01,4.982197145934550986e-01
5.323716376069057565e-01,5.049019120249442771e-01,5.113405806071300574e-01
5.534024875277692157e-01,5.163135098034918880e-01,5.888811893878539427e-01
4.128066412669406660e-01,4.506627472010888980e-01,5.519819272185306769e-01
5.533405381463561978e-01,4.147218634590711384e-01,4.608708712380856776e-01
5.127903350141720384e-01,4.962890578206312076e-01,4.607653020491858653e-01
5.351485366696689949e-01,5.560757467123279563e-01,4.712951631763481197e-01
5.223924247289927214e-01,4.754472544155977642e-01,4.872295317895621314e-01
5.042973766176510608e-01,4.324125406280827089e-01,5.381753518675391756e-01
5.238101494805410541e-01,4.661634111136432335e-01,5.210339963807661956e-01
5.119455760691984381e-01,5.251320221060150617e-01,4.257946535588738590e-01
5.080888834800248999e-01,5.800988894919656413e-01,4.753267851343533357e-01
5.263294988520506035e-01,5.294819482586139436e-01,5.075437831959993540e-01
4.526428705907598604e-01,5.330234953280491572e-01,5.667806098333555420e-01
4.751765667253997627e-01,4.067830710396649896e-01,5.368828604508331104e-01
5.405056552991063246e-01,4.716944044329592911e-01,5.209996226191839774e-01
4.555008189718449119e-01,4.628212737661911991e-01,5.751885518619076487e-01
5.068480172077431956e-01,4.609344820031227585e-01,4.593554944098562909e-01
4.779823405484132648e-01,4.716111790604270437e-01,5.153675026609478849e-01
4.012778385497244860e-01,4.794311091585951590e-01,4.975691353605797285e-01
5.201820532836070043e-01,4.837491923469204314e-01,5.074748550332220942e-01
5.076073102315473706e-01,5.533609319810659510e-01,4.908934040135261578e-01
5.188346458517484328e-01,4.937629994754493268e-01,4.793223041571269549e-01
5.477040410561017092e-01,5.618028619705704996e-01,5.296442776199138391e-01
5.029054328456060707e-01,4.869950158983641919e-01,4.751931174344757869e-01
5.372546600444065845e-01,5.162616871124545703e-01,5.518075466329874779e-01
4.851832308771295010e-01,5.293482639219363461e-01,4.164788348799564055e-01
4.995910965106540869e-01,4.331280165845562413e-01,5.275690971934787754e-01
4.545368082364634743e-01,5.040941320189892272e-01,5.376142007898770947e-01
5.271356007718019931e-01,4.463956228789395242e-01,5.191971261216388189e-01
5.128964046416597533e-01,5.242549283422435202e-01,5.212342164368699571e-01
4.985921453788150770e-01,4.690261848275834589e-01,4.242638484014034650e-01
4.984552986888577397e-01,4.767982038114790266e-01,4.969726729537065624e-01
4.828348856879137729e-01,5.403101798843942261e-01,4.384624716761100216e-01
4.613074209085318844e-01,4.646587257172871133e-01,5.821495018717889325e-01
4.748718556232587318e-01,5.035332488571948595e-01,5.146623622150442445e-01
4.624259005149184976e-01,4.937371669855846190e-01,5.635343265029203463e-01
4.918548210475427451e-01,5.136031710691465468e-01,5.470564234504412537e-01
5.050921599952409302e-01,4.126826152298899153e-01,4.912813253890827014e-01
4.382607996473064649e-01,4.961963679949437100e-01,4.982830539559249816e-01
5.724695622287008234e-01,5.384589763191222067e-01,4.654979918618408208e-01
5.488282132586583817e-01,4.991627948324074970e-01,5.320490511138741274e-01
4.912589417238020784e-01,4.948900353306996958e-01,4.509979533877393476e-01
4.334308782988501862e-01,6.105420548480502418e-01,4.816353858474000105e-01
4.997366069676498768e-01,5.192941669982311659e-01,4.777944334257691050e-01
5.143666773141588600e-01,4.550705029303439009e-01,5.721063458911623822e-01
5.383352714974841691e-01,5.337588436936753222e-01,5.065247976236765259e-01
5.247939455413620502e-01,5.174765465656309127e-01,4.874211740062320275e-01
5.303021416369181340e-01,5.158777456694937369e-01,5.053189148239659589e-01
4.823411641437126973e-01,5.460014788091535065e-01,4.909165233106517756e-01
5.141327114777752838e-01,4.971574916065075733e-01,5.243899974478163362e-01
5.029939415545129355e-01,4.337957218921342228e-01,5.209630074118535292e-01
5.732103717945912225e-01,4.879087934523537728e-01,4.846902093712213144e-01
4.846925355494571819e-01,4.384676641258771768e-01,6.076884854375177447e-01
4.785394253886854909e-01,5.437157558343540531e-01,4.556766771740426991e-01
5.027719869867365299e-01,5.623019352183188380e-01,5.350672974881689470e-01
5.003234999115602211e-01,5.088560736108913574e-01,5.309179437804781854e-01
5.599335914284350180e-01,5.236052186860155055e-01,4.742986841106716644e-01
5.073820207780439517e-01,5.001058725328115795e-01,5.755854705081816514e-01
5.071532494271870917e-01,5.246212073573580659e-01,4.564650530499249070e-01
5.593947311061119310e-01,5.255674012013533680e-01,5.861801332123648400e-01
4.999093280321608157e-01,4.806247248583234710e-01,4.950118573596796190e-01
5.282307858781075671e-01,4.948200058893902353e-01,5.498227578383826364e-01
4.504046846624678024e-01,4.942237523062629756e-01,4.860608590405207652e-01
4.817075041731044283e-01,5.280529232379850280e-01,5.267231719971428028e-01
4.888513842431024825e-01,4.239022467503951175e-01,5.111115065621825160e-01
4.387663917833259375e-01,4.775020694877172289e-01,5.319623968507904976e-01
5.572905840085197182e-01,4.908207270864774485e-01,4.653396623694636691e-01
5.323272619794803262e-01,5.261922822962173951e-01,5.123495557272451650e-01
4.421981128850988041e-01,4.938498006972078525e-01,4.308753098933719716e-01
4.980546260866058339e-01,5.051941493012389595e-01,5.144719114033858842e-01
4.554782841760602330e-01,5.218696508502334019e-01,4.651324167215101779e-01
5.698819829557477679e-01,5.075586070419957352e-01,5.192481273129024855e-01
5.428800475686252902e-01,5.024685684423151333e-01,4.688702712134787953e-01
4.870749348985234373e-01,5.355279427425202465e-01,5.031864425828929122e-01
5.312106797035588412e-01,5.602018126594445757e-01,5.246552083757286544e-01
5.837754042506551055e-01,4.720984192034873850e-01,4.534841652982889992e-01
4.944643262009900675e-01,5.000718730239683829e-01,5.127293831137866853e-01
5.144234573093547924e-01,5.214354485480656720e-01,4.762340134161935357e-01
5.538417534735531333e-01,4.985291473521841210e-01,5.042418289170274015e-01
4.961730761076619811e-01,4.773801589358393493e-01,6.096891956448293737e-01
5.116293723396643234e-01,4.726944185544896815e-01,5.580756107795472598e-01
6.011979688664986776e-01,4.498589009933693927e-01,5.085478394939108027e-01
5.363146355157176748e-01,5.118141698776466075e-01,5.503404567682239623e-01
5.293043159200827574e-01,5.170789367542713011e-01,4.919544245923687664e-01
5.177709095656773952e-01,4.976201735984142061e-01,5.120818178131295584e-01
5.090226293732377227e-01,5.177624169700913992e-01,4.673906512473904873e-01
4.999164785477979156e-01,5.470987809544219926e-01,4.426963872002604439e-01
4.924533711019725146e-01,4.680063748902413279e-01,4.987163292767171630e-01
5.195120286797411113e-01,4.788195526709427829e-01,4.592581007524385583e-01
4.741571647792366395e-01,4.535330311648653745e-01,5.221543809615208920e-01
4.642615286091164029e-01,4.537642758120847275e-01,4.594682736369868903e-01
4.946063325793759735e-01,5.353943958446998330e-01,5.329249592274256653e-01
5.133135574569767101e-01,5.075664049334134287e-01,4.396636892735214519e-01
4.567501256956756905e-01,4.863297442386318448e-01,5.297996281530620299e-01
4.950529741758651348e-01,4.767316202386866486e-01,4.840959441276019293e-01
5.343808653578296930e-01,4.283480242333262411e-01,5.252577907711645233e-01
4.839455014702870872e-01,5.021910085181257033e-01,5.925318167927959845e-01
5.183092063755003753e-01,4.852027684271008612e-01,5.234504718527506206e-01
5.392762292143795655e-01,5.546313985280640901e-01,5.101482062149987895e-01
4.522213858410888410e-01,5.590074638326124612e-01,4.738636739397320552e-01
5.516717327807191262e-01,5.230735569583877531e-01,4.903124111636514848e-01
5.205992284692794181e-01,5.349385040927375767e-01,5.855535322357003913e-01
4.798402830188119861e-01,5.120396203996034901e-01,5.101244249177300238e-01
4.719881301541943297e-01,4.723097573585255393e-01,4.925951859292124757e-01
4.498270538344382730e-01,4.420142068842897176e-01,5.026757025132493339e-01
4.917175629117259139e-01,4.140191044332355852e-01,5.057921856114564463e-01
4.400149511921588874e-01,4.423924200016675634e-01,5.656662825336894462e-01
5.186920029723368630e-01,4.677838876671040480e-01,5.417881384081632001e-01
5.660110942954944546e-01,5.132549394690595346e-01,4.967436420849380418e-01
4.471928269005339684e-01,4.629932559807862780e-01,4.643261023756347639e-01
5.022008533126041119e-01,5.040808658024915623e-01,5.144604416731661800e-01
5.562339512379690376e-01,5.633130983228078481e-01,4.090130972526259123e-01
5.728558897428938090e-01,4.572379428724831496e-01,5.046275894124172545e-01
4.828631076095145636e-01,4.311697716350166298e-01,4.766529769158281415e-01
4.821437172470430799e-01,5.600169653462825359e-01,4.992605854490482775e-01
4.465764796276183168e-01,4.995303487263462738e-01,4.469538593928336079e-01
5.212652063266116631e-01,4.976343333875229424e-01,4.806943312905269661e-01
4.999781340879208558e-01,4.616085072609318329e-01,5.090507015981531325e-01
5.248887564483635249e-01,4.653795065297467448e-01,5.152857191230568734e-01
5.262563184863821020e-01,5.556609601785781338e-01,4.879585749185606502e-01
4.414031120232388972e-01,4.726143187988112171e-01,4.621869541396524950e-01
5.332379496046635303e-01,4.864505671570568679e-01,4.897201633284826161e-01
4.892473011154228058e-01,4.734654698450150301e-01,5.725860164572034172e-01
4.872862176351993035e-01,4.393974332255367599e-01,5.226983798851881913e-01
4.380156136174230275e-01,5.533156245595601819e-01,4.926075361235944805e-01
4.762112226273516047e-01,5.636886798834690460e-01,5.152640899359406390e-01
4.863810815498543771e-01,5.524229320391409459e-01,4.947900203657402685e-01
5.728059279561592554e-01,5.653832327374754829e-01,5.026921890803742743e-01
4.842443713239255598e-01,5.872702137857932492e-01,4.404600430062903249e-01
4.898626659419692553e-01,5.122752009490458835e-01,5.359761063630923417e-01
5.434801260883455054e-01,4.978840012737318355e-01,4.934110831362339411e-01
5.235283658284851649e-01,4.638127390573827391e-01,4.199371164886421259e-01
5.647340274607046684e-01,5.103037382412076717e-01,5.015845588462057858e-01
4.878366426428966673e-01,4.819620967483597140e-01,4.562095447837390960e-01
4.989515387216193476e-01,5.247063583673470255e-01,4.593469907252287765e-01
5.585565111709466235e-01,4.666977635366489907e-01,5.207822120239216090e-01
4.960207004863438351e-01,5.266218640731242795e-01,4.441901337249836712e-01
5.177612407837178798e-01,4.683085855179396351e-01,5.436435056345222394e-01
5.215183741803655071e-01,5.099635527951735803e-01,5.275069597607587868e-01
5.505283665773931245e-01,5.892578854235467345e-01,5.013720835039766621e-01
5.432812407025652268e-01,5.254267237052069328e-01,4.972798460841100221e-01
4.670259768114896071e-01,5.433414176584961952e-01,5.016697596204922061e-01
4.203607893073290080e-01,5.096294842858219987e-01,4.561618494154123793e-01
4.961954482369239083e-01,4.976775180050860281e-01,5.516808847218827028e-01
4.988349007490389120e-01,5.120731135869328599e-01,4.555411771506018836e-01
4.172079747203708000e-01,5.805279963561514878e-01,5.009132733416774563e-01
5.205420448339048711e-01,5.385775238547773069e-01,5.189383841004264752e-01
5.277760976646543867e-01,5.555780013885462942e-01,5.135065691853741843e-01
4.781083890417606175e-01,4.887627748483001633e-01,4.828478874995134063e-01
4.919974783415311803e-01,5.163322643640111398e-01,4.993368914057581542e-01
4.646373226999161998e-01,5.461170841598358416e-01,5.281974230223822619e-01
5.483035459706872006e-01,6.156297478237324761e-01,5.404632203724576422e-01
5.111794108561464878e-01,5.138320988280008494e-01,4.634029569524260039e-01
4.878649398204697452e-01,5.073278936748738532e-01,5.221117251067127762e-01
5.390363801775294172e-01,5.071809168951355584e-01,4.044074062092190003e-01
4.744601668305624131e-01,4.696220923284606386e-01,5.210247207538861725e-01
5.341652179760866259e-01,5.027623762229517235e-01,4.847981508030849152e-01
5.251559636491099914e-01,5.054767699913865764e-01,4.509827993982679639e-01
4.582554755327130080e-01,4.959045053293975602e-01,4.268280584340535810e-01
5.210042168289573672e-01,4.854953986285879819e-01,4.583769472507309151e-01
5.303312940401400111e-01,4.969195360892612046e-01,5.164457145773510005e-01
4.579613183173197322e-01,5.158021344771286376e-01,5.387649402238954277e-01
4.954729605792025926e-01,5.038462240879573173e-01,4.691002334679970076e-01
5.375173074974248788e-01,5.142936471783681185e-01,4.987902521258955058e-01
4.731071416492594883e-01,4.805463849011388233e-01,4.545686460500721338e-01
5.496687154474961812e-01,4.586710699523675050e-01,5.413463207615578643e-01
5.226956039718899660e-01,4.850047623870131774e-01,4.355056980035864611e-01
4.443487087063846541e-01,4.351257223437082211e-01,5.312113842999863778e-01
4.659158166107120191e-01,5.398917388362686198e-01,5.404033646488932696e-01
4.837688992424417633e-01,4.818808252977374584e-01,5.214297174756022946e-01
5.147931605291363732e-01,4.332297720880045055e-01,5.158532010360297182e-01
5.136445403534023457e-01,5.204787022794539197e-01,4.578061564878671552e-01
4.604433698290359422e-01,4.709615927219697462e-01,5.100825802060034997e-01
4.783426905952890551e-01,5.120933752928528149e-01,4.971157315483814010e-01
5.108154136079048335e-01,4.502590280786993304e-01,4.144388664425340263e-01
5.152938894166660955e-01,5.163862610464894365e-01,5.296870444622765461e-01
4.610074172617318888e-01,5.241681237634834289e-01,4.908627763176440228e-01
5.721547035220208022e-01,4.780228482291000169e-01,4.889528799253556879e-01
4.917561370687376088e-01,5.102792241377462901e-01,5.113363762777328736e-01
5.456258289528411742e-01,4.353917309706260563e-01,5.640404782155377106e-01
5.537109849161745423e-01,4.613501794495276087e-01,5.792705363619202741e-01
4.833663403744912213e-01,5.690059928038585513e-01,3.748714614034328596e-01
4.957226042136950728e-01,5.058377508211596707e-01,5.108210438378198992e-01
5.062481966883110029e-01,5.478756075296703498e-01,4.885920203515825566e-01
5.411834529869326005e-01,4.521297100697110327e-01,5.084585439938237306e-01
4.963416857009573246e-01,4.894775254584228796e-01,5.518840219376939249e-01
4.874214139678894053e-01,4.825156550036961423e-01,4.807251173211275486e-01
5.426365903195646823e-01,5.157078923526103864e-01,5.147171581915032101e-01
5.000504177251564597e-01,5.080404994630428606e-01,5.634852192305416230e-01
4.947554212250497296e-01,4.900745916504918864e-01,4.699900896876395007e-01
5.826295224352543434e-01,5.475787567909947695e-01,5.899819981567738791e-01
4.930947831426399919e-01,5.049162402332221244e-01,5.843770703488359031e-01
4.906453795168155829e-01,5.254099392813914582e-01,5.072683591170161765e-01
5.699349042311815383e-01,5.385394696141134752e-01,5.067716531346323494e-01
4.179886303691773830e-01,5.272973022568718804e-01,5.052064313810145091e-01
4.768249130666214475e-01,4.702830039567152953e-01,4.827713470039613486e-01
5.345822725363936767e-01,5.466290705909567782e-01,5.228543964081467932e-01
5.681084795531693432e-01,4.783927004111356851e-01,4.140190391346080245e-01
5.481299325750914608e-01,4.558797081717267941e-01,4.691657493987391736e-01
4.415137029774965916e-01,5.075421750725678249e-01,5.288790885739109715e-01
5.098402369200332185e-01,4.694593132158187410e-01,5.497738206604031452e-01
5.505259446490764486e-01,5.822840987335788920e-01,5.868047254495197818e-01
4.859590423045793139e-01,5.331010156622897345e-01,5.027550677474907914e-01
4.938519347206161703e-01,5.015437727689057157e-01,4.876985798669750682e-01
5.392796549384319960e-01,5.370733956693021227e-01,6.204272122382448185e-01
4.506531648573995907e-01,5.567584711295602284e-01,5.437137002820089382e-01
5.070093786316204332e-01,5.427582763124331189e-01,5.108331203266223142e-01
4.769651163832273055e-01,4.466115299239304393e-01,5.528042317723804722e-01
5.131637337817821498e-01,5.537482824420510985e-01,4.811677341802135244e-01
4.579293085680720132e-01,5.512762616469308874e-01,5.085676173943463052e-01
4.373830678024931973e-01,5.521447743844916101e-01,4.478180722236294597e-01
4.820815289093784983e-01,4.837118138245197208e-01,5.067940880336782028e-01
5.415978729811847803e-01,4.454973685229469127e-01,4.947791109134938026e-01
5.114620050733079681e-01,4.807269172610895702e-01,4.199828368307373383e-01
5.166114563719682584e-01,5.321311348090029814e-01,5.388673716276464187e-01
4.841422074954109256e-01,5.663925326079192191e-01,4.419667734560841499e-01
4.840614611899693442e-01,5.064867193789702737e-01,5.045070273351496271e-01
4.325286099060151046e-01,4.142274998571301436e-01,4.765936674594155598e-01
5.458523882094185042e-01,4.821174530821104032e-01,5.034776623810350848e-01
5.141390458062056190e-01,4.686132554642556958e-01,4.816446511802429664e-01
5.307935382658960366e-01,5.039968717130719478e-01,6.115816279647383613e-01
5.025926541082393895e-01,4.645370356195241968e-01,4.924013164116523567e-01
5.701126882670263241e-01,5.582466989621314157e-01,5.163326285218191591e-01
4.507614900448428941e-01,4.740340425431515681e-01,4.688680553628776781e-01
4.649094980391770826e-01,5.095381916241826792e-01,4.475613432272648184e-01
5.458761896361660204e-01,5.040976540244800352e-01,5.069670814424661609e-01
4.887299694147200779e-01,4.854351294790018589e-01,5.236014471490051392e-01
5.239257590790648011e-01,5.589817126355653976e-01,4.546034567949545635e-01
5.345075354976226434e-01,5.043015030572048918e-01,4.414867473958648536e-01
5.035117410918328318e-01,4.643023037020194144e-01,5.015234394554179964e-01
4.876625922943321756e-01,5.108776769496001791e-01,4.514247434650421331e-01
5.207461478478639938e-01,5.398592411145169967e-01,4.543031569146411819e-01
5.515513521251951268e-01,5.505020134529843290e-01,4.591430990662320188e-01
4.502256942746463153e-01,5.301914071451810928e-01,5.074598032996705532e-01
5.109617447803284085e-01,5.272727663266526532e-01,5.004400922425534803e-01
4.683508934854813122e-01,4.717596933640020307e-01,4.724252258056184095e-01
4.380101075036273439e-01,4.678891868396033438e-01,4.974762942689718304e-01
5.130922692673273167e-01,4.686772116995763238e-01,4.219218706550102449e-01
5.106949373264325631e-01,4.971670392583369957e-01,5.183874980506271157e-01
5.040494356287046340e-01,5.290624682130129486e-01,5.204308318959329771e-01
4.804855313479340362e-01,5.179500667730742025e-01,4.399308724153872530e-01
5.043941197099885976e-01,4.829527527194103498e-01,4.688780472879784944e-01
5.195947023714645452e-01,4.877636934940889346e-01,4.352211250479556814e-01
4.795057857338216323e-01,5.700915583879527793e-01,4.925917739026866027e-01
5.309803494914819844e-01,4.753571543775766406e-01,5.484321692375186963e-01
4.575607928125076662e-01,4.232437347708336017e-01,5.555428699730071695e-01
4.870776495547722851e-01,5.150953026611888586e-01,4.701162852869945619e-01
4.864204150696876394e-01,4.846289142311798193e-01,4.740952879465376579e-01
4.763098272396848465e-01,4.634584838757501712e-01,5.441211943714526766e-01
4.930798639459738064e-01,5.010689074675470644e-01,5.181435171756683111e-01
4.178597949327306216e-01,5.097145115326439102e-01,5.293420220321215508e-01
5.056068677684830703e-01,4.662577985572348704e-01,5.888193830759902436e-01
5.241951360855104936e-01,4.692995258814499082e-01,5.244780943060015632e-01
5.066068627932283075e-01,5.077755822683417408e-01,4.616690711477430265e-01
4.356698192879572828e-01,4.805934576714784856e-01,4.957013036086239111e-01
4.758028360745166774e-01,5.559363288118180924e-01,5.308065974261467757e-01
5.552725726552972807e-01,4.803464677123623905e-01,4.718925481253911092e-01
4.800885999806874249e-01,4.824912520400075899e-01,4.705206145454206568e-01
5.430978149534829713e-01,5.414759012758090240e-01,4.970906211243382722e-01
5.089032830620061620e-01,4.468713041007091880e-01,4.537259421544496685e-01
4.754962838893094235e-01,5.007778570432606102e-01,4.793245602867008404e-01
5.234115249476796183e-01,5.754138150188136125e-01,4.674001369498575476e-01
5.061217370044732711e-01,4.203785505613851226e-01,5.574681876715524842e-01
5.508448065467054233e-01,4.494730512739605888e-01,4.140396365793441169e-01
5.243799013685597199e-01,5.242461205398993851e-01,4.333945854196982750e-01
4.506148801705499585e-01,5.176842568891791840e-01,4.157220346585928095e-01
4.972284633725264635e-01,4.823175564541608562e-01,5.830952939018012593e-01
5.077348071008269681e-01,5.743569302268943799e-01,4.396851447158465764e-01
4.965054852829662857e-01,5.303193792301247322e-01,4.911337031396682540e-01
4.980179598206100899e-01,5.102538184775271546e-01,4.836429929061433763e-01
4.962758939606754516e-01,5.197204057782957021e-01,4.978316316397706220e-01
4.832645661749922494e-01,5.157414879983041045e-01,5.017765744073685585e-01
5.355654614783997847e-01,5.144194368276338025e-01,5.281632295149465417e-01
5.664926901012090621e-01,4.554233598413718331e-01,5.109929106436745805e-01
5.067323143155777476e-01,5.040351529255141516e-01,5.534540198635402586e-01
4.840234582722405254e-01,4.738959053043894643e-01,4.201220921328646107e-01
4.662839093833617277e-01,5.205128436132655523e-01,4.273981240142485927e-01
5.502532470031985534e-01,5.386935977695828104e-01,4.624371347390698883e-01
4.448498533974403757e-01,4.550227611601842526e-01,4.721296667694011573e-01
5.045318374316679622e-01,5.050123233887360286e-01,4.756201703378997725e-01
5.388476418653341815e-01,5.547768189722322996e-01,5.078573615597847812e-01
5.233054992045563791e-01,5.090530066461692593e-01,5.750132557972522651e-01
5.189692332005050313e-01,5.385853226776677882e-01,5.867011142334900287e-01
4.804512101718133033e-01,5.178721945417882333e-01,5.575930778923189335e-01
4.412357398168415545e-01,4.832211381369863612e-01,4.820229750622058162e-01
5.359388003203821027e-01,4.688671726048987409e-01,5.824073768456135003e-01
4.753999119482852365e-01,5.624874307481061431e-01,4.805798978254047227e-01
4.625656546497888266e-01,4.791201235013001214e-01,5.319752560266292063e-01
5.011070116943714403e-01,4.977542019379127547e-01,5.495488994020395479e-01
5.393535679071821409e-01,4.749943892858293215e-01,5.507108675428912248e-01
5.254953308107997989e-01,5.453552089860372876e-01,4.476297785818969532e-01
5.578419421428382208e-01,4.847663831648207355e-01,5.726308982883536736e-01
4.680371501221235464e-01,5.008006338592588813e-01,4.493950282301458765e-01
5.615040021074283461e-01,4.173271957609636651e-01,5.173353897478812913e-01
4.413056846451663962e-01,4.590676650663998437e-01,4.800263316372827549e-01
5.497223164301847653e-01,4.522225243047636178e-01,4.896343016635664180e-01
6.033496543920048305e-01,4.564058180289928823e-01,5.690893788741437920e-01
6.127584309940724561e-01,4.412375130911907473e-01,5.334641170452476544e-01
4.151322321460553244e-01,3.980330215049123210e-01,5.909286314061231726e-01
5.241617672286548180e-01,5.183602783273638659e-01,5.169653319165516958e-01
4.891289257693096637e-01,5.450357055513473936e-01,4.439231423754956829e-01
5.440750091788854048e-01,5.077600303589214770e-01,4.881691148997802654e-01
4.565324675894918971e-01,4.903681912684531574e-01,4.750440238195873799e-01
5.171999079837930058e-01,4.615913205449235779e-01,5.180386860620320721e-01
5.492524759719839000e-01,4.936955087266646780e-01,4.991721060769284124e-01
4.982432284525392108e-01,5.431015505804316357e-01,5.536248594115659172e-01
5.072193494386418866e-01,5.032832608206713187e-01,5.112524949061865165e-01
5.681302209757466137e-01,5.223174813167407171e-01,5.365197600375142262e-01
4.488883972753749951e-01,5.249097764944167244e-01,4.895755209586546974e-01
4.891873640192476169e-01,4.735042618325571717e-01,4.865721371570100318e-01
4.065203941812332022e-01,5.584927951492535403e-01,5.191713858708340013e-01
4.720086975343463775e-01,5.795490367652236241e-01,5.698650130377101997e-01
5.397847701943481180e-01,4.562181960118834034e-01,4.862376012493391797e-01
4.599737081069101285e-01,5.745175116992056186e-01,4.619525091374221959e-01
4.960567052652991027e-01,5.199381788815721217e-01,5.277217283460419184e-01
4.767203044589136129e-01,4.833371512497845468e-01,5.956533280621773008e-01
5.279745495371023223e-01,5.125922180252051596e-01,4.809558636706195989e-01
4.260007100223452414e-01,4.522501058754984649e-01,5.380011019268827743e-01
4.724650634418571804e-01,4.099966161670748344e-01,4.831997038691308588e-01
4.878514940429970470e-01,5.666967346048391585e-01,5.349137335518449055e-01
5.276384055767947556e-01,4.840855370863419993e-01,5.179141975591087244e-01
3.949712533806662984e-01,4.846308779054838145e-01,4.504749941023265536e-01
4.561195413044559221e-01,5.259815577440206669e-01,4.454988563649983635e-01
5.316366757927011300e-01,5.457146130635379677e-01,5.326239344171208590e-01
5.289092233538155163e-01,4.979980502987092494e-01,4.803765808618643551e-01
4.387528549969857972e-01,4.873945586169322053e-01,5.514389463387728840e-01
4.644475547552772143e-01,5.651882514051339568e-01,5.226004382856558328e-01
4.653918044576739743e-01,4.523901839639387634e-01,5.755165150340839642e-01
4.826821968831421228e-01,5.072643672103385182e-01,5.073562028036262550e-01
4.995231602430306173e-01,5.054206675052775877e-01,4.582625223187462571e-01
4.737647440724299108e-01,4.729134932037946659e-01,4.969755051132384027e-01
4.115392352976928181e-01,5.423172871903113590e-01,4.823066951913894673e-01
4.817217807993563472e-01,4.117074365081490050e-01,4.534899634797781021e-01
4.813316190262625915e-01,4.775104680136077473e-01,4.913384189945056435e-01
4.350075780485693211e-01,5.057016465610074674e-01,4.612752640636407220e-01
4.888015818296867487e-01,4.429166268762400605e-01,5.018871787176216737e-01
4.575259467904991828e-01,4.921518029524185600e-01,5.178157242078949007e-01
5.949055503010096668e-01,5.572374819343731689e-01,4.851766473213467434e-01
5.727678600801868747e-01,4.796866046552441532e-01,5.263200511977296214e-01
5.248194890808937085e-01,4.941418118904219448e-01,5.180555405529700952e-01
5.426635128398646923e-01,4.331453414176719696e-01,4.870622428866577813e-01
4.924636904015560201e-01,4.650338170533774851e-01,5.077490915307862895e-01
4.884916686337230085e-01,4.933307671602314981e-01,5.238287827679363184e-01
5.102277713951174354e-01,5.260842457101932990e-01,4.872962339763464712e-01
4.991951909593971282e-01,4.385082816954184448e-01,5.386823492059109597e-01
4.947458903491875892e-01,4.429813185388941088e-01,5.192900659397754470e-01
4.955391277174973630e-01,5.087171921238259342e-01,4.688938363560156697e-01
4.994881626180191492e-01,5.517263894990876993e-01,4.185381216365123280e-01
5.060410716817453913e-01,5.151372370297842007e-01,5.838370853946285299e-01
4.851786443970836915e-01,4.714079113307131363e-01,5.284055747497101718e-01
4.434953405829722417e-01,4.890329727893479861e-01,4.446703533007737574e-01
4.686962155831787546e-01,4.458060592566428504e-01,5.326516548829446362e-01
5.286263104338312369e-01,4.876573978329990511e-01,5.443966177981058863e-01
5.907656573536633760e-01,5.411393060002250843e-01,5.804350840387038080e-01
5.410481258057900922e-01,4.925752857353239977e-01,4.495544251491213061e-01
5.288259666801748970e-01,5.347140932440034300e-01,4.888463508742152408e-01
4.575580267567518900e-01,4.731051576515812318e-01,4.657968517111130136e-01
3.959877226097122116e-01,4.949305614501569583e-01,5.097155055890911779e-01
5.644188913061227719e-01,4.438929750383261985e-01,5.067950459438130828e-01
5.473123124200202083e-01,5.380465939958319899e-01,4.734077335627584482e-01
4.584280617032215344e-01,5.197612182991943053e-01,5.245772588109536283e-01
4.755670555176664260e-01,4.546310017250753122e-01,4.941373384746645669e-01
4.435505705733228110e-01,4.812666043505544611e-01,4.395531831599852612e-01
5.538926461080891928e-01,5.761447166178175205e-01,5.378721866479952984e-01
5.127819688984012192e-01,5.632487827996072172e-01,4.602809812054087235e-01
5.943962584527007209e-01,4.828128026343276313e-01,5.318210271941310463e-01
4.691910735180488956e-01,4.824863026258864318e-01,5.205097485543009883e-01
4.916718517499760743e-01,5.865827792987616807e-01,5.147516590087747312e-01
4.871219488945665588e-01,5.309399991034213784e-01,4.934962345453641763e-01
5.033296314250786940e-01,4.619913472285422928e-01,5.571117720614445767e-01
5.659902204416730198e-01,4.856117032901777208e-01,4.502917578902343454e-01
5.004625734705470119e-01,5.811649196427680630e-01,5.425844342599984715e-01
5.579411670757959962e-01,5.205523707748532791e-01,4.212849539163364132e-01
4.558822153932088339e-01,4.946755367251138291e-01,5.216602119172725205e-01
5.096024917453025882e-01,5.161648952953167280e-01,5.149809278148681502e-01
3.771025667093229061e-01,5.496970417551234611e-01,4.917114884675987119e-01
5.134496376944233109e-01,5.049683622273258843e-01,5.266111932952802777e-01
5.241244719272929453e-01,5.285552799150012859e-01,4.969309323931911937e-01
5.012332790805269500e-01,4.692689053340224903e-01,5.062969061086745048e-01
4.497969421366838083e-01,4.752019441445118342e-01,5.532952716092031098e-01
5.181151878557449519e-01,4.435359099018961193e-01,5.696840539312288954e-01
4.442347498692259533e-01,5.270344777064335240e-01,4.767103775445142855e-01
5.207225636838169747e-01,5.173365476401096119e-01,5.739718079379860782e-01
4.851375953482237047e-01,4.813830223077992798e-01,6.086893246963290816e-01
5.090447407187239648e-01,5.036117422047707848e-01,4.998030465065498307e-01
5.109531761900653057e-01,5.498227657354812781e-01,5.008248503253587280e-01
4.854707649514840018e-01,4.682786821155248691e-01,4.960945407154280229e-01
5.103879853019428481e-01,5.770389534848520130e-01,4.983268839509824577e-01
5.131801274548105640e-01,4.401034981430629878e-01,4.972678339811376080e-01
4.316594404933731810e-01,4.183958703746473717e-01,4.509248476544851503e-01
5.376836301975039811e-01,4.485878575056051476e-01,4.855866037990702599e-01
5.019869838931023676e-01,4.818492771791739737e-01,5.119038615394775338e-01
4.915510883245529095e-01,6.116482549857362727e-01,5.015884634382292706e-01
5.583020019972122494e-01,5.501275240861844829e-01,4.778948980752419917e-01
4.637770076536852915e-01,4.953164254182319537e-01,4.745053728859343622e-01
4.526409399769337205e-01,5.124714003678865204e-01,4.784581725148593367e-01
5.360810298168213750e-01,5.048354342637251246e-01,4.860298473237706918e-01
5.434172137058178587e-01,4.396222495998684532e-01,5.473342541102619307e-01
4.792965159938517572e-01,5.458497240387419902e-01,4.796115286705639469e-01
4.872439217183448523e-01,5.452143953079167105e-01,4.869071314755171187e-01
4.732377963643805696e-01,4.598351564901845823e-01,4.224884783537917743e-01
5.042566900546935349e-01,5.006467006434814904e-01,5.159959102933546760e-01
5.108533232051802875e-01,4.706871031729654153e-01,4.783776182240475627e-01
4.951042102803432376e-01,4.865119081649442734e-01,5.794430222168909239e-01
5.280463420419559961e-01,4.368714444853809553e-01,4.859246336512187403e-01
4.345354140635971918e-01,4.272617942050673245e-01,5.000171103288214569e-01
4.847112577256357246e-01,4.143386431845094142e-01,5.134278426456659883e-01
4.776524408844784464e-01,4.497707715101834647e-01,5.449618734965384625e-01
6.256461692298366239e-01,5.004964340355257946e-01,4.532682220337838630e-01
4.214084902794213439e-01,4.972472947886362182e-01,5.343889631862593914e-01
4.817968178881472663e-01,5.069211285709772641e-01,5.469003988488161383e-01
5.194595848905362301e-01,5.399443576623700336e-01,4.551363996949532309e-01
5.007366775354283872e-01,4.442030626471545895e-01,4.814796545383414617e-01
5.372685591036087116e-01,4.644477670100322086e-01,5.351868816913283311e-01
5.133482856637869851e-01,4.603823418609324647e-01,5.415029877477809395e-01
4.431984299148813977e-01,5.552691681735981710e-01,5.692538416670248624e-01
4.523360340704665750e-01,4.828195261596823218e-01,4.810063789390328637e-01
5.603444676928696078e-01,4.852292076526518172e-01,4.702096798367641495e-01
4.414814459112263445e-01,5.208123840219158751e-01,4.912216232120958925e-01
5.632903315327829619e-01,5.440047638418399334e-01,4.864244173260275361e-01
5.459822390225711475e-01,4.498999012373317563e-01,4.857233429788169188e-01
4.378796360374404562e-01,4.603826821863836738e-01,4.499422754843546146e-01
5.128983736330129384e-01,4.959085310380585976e-01,5.080601648627725009e-01
5.357723885181461254e-01,4.597694832376935659e-01,5.386255268276296526e-01
5.584220303174066702e-01,4.824682822349070088e-01,5.368625907544396503e-01
4.543313822209666952e-01,5.884702166119207822e-01,5.642168939937038941e-01
5.162773865164276277e-01,4.400659455463585279e-01,4.510069131463844694e-01
5.320766510970597052e-01,4.906817802371413184e-01,4.516161377944766242e-01
4.664471216188761926e-01,4.588498290347204356e-01,5.861194624022457722e-01
5.249701016443441004e-01,5.151598014342705367e-01,4.733049509853583525e-01
5.024416442409010974e-01,5.566389462566558866e-01,4.535314950191600136e-01
4.806600365187248536e-01,4.479075092069533803e-01,5.042281546465512410e-01
4.876591497724513946e-01,4.384568951528272085e-01,5.179837910964317782e-01
5.334179034076081960e-01,4.670346634518832696e-01,4.302411660275331506e-01
4.701894355501176070e-01,4.305089424681917132e-01,5.427537128490997898e-01
5.032139289088245482e-01,4.061387621366493450e-01,4.680957849407484939e-01
5.234092887810208872e-01,5.595415922152304766e-01,5.003288832470405012e-01
5.127299542170725699e-01,5.122631858277449934e-01,4.931565300941542773e-01
5.387463128956470060e-01,5.044477248751361165e-01,4.943928994163763191e-01
4.336452189066105078e-01,4.782273464915364758e-01,4.643620253486581695e-01
4.685651181881150817e-01,4.677075762353146149e-01,5.425023354894533689e-01
5.023918134463194463e-01,5.110022926733722715e-01,4.414723716034516521e-01
5.327254700415904320e-01,4.858806574802823630e-01,4.911770901012239565e-01
5.510460464838324857e-01,5.038657775014020457e-01,4.525206971115396382e-01
4.950567254906467207e-01,4.390349269973594093e-01,4.283593244210505691e-01
4.927111657666226607e-01,4.776928499576305609e-01,5.113006904087418203e-01
5.155656387925656725e-01,4.889797934429757631e-01,5.166748890280284945e-01
5.044356932306957031e-01,5.650212147600133239e-01,4.962798546795543220e-01
5.065904384709484232e-01,5.486286861724307684e-01,4.922187661135987713e-01
5.629485297615717254e-01,5.132198207501914577e-01,5.488586219185555004e-01
5.116582719501945320e-01,5.304690419866211482e-01,5.176825143529217854e-01
5.138981957751698193e-01,5.217054452940883547e-01,5.000250888003278105e-01
5.893442865006462972e-01,5.429162368064249788e-01,5.540808549525668703e-01
4.425408708705145799e-01,4.782358179713298019e-01,4.622437031344994729e-01
5.110890896502773284e-01,4.977366683595536578e-01,4.535600738675784616e-01
4.641885777775656696e-01,5.222774573612924964e-01,4.603949212480198949e-01
4.408769439262194001e-01,5.310956238319697320e-01,4.402311075539966367e-01
5.101491651285333662e-01,4.315522556334928650e-01,4.303960263476632186e-01
4.789820291972652355e-01,4.885820392820073299e-01,4.123440920609363070e-01
5.222280577983285932e-01,4.640101246431604376e-01,4.949367482622050729e-01
4.760223234017094129e-01,4.659349120202480043e-01,5.248293731004270990e-01
5.088206973311693027e-01,4.449859238001006578e-01,4.935471119533937356e-01
4.792956480429951815e-01,5.568557051689473347e-01,5.004244610413421945e-01
5.423868079423131983e-01,5.053100412699315092e-01,4.974327485074954147e-01
4.939694048800544190e-01,5.067532809808080740e-01,5.123426011274075931e-01
5.002091110916404570e-01,5.121694675385519702e-01,5.370355272869462571e-01
5.040577109866805072e-01,4.459765008815768650e-01,5.662397429868982757e-01
4.594195590162176157e-01,5.200516742914236268e-01,5.369910089605044456e-01
5.014394156390359347e-01,4.815291997084578113e-01,5.276369279485148001e-01
5.777452496324543274e-01,4.588935966380795484e-01,4.838232227936443142e-01
5.564533566439866519e-01,4.436872599973529230e-01,5.143147295704334487e-01
5.132341353929547045e-01,4.706737191820231647e-01,5.409883222507279044e-01
4.726804609007659308e-01,5.339466292366195077e-01,5.762216533667711138e-01
4.351185654656698487e-01,4.552145593854305949e-01,4.833112442457822011e-01
5.081762736457688945e-01,4.460819354374990220e-01,4.312638984468173398e-01
4.915964677193050414e-01,5.274941237231938196e-01,4.655758112958826578e-01
4.375007297608284329e-01,5.328957228088586628e-01,5.063175017811419876e-01
4.873636410610159286e-01,5.589624725620870871e-01,4.987574103157884631e-01
4.958414761648894942e-01,5.330089659467649454e-01,5.695180151070611263e-01
4.774075630745733267e-01,5.401613107284836124e-01,5.314904135924959361e-01
5.078195267234697496e-01,4.840989528115941520e-01,5.564333119566921004e-01
4.944344535487414927e-01,4.226712561957790548e-01,4.237466602796254866e-01
4.970233158207692514e-01,5.379028605010449660e-01,4.667309526052803026e-01
4.936883375895798065e-01,4.960269731175941388e-01,5.181124373679388828e-01
6.245265875457398641e-01,5.387119660586806580e-01,5.127592671037264349e-01
5.683570972795982668e-01,5.364350519769528480e-01,5.256585662954577076e-01
5.370617067052217974e-01,5.412481448363428704e-01,5.778830510172282553e-01
5.263937121528080576e-01,5.331407984330317484e-01,5.860697695577686828e-01
4.453234015242823474e-01,5.300567912690063999e-01,5.059512534018627550e-01
4.053174818049786743e-01,5.403599596661984306e-01,4.462597573887081004e-01
5.311547269945232630e-01,4.698049707017623033e-01,4.753457563750675408e-01
5.032368755735426857e-01,5.102516878498419839e-01,5.187495280526658314e-01
4.659436275860340815e-01,4.728937590699175408e-01,5.460462118386112396e-01
4.350953902835225651e-01,5.141906739986443764e-01,5.294941902731150618e-01
5.168523017600955560e-01,5.124196476419782265e-01,4.817378659811321073e-01
4.948187071701533046e-01,5.140658362355405853e-01,5.174159436268697121e-01
5.297146881917601524e-01,4.719170644912821788e-01,4.613282001196488125e-01
4.603432212965267167e-01,5.354740011536495148e-01,5.147225179320178423e-01
4.479978377102454279e-01,4.892943957045963743e-01,5.231066005905249394e-01
4.455696698199931860e-01,4.188838205726100328e-01,5.606053514215971756e-01
5.462772296277619288e-01,4.788009013151696136e-01,5.117829168584049349e-01
5.346621337900687720e-01,5.234195022609260395e-01,4.929218546991998573e-01
5.016935526643665488e-01,5.015173997823445529e-01,5.085382268627924862e-01
5.466738701766254982e-01,5.006099997932033085e-01,4.493523652631976617e-01
4.884329441092635782e-01,4.904786389349226616e-01,4.915440226967088821e-01
4.444732329545877381e-01,4.846637785636058182e-01,4.924935435571524134e-01
4.661394519350910426e-01,4.796934212933541275e-01,4.677674100572069560e-01
5.469724410643644896e-01,4.866515885140052511e-01,5.301496987565897934e-01
5.692422102316073707e-01,5.475525455289356191e-01,5.925624837011448376e-01
5.412496014588159543e-01,5.345473808682683625e-01,5.422858360384388288e-01
5.016218140262294067e-01,5.103841623504289382e-01,4.628748344718199292e-01
4.815121107757879271e-01,5.105064700552230939e-01,4.755677608452554272e-01
5.584709554790400210e-01,4.980267312017843673e-01,4.916788177057044296e-01
4.435236266206312172e-01,5.538483356826879866e-01,5.057416590841049553e-01
5.395224396399421751e-01,4.645905972170349951e-01,4.422507033787541619e-01
4.634312589328934973e-01,5.554035543455935198e-01,4.271040630665653426e-01
5.441076690240854719e-01,4.374475295070219261e-01,4.606267912928567188e-01
4.438909333031694215e-01,5.464022905690339993e-01,5.167853286080728026e-01
5.519931007518125154e-01,4.184673047020824321e-01,4.776283469030462303e-01
4.712154561805680930e-01,4.861101000429797758e-01,5.178997290997213732e-01
4.450582979977436571e-01,5.568840268344608102e-01,4.757718426147758417e-01
5.239215398715593164e-01,5.350389491306504208e-01,4.861410774181668115e-01
4.681849225652184310e-01,5.593520520537720309e-01,5.316808886083226326e-01
4.971481846922130021e-01,5.060506873041387133e-01,5.241066310121652583e-01
5.864787410095594344e-01,5.197907745241452382e-01,4.892663956131131364e-01
4.893980276991407030e-01,5.142837794681109909e-01,4.889048961011175365e-01
4.801296290511460896e-01,4.518782001625670230e-01,5.207926442021049152e-01
4.907135561368746735e-01,5.419152370639187533e-01,4.368762290540148530e-01
5.052181039556643549e-01,4.821307326970239449e-01,4.467076322392585785e-01
4.591782701371547315e-01,4.971231130549831900e-01,5.049269987137394722e-01
4.589673136986180957e-01,4.936550691777801259e-01,4.835111884784753511e-01
5.502787193556960554e-01,5.652405865108623972e-01,5.620136544313442117e-01
4.337576585965667308e-01,4.608248254167220392e-01,4.946672142665249905e-01
4.612451650818714666e-01,4.851976487619932277e-01,5.964323349291988929e-01
4.192229009798953965e-01,5.204573094090305663e-01,4.568551322340769216e-01
5.579625136548604925e-01,4.769479773168028292e-01,5.055865534798184013e-01
4.627527793236639320e-01,4.462037645386512930e-01,4.414631364654271750e-01
5.074134738571036696e-01,4.862484122064939518e-01,5.528154957976463280e-01
5.543208512912876085e-01,4.763216807414134002e-01,5.472669563182215313e-01
5.078806571324211427e-01,5.079268539213821487e-01,5.627331408600213525e-01
5.370824207549167451e-01,5.303666606252198656e-01,4.672939787220132812e-01
5.441846520956223898e-01,4.715401166406364419e-01,4.805932794905629080e-01
5.300084676640862691e-01,5.380598550428442595e-01,4.755120190824309589e-01
5.315390681464648992e-01,5.154221345261689180e-01,5.344763058425019420e-01
4.393302720052401633e-01,4.902270546570668408e-01,4.851862592202629276e-01
5.144806642045897105e-01,4.910830729017071627e-01,4.188667939439209009e-01
5.240025790709360587e-01,4.850995186261003456e-01,5.361919181043225402e-01
5.198049312562496027e-01,5.370168908525492224e-01,4.899949991185728049e-01
4.376157184275411560e-01,4.703808750991460008e-01,4.622344075796780971e-01
4.755884486695434732e-01,5.688325050791132043e-01,5.113782664412177548e-01
6.089723418508536934e-01,5.274602921119717625e-01,4.730308251260757491e-01
4.283969053874560062e-01,5.085850232514864677e-01,5.596408376197851142e-01
4.961129522709532558e-01,4.653385760336149479e-01,4.720397939374745278e-01
5.456245265188109927e-01,4.948443011080303489e-01,4.687376857860529600e-01
4.757889741554302554e-01,4.764629409801108273e-01,5.118261794494279870e-01
4.915534854024899980e-01,4.699619745937576587e-01,5.605604327548884269e-01
5.082351871283284916e-01,5.093791941295022774e-01,5.116653963649321346e-01
5.078908540953888107e-01,4.404806784896949656e-01,5.491363838609412129e-01
4.387652629530930937e-01,5.128239272732759702e-01,5.621626079368869933e-01
4.724457790619353559e-01,4.802754194419623923e-01,4.607565957743499641e-01
4.966977222055110053e-01,4.946857197985742860e-01,5.195065342634640482e-01
4.730358001360296938e-01,5.436877058418133624e-01,5.376493374897611810e-01
5.343497387622917483e-01,4.497216774137447470e-01,5.118578399774376120e-01
5.250015253228578205e-01,5.309116775923331533e-01,5.289247944307567950e-01
4.729284711938022134e-01,4.944008537977249707e-01,5.315591130801032849e-01
5.081814282154248907e-01,5.544448939952303368e-01,4.573971082838804714e-01
4.934583775093013824e-01,5.158673565492180035e-01,4.921330207051363703e-01
4.854970551324234163e-01,4.772502295305612874e-01,4.980551008185786777e-01
5.640563214239124878e-01,4.451620030081854806e-01,4.873094431695875750e-01
5.135643515412373628e-01,4.617682423551808246e-01,5.376606395681935435e-01
4.692900900155705379e-01,5.161478024513331819e-01,5.217741710475135575e-01
5.482934327721203926e-01,4.985136706068942214e-01,5.103225843676800766e-01
4.848365734821921680e-01,4.652550877177174526e-01,5.620677756559381288e-01
5.052841069382421058e-01,4.446497844188098680e-01,4.621896194301883254e-01
4.881211875366203157e-01,4.988731903971940218e-01,4.696983307137505559e-01
5.295657305756017452e-01,5.081785383074286511e-01,4.470695063181355788e-01
4.955260238641127080e-01,5.071372425235145531e-01,5.010768671760350568e-01
5.439415295957064078e-01,4.294603597256486105e-01,5.549338603963098748e-01
5.020715462364380155e-01,4.564185998223017071e-01,5.314518858786527744e-01
5.003924370321685133e-01,4.746218891181396282e-01,4.922668244637781187e-01
5.307275980502964563e-01,5.642356558849014325e-01,5.484322070636200586e-01
5.135150023409315034e-01,5.490256624597782409e-01,4.689898060898319287e-01
5.474423774696016709e-01,4.903976804831186032e-01,4.860471839991203913e-01
4.936302861282408916e-01,5.554711863928388782e-01,5.091151511693582377e-01
4.987385739990844447e-01,5.360008770717562543e-01,5.168352926111980938e-01
5.466783757155433410e-01,4.950247882579330017e-01,4.575997292773298364e-01
4.776751544928250492e-01,4.639478261017245253e-01,5.468892609721945908e-01
5.087310759516426861e-01,4.865767309423288944e-01,5.292225502373816282e-01
5.184761675771035749e-01,4.879706271452147748e-01,4.855398112379134545e-01
4.761907996751701400e-01,4.825241138440382604e-01,5.209837773691314844e-01
5.070027339774368924e-01,5.080842665807995262e-01,4.637649272194848682e-01
5.789015572407325561e-01,5.065687217200178782e-01,5.398957728469643280e-01
4.704835955723612462e-01,5.002747549127216642e-01,5.511189166393491989e-01
4.666832905795864628e-01,5.270202418623300966e-01,4.826889228088320216e-01
5.090332289349088768e-01,5.103671145351721394e-01,5.595583367951035836e-01
5.051094035322579723e-01,4.832013555399086724e-01,4.898929031124756306e-01
4.726380843069963311e-01,5.052251061435196755e-01,5.283206187911291263e-01
4.753943949906715427e-01,5.505892653879255194e-01,5.277969467716014940e-01
5.298933574409294689e-01,4.893403703391231430e-01,5.391941630743921632e-01
4.369718771362373078e-01,5.024071259812435963e-01,4.721530647586042462e-01
5.879154601734674079e-01,5.501015704217182556e-01,4.982619416419683533e-01
4.881493225236014366e-01,4.929066454102388195e-01,5.249556554694116972e-01
4.699773630207477182e-01,5.308525717277005063e-01,5.704296733936634611e-01
5.071027517890507319e-01,4.628077509232381148e-01,5.067638810106018799e-01
4.731974911179208099e-01,4.885682610825506367e-01,5.242974776853813745e-01
4.900979995269446610e-01,4.632607910395082351e-01,5.347434245328154256e-01
5.880292512454152742e-01,4.966085583131743530e-01,5.157010296261406168e-01
4.132969900699124399e-01,4.930821870445970534e-01,5.106065811844394675e-01
4.363322775719390978e-01,4.513172926200007540e-01,4.621610737303578076e-01
5.062219188419293525e-01,4.540012445984288325e-01,5.606263596208399536e-01
4.923476167266972459e-01,4.656343039363396441e-01,5.019063307546494102e-01
4.974031190046367401e-01,6.276310538440903475e-01,4.950345929254689747e-01
5.158681797070132635e-01,5.032163125667991066e-01,4.880649197772747305e-01
5.483109230985306892e-01,5.733131096587882336e-01,4.693214036319178772e-01
5.587692847973116939e-01,4.927939767784862424e-01,5.489620175311330508e-01
4.989969111283423242e-01,5.757331163764267679e-01,5.505100441255041943e-01
4.643793191743662563e-01,5.095496694932091231e-01,4.922930617745137072e-01
4.831604275016480043e-01,4.335596960043577863e-01,5.582085305112018947e-01
4.990281465935378358e-01,5.205616915294911662e-01,5.062667815820383055e-01
5.144012702873991261e-01,5.159019200368978320e-01,4.384308406444855644e-01
4.970656755256860349e-01,5.131038261880885853e-01,5.186453161679855928e-01
6.181567654651944910e-01,4.640360940586157890e-01,5.103478035485969899e-01
5.068021580443002883e-01,4.788373186895221179e-01,4.963826434258940545e-01
5.422912217635728060e-01,4.731218033603094564e-01,4.924008386528512249e-01
4.900429071242825008e-01,5.124285594606394767e-01,4.692100262453374193e-01
5.133125304633935349e-01,5.164972001432922566e-01,4.300571298670319287e-01
5.600099530329873954e-01,4.821624460653968769e-01,4.617615138982370526e-01
6.028510158535631547e-01,4.929225682573795675e-01,4.739081889520838642e-01
5.090189604451550442e-01,5.327283412684820085e-01,4.920591866373438816e-01
4.500545671395165814e-01,5.350283073781341159e-01,5.389847993956637939e-01
4.483109160815522687e-01,5.750273689921040488e-01,5.332779537210444731e-01
4.914954063536833284e-01,4.505986442093783406e-01,4.923423512439328853e-01
5.044300795331986276e-01,4.621791598902047493e-01,4.747580797349505999e-01
4.328096589998395305e-01,5.152511561303947385e-01,4.498030888501808877e-01
5.503977459578063280e-01,4.908497794676006665e-01,5.346012295501543221e-01
5.418659933377864002e-01,5.026819394390713569e-01,4.976464154816393481e-01
4.986249496977195883e-01,5.082067475721249172e-01,5.644810049075882352e-01
4.990529760841718732e-01,3.995797100442696204e-01,5.607295758777278705e-01
5.207908700935635071e-01,5.536494057764531629e-01,4.860161716035890089e-01
5.263600075485996843e-01,4.628488170183738815e-01,5.215218406941508622e-01
5.470488708411023193e-01,5.004835039004523756e-01,5.177419185639067223e-01
5.690758207061841212e-01,5.510290067773179201e-01,4.373729519315925907e-01
4.320387888072435567e-01,4.385054925926755720e-01,4.996656345699396762e-01
4.681919245351382486e-01,5.383617151955646385e-01,5.170170968125264999e-01
4.892653308270423773e-01,4.840615061464126345e-01,4.952056970165062411e-01
4.718654689890288689e-01,4.030589840673067803e-01,5.444232460495833648e-01
4.343423834730928412e-01,4.993842917783309354e-01,5.840438652857909974e-01
5.568426097082856963e-01,5.218462704986210898e-01,4.985026632631131549e-01
4.680208884040860662e-01,4.336252732744786953e-01,5.303137872196916902e-01
4.725941356189010123e-01,5.534043847556880946e-01,4.882078077247366532e-01
4.943979685341289287e-01,5.112922031587994187e-01,4.990206952204070956e-01
5.274188462006130784e-01,5.688448406021954229e-01,4.320172109556703055e-01
4.815799371608174284e-01,4.799910313563392483e-01,5.605104794340320939e-01
5.438170047063529688e-01,4.572783246308326222e-01,5.184990118763853628e-01
5.470331182285755878e-01,4.848659849146909617e-01,5.362695871993596874e-01
5.031419372284908764e-01,4.992495381857314229e-01,5.761506566336903612e-01
5.310560223754858811e-01,5.198159240250369573e-01,4.760592223026027803e-01
4.597179951216017746e-01,4.956861702406465953e-01,4.460073355276030771e-01
4.662382703206301438e-01,4.742427057705912441e-01,4.935711458921059891e-01
5.573317310987965234e-01,5.649613459929002657e-01,4.857215025313886825e-01
4.503924725340004986e-01,4.705272458444192396e-01,5.003381700465562298e-01
5.185654584658910826e-01,4.871432749639840187e-01,4.480173987330990371e-01
5.154954347581789387e-01,5.163717010762930437e-01,5.767089758237565755e-01
5.209879646775362749e-01,4.796213928660225667e-01,4.231507478056544813e-01
5.263503807933425094e-01,5.218205524104587711e-01,4.893698161012602910e-01
5.085543241349526067e-01,4.601904188504110094e-01,4.960111081788770582e-01
5.356699905994912747e-01,5.071412934011195750e-01,4.780607249158035921e-01
4.677485961847608342e-01,4.910277496352419835e-01,5.179924002042526343e-01
5.262970231081173234e-01,6.056560281502153531e-01,4.961596947777566213e-01
5.467968808127927627e-01,5.223998659586183146e-01,4.730560219747925177e-01
5.531404327970425028e-01,5.416560847219894503e-01,4.937841126920545221e-01
5.619510903475865016e-01,5.445703315219900809e-01,5.409336616820220600e-01
5.072504834198831025e-01,4.673770694890089783e-01,4.905672117226960727e-01
4.902649214411038958e-01,4.684726466221630359e-01,5.009546979168318925e-01
5.133906130211355334e-01,4.855608587834223666e-01,5.660244204345388219e-01
4.408510573198826665e-01,4.999529691795175923e-01,4.980467504021172664e-01
4.119954907142748257e-01,4.128608984506569879e-01,4.340734111016504304e-01
5.595865326100687431e-01,4.901177553710818757e-01,5.246583139083914604e-01
5.405323719920477332e-01,5.048120903695630934e-01,5.365701712697660275e-01
5.245635396213688129e-01,4.598919017598543935e-01,4.808108721405205954e-01
5.264554806959886868e-01,5.183604988902911215e-01,5.064633133669327325e-01
5.912810410206689182e-01,4.983083905084786935e-01,4.531524904856446545e-01
5.202631909957996514e-01,5.352710495822369241e-01,5.531117171595669735e-01
5.919140289045045078e-01,5.281289266572847252e-01,4.801704427894544769e-01
4.840818387674130641e-01,4.784026308664491300e-01,4.957158087705881844e-01
5.347626739035588050e-01,5.021697493465537843e-01,4.766264886963229586e-01
4.834603971506603592e-01,4.007623523200156690e-01,4.490799642018682425e-01
4.550972194979681640e-01,4.906296596604334814e-01,5.155392027427173618e-01
5.619720290977098243e-01,4.941438049117473086e-01,5.648488176743412525e-01
5.371967634810939085e-01,4.866032647534099809e-01,4.786877693232634567e-01
4.967756617342383718e-01,4.842606683919662980e-01,5.449083647980149658e-01
4.587033929203772620e-01,5.506771161585336527e-01,5.657709912225151738e-01
4.624764124896773576e-01,5.808390285639376538e-01,4.499326636460341811e-01
5.005654387912691350e-01,5.188155520554383893e-01,5.606173316496280146e-01
5.144196884897531685e-01,4.905336741755874086e-01,5.382438958118170858e-01
4.249267705334058842e-01,5.122834900697322835e-01,4.794483592109716752e-01
4.892690504650276107e-01,5.042205559906880463e-01,5.151220520573260853e-01
4.935621645300518057e-01,4.898828071448648180e-01,4.717452013092905405e-01
5.512686423727803930e-01,4.396859552247090464e-01,4.472367154507854714e-01
4.856424809429963907e-01,5.215798742237233165e-01,4.397705447995429728e-01
4.813064316239618057e-01,5.291839809104912362e-01,4.547597626746076593e-01
5.190561857619009345e-01,4.793614763782890198e-01,4.764865044726294130e-01
5.118917680358879840e-01,4.849350393333290987e-01,5.966986798132063452e-01
4.690378804882547881e-01,4.608113852470981375e-01,4.833786451272082396e-01
5.693685910385591908e-01,5.273539883989218913e-01,5.247640550111875024e-01
5.211051867840942320e-01,4.826570021980243763e-01,5.438637249475987145e-01
4.653456458117631311e-01,4.343496062812848835e-01,4.848423739187696091e-01
5.447603510131158178e-01,4.404237778720978547e-01,5.548455860029480879e-01
4.810285404664429998e-01,5.289190171120740080e-01,4.667217887513495089e-01
4.186850282784435051e-01,5.158597772561567263e-01,4.612402258313234582e-01
4.999080329614410956e-01,4.949470227878344786e-01,4.823784774668147257e-01
5.025876270764411125e-01,5.580080827085273087e-01,5.020869701214630831e-01
4.568829380620679781e-01,5.498485128124532828e-01,5.033940741719670209e-01
5.664087345781880778e-01,5.058134373453002652e-01,4.670567732653274629e-01
4.444793608039308563e-01,4.962233816181041424e-01,5.726648099439660689e-01
5.108350063399118568e-01,4.833877899371890052e-01,5.751257348335969688e-01
4.659847031424841357e-01,5.329374744658526009e-01,4.437535858087173213e-01
4.531032444253770275e-01,5.294916911830267470e-01,4.946682046832265867e-01
5.742854903640705055e-01,4.767714438633977592e-01,5.281709666528207059e-01
4.854108528570949543e-01,4.457210633504480879e-01,5.119467825339046874e-01
5.491126326918015499e-01,5.124071844545039500e-01,4.731778609686486115e-01
4.678542026104565710e-01,4.965102385181377476e-01,4.919090220139776259e-01
4.810996042196813427e-01,4.792484572217125538e-01,3.978871280505607566e-01
5.615239689492187436e-01,5.470312773770085180e-01,4.770804117362849595e-01
5.379144314321102627e-01,4.542985731809452976e-01,4.765152516139216643e-01
5.364751314118645364e-01,5.173830637566513291e-01,5.147268648565854754e-01
4.676965560054563431e-01,6.017725781465530499e-01,5.465931306130903389e-01
5.133468374691032565e-01,5.589467506564552712e-01,5.197045329770231259e-01
5.367271240038310465e-01,4.866077328305459249e-01,4.885163989231849913e-01
4.140733361758199282e-01,4.558069203678330461e-01,5.217232496452918200e-01
5.439020709961009947e-01,5.013516515222740111e-01,5.626519741596457402e-01
5.440367211460440666e-01,4.909052723224228698e-01,4.669968868123266503e-01
5.537586320774015025e-01,5.641684904226283992e-01,3.982795711146701612e-01
5.259266244564205772e-01,4.909630051532271611e-01,5.676285986572251474e-01
5.169058535658437314e-01,4.950129843685848186e-01,4.961152241261770901e-01
5.222074699106203921e-01,4.482517518376090138e-01,4.425693283847152437e-01
4.945658139730219616e-01,5.245016444984373916e-01,4.981259804214596687e-01
4.975244562726685582e-01,6.125349620150667418e-01,4.637638138767165574e-01
3.988807328957198473e-01,5.282083955243788154e-01,5.701792006480600472e-01
4.927343558807243395e-01,4.755613641428122484e-01,5.832763741352283704e-01
5.256994190091865971e-01,4.697586783167869706e-01,5.031955080209190578e-01
5.266547528879338413e-01,4.812469253624538923e-01,4.741745271665861461e-01
4.353980602757466789e-01,5.039102937997317344e-01,4.164967153253903431e-01
4.868380581866835199e-01,5.352505575585835285e-01,4.818897063229188316e-01
5.349736847628749903e-01,4.318506043236792769e-01,5.838210055965943335e-01
4.312144013728070324e-01,4.635852796843947243e-01,4.088967808475469368e-01
4.829700961535448034e-01,5.272423789473220657e-01,4.899770038218251855e-01
5.801595384978875947e-01,4.950295943405744747e-01,4.772574373137164483e-01
5.337497811462096342e-01,5.401930927141914696e-01,5.302328427979191572e-01
4.635809463248374840e-01,5.102048952544786520e-01,5.191815149132589235e-01
4.129933324371406478e-01,4.875388214631689587e-01,4.784672662558104306e-01
5.200683450692556997e-01,5.205088243246271951e-01,4.641445607272001728e-01
4.936691274244702221e-01,4.937704755807232337e-01,5.049182843945893007e-01
4.485419434367310387e-01,5.271117335402578652e-01,4.671290581166905320e-01
5.254399005196305206e-01,4.605041505098245724e-01,4.751186996792475803e-01
5.640707575223258274e-01,4.921895077013423991e-01,5.716804746323264075e-01
4.249292371189781203e-01,5.127495628308131881e-01,4.880633663155511948e-01
5.323893478442373040e-01,4.985752459425367711e-01,4.865564374066523312e-01
4.383232289136205218e-01,4.947503026396442016e-01,4.568583062616407009e-01
5.014255087716001924e-01,4.887933822916870619e-01,5.172808320897313017e-01
5.488370188380800041e-01,5.825350745911591632e-01,5.319220330528005025e-01
4.882387676499783669e-01,4.844042334330194710e-01,5.568584712872194364e-01
5.619417982175259896e-01,5.630045924790736400e-01,5.485590092237098148e-01
6.078364195766570166e-01,5.080321779302631180e-01,5.498026162323265131e-01
4.771788671634086820e-01,4.844813595897483616e-01,5.471771630134211195e-01
5.435530867185519588e-01,5.447398149655960919e-01,4.552518867788619694e-01
5.068511731352309813e-01,5.067622376794245209e-01,4.579967772545596172e-01
4.952845915369099017e-01,4.928712468558401061e-01,4.704826361479452212e-01
4.861579023001555977e-01,5.565171251160178079e-01,4.826832945783833817e-01
5.154137319928147054e-01,5.063627564907766665e-01,5.377169443956535400e-01
4.663049288259835112e-01,4.456679561801915046e-01,4.866883869652678940e-01
5.444007496856286821e-01,5.565749330400761030e-01,5.099794483901151088e-01
4.911275748054919066e-01,5.250702110693438174e-01,5.241956157145706285e-01
4.990398756823929416e-01,5.642685914351597276e-01,5.423829566294090521e-01
4.934068263834168189e-01,5.377657133707685055e-01,4.933689648240783265e-01
4.646328158967014677e-01,4.930829391285407870e-01,4.977759774265720916e-01
5.064977255706465398e-01,5.074140970916243276e-01,4.552358204584153745e-01
5.212065564837404796e-01,5.247131131626983080e-01,4.606687325309530290e-01
5.158955835079525043e-01,5.433031139214165028e-01,4.315771622885672953e-01
5.341742938462287205e-01,5.499832711852860045e-01,5.275280782820974679e-01
4.997100717432835792e-01,5.502076094793806327e-01,4.858300249694869621e-01
4.460474967394638668e-01,5.284568567888575652e-01,4.886909673542003119e-01
5.452803214361081618e-01,4.985614978531099917e-01,4.788126494429579827e-01
4.934094331216342111e-01,5.471951073712604252e-01,4.970737412445003778e-01
4.952557242047895270e-01,4.808586315438460601e-01,5.262677411968813557e-01
4.495771189879496088e-01,5.246564040560163233e-01,5.304681272182880658e-01
5.221621964758212942e-01,4.290000851785776281e-01,4.736567919490198841e-01
5.262217413787083631e-01,4.560115030614660392e-01,5.489385242194005921e-01
5.218079933733932307e-01,5.494719502811032941e-01,5.270176895127599570e-01
5.291473597761596759e-01,5.185346997993265372e-01,5.480231299895200747e-01
4.738952737497689194e-01,5.012599443225714824e-01,5.365463239795200678e-01
5.692426009353095395e-01,5.055115044664189039e-01,5.319887421609357236e-01
5.153500193965963039e-01,4.936824916867775803e-01,4.684515575397687481e-01
5.169513319838645593e-01,5.175943118882173621e-01,4.686849277041587047e-01
5.315516579841633726e-01,5.228670104754374881e-01,6.007736369604160798e-01
5.074277288229610550e-01,5.182336287368708438e-01,4.692101144971307924e-01
5.194422314451307976e-01,4.720840157653219404e-01,5.179097568445203414e-01
4.619507861129499848e-01,5.324792153081129298e-01,5.230336969610006603e-01
5.066752368192211087e-01,5.652866577287135597e-01,4.598465087085514824e-01
5.326604524677103214e-01,5.626872481833373740e-01,5.029429987791512735e-01
4.829922885019348189e-01,5.422098891949566069e-01,5.430417716385873561e-01
4.503008617227055588e-01,5.019585240150569172e-01,5.016850005201061169e-01
5.127530452818981344e-01,4.319384614687893365e-01,4.797722757066765209e-01
4.911837791549523713e-01,4.901716455371470937e-01,4.014164633559907935e-01
4.500069204479069662e-01,5.107173262722650708e-01,4.583371148751333446e-01
4.338146337818938325e-01,5.906564333207219297e-01,5.970785013986958933e-01
5.037965402619631883e-01,5.437521026317071460e-01,5.474209823202434988e-01
4.528048721720088210e-01,5.077414294512101467e-01,5.040854608506477597e-01
4.608294792826807540e-01,4.827663466548482440e-01,4.984591929020525392e-01
5.188592734750144819e-01,5.849954197328990357e-01,4.683428939663160095e-01
5.650920376553699720e-01,4.999384994795081361e-01,4.575136942464516632e-01
4.852305014823161122e-01,5.330256634237139357e-01,4.643168036823118738e-01
4.941319650204720748e-01,5.229310184486585245e-01,5.468848875320547753e-01
5.206508516757678562e-01,4.082346961382528061e-01,3.740208201844950064e-01
4.225898116095892498e-01,5.359725147285779867e-01,5.403048433973902664e-01
4.644851203881452673e-01,5.696117226119020716e-01,4.476956400703536731e-01
5.310268158190867283e-01,5.472447537796952810e-01,4.810360861404411326e-01
5.101572322551132244e-01,4.669042532137378521e-01,4.738830496430212480e-01
5.087457781496640408e-01,6.117994099220493975e-01,4.919817226706257873e-01
5.120054281170314248e-01,5.101512373095883346e-01,4.213909035587718455e-01
5.735342076608763717e-01,4.778104059944586757e-01,4.885631363063831500e-01
4.618563743780608188e-01,4.839264324680720986e-01,4.498936438954401762e-01
5.208534417584216314e-01,5.270728389033727534e-01,4.853236906679755380e-01
4.939013066165892085e-01,4.996643857383703535e-01,4.734678192313814260e-01
5.438326593766047434e-01,4.532538815274953503e-01,4.593601311462865433e-01
4.703159893236055766e-01,4.195375102816975010e-01,5.497184567580508663e-01
5.137355434274321064e-01,4.985663472640612381e-01,4.862922013625061157e-01
5.092345099996200553e-01,4.645808083722433590e-01,5.642549887212124915e-01
5.073267701003074670e-01,4.783417503548496597e-01,4.865598056720945030e-01
4.647037266134979028e-01,4.922814483338064373e-01,5.064577543443485874e-01
6.127244075208498897e-01,5.349174938395615531e-01,5.060279926211649348e-01
5.001303082404211509e-01,4.376869959555386713e-01,5.075898451221823038e-01
4.557416056192729048e-01,5.244633485866703193e-01,4.442734075032492846e-01
4.707542834074366911e-01,5.075633008863563722e-01,5.534087811409510449e-01
4.706551010002492652e-01,5.395392416323363527e-01,5.065148778065589052e-01
5.670876483694837766e-01,4.810656240134919548e-01,4.745483213923711863e-01
5.466034341827332721e-01,4.765566351637318676e-01,5.456260980550161621e-01
6.555471029846234865e-01,4.843118399103397143e-01,4.611260959337361576e-01
5.137278690703525053e-01,5.813753809212659496e-01,5.305669048410184274e-01
4.735753055462456618e-01,4.927394406194545162e-01,5.044999951374167235e-01
5.347348259052705499e-01,4.888597722324781736e-01,4.470243681047798012e-01
4.693231375683646345e-01,4.273995775288734755e-01,4.824536494504634287e-01
5.193595705407803020e-01,5.449360541145810144e-01,5.155215570690906413e-01
4.365599696608821190e-01,4.823188183940967932e-01,5.178182341237229647e-01
5.322109039354976368e-01,4.691383354035582598e-01,5.053794307657525353e-01
5.514690198788562148e-01,4.841320565417152610e-01,5.815126970212548541e-01
4.504120213688373453e-01,5.456951482742837811e-01,5.332425443881142479e-01
4.702298889823854910e-01,5.006316179660930121e-01,5.646685108400945063e-01
5.837398087902598842e-01,5.381718809062742137e-01,4.766461582782627326e-01
4.935837671371188784e-01,4.894387487518541136e-01,4.441356599259679294e-01
5.411455059916805421e-01,4.625794525871074203e-01,3.938990358106685963e-01
5.592896219144379844e-01,4.333565491163868799e-01,5.178541846672409799e-01
5.100296086198071732e-01,5.139073575640774605e-01,4.410852576385080326e-01
4.573029547141391760e-01,5.007258796837019688e-01,4.919497560448788387e-01
4.682467278079715522e-01,4.907801475156512994e-01,5.010518027030699262e-01
4.485762814804296061e-01,5.576953839164627835e-01,5.042899481309175425e-01
5.222652939815112250e-01,5.596277273766682159e-01,5.459961477635826288e-01
4.436645143047796558e-01,4.530194514616945889e-01,5.711362188121356098e-01
5.157078145052560458e-01,5.702609234999586052e-01,5.387823153331138260e-01
5.045775735885570379e-01,5.405259383130109896e-01,5.080225103901341299e-01
5.179461670869308643e-01,4.688427387381432498e-01,4.891792739070247586e-01
5.191303377597049629e-01,5.086687216664883548e-01,5.212157043811722623e-01
4.912499960819084466e-01,4.479706853271407385e-01,5.221105833141979069e-01
5.114471638212146898e-01,4.713952083510976609e-01,5.582571483259344269e-01
4.427213713600665623e-01,4.621043553278280647e-01,5.255165319989018036e-01
6.432890886117929030e-01,5.312394688304290513e-01,5.276920545601265777e-01
5.205760627905829940e-01,4.880102380643535631e-01,5.594394221079780349e-01
4.804517266195807434e-01,5.457230564047905741e-01,5.432375519782480788e-01
5.108339911922123999e-01,4.413623767861263869e-01,4.862650303651538386e-01
5.944993337430983793e-01,4.290097455228946699e-01,4.793095263426176977e-01
4.282779407100444913e-01,5.432821730046685227e-01,5.230379880408962956e-01
4.206276801201838111e-01,4.749006612211748024e-01,5.508225057997232499e-01
5.094891271069719174e-01,4.506463506857101842e-01,6.129560274134708830e-01
4.578145615956824566e-01,5.387950140482296035e-01,5.222411002301114991e-01
5.403900112625278362e-01,4.578929636898974032e-01,4.772652138359710916e-01
4.679387378815237919e-01,5.417204255577516836e-01,4.734117764506812209e-01
4.653844661510228575e-01,4.755548550057979162e-01,5.437677094363962960e-01
4.858660446055274584e-01,5.194473449197670734e-01,4.549375519808144808e-01
5.284728678398479262e-01,4.597990025060277319e-01,4.805260170097478412e-01
5.387050580865448968e-01,4.230861592324684506e-01,4.875040688721857807e-01
4.598129399161852149e-01,5.081663996165488584e-01,5.516545048891935421e-01
5.769057553788091708e-01,4.406637517427258177e-01,4.605178401454677051e-01
5.028427959991996765e-01,4.451327222015546425e-01,4.130299369944915311e-01
5.089134410018799626e-01,5.174954698747441517e-01,3.869738300687141641e-01
5.675855991987107663e-01,5.192543080483974505e-01,5.549156062233047138e-01
4.574740882164760603e-01,5.022567515395730542e-01,4.828395475541382709e-01
4.653362569451458541e-01,4.785678190251705932e-01,5.252434953598198453e-01
4.931944912983765028e-01,4.773028318301512085e-01,5.227303360073587424e-01
4.996208352010044207e-01,4.996960452848673850e-01,4.933539858794093180e-01
5.329857581625789820e-01,4.988327251806572438e-01,4.883522723124963383e-01
4.867175233749478913e-01,4.597312438908459087e-01,4.747752924112279560e-01
4.862889440169443911e-01,5.768841631444929785e-01,5.271015163412104965e-01
4.570937300749154941e-01,5.234184837710579297e-01,4.102930521742768066e-01
4.372815073049066137e-01,4.625501760248862948e-01,4.894111947810369512e-01
4.666985411864058020e-01,5.430305959440475672e-01,5.592675049274381527e-01
4.336786186028837031e-01,4.843735203953681290e-01,5.289033454223375230e-01
5.442126630185537550e-01,5.524924197016912730e-01,5.483794053037300831e-01
4.495821721409552496e-01,4.420648745850144223e-01,5.059747564822644206e-01
6.148422952587412338e-01,4.945748071791725153e-01,4.319937914133273882e-01
5.452656393094715837e-01,4.877765338595994038e-01,5.039008631975335772e-01
4.993799527811090266e-01,5.339344920702480124e-01,5.219859172521995605e-01
5.935711762975590666e-01,6.303885774500583850e-01,5.113636526391299730e-01
5.356212851035595524e-01,4.641574830653423245e-01,4.561802137731834628e-01
5.215983388776296303e-01,4.962797376048496134e-01,4.674957738701789878e-01
4.628754311152192824e-01,5.052096863968958962e-01,4.638769816469491269e-01
5.211713714347364634e-01,4.676150186765241634e-01,5.956833607347125081e-01
4.230115102916046643e-01,4.965410150004695988e-01,5.070950590782186129e-01
4.848715565735369770e-01,4.813909727179475628e-01,4.865743150585216115e-01
5.145447538303197232e-01,4.845585869443465588e-01,4.527745887587791840e-01
4.234396565497768328e-01,4.886013339370511854e-01,4.184713352011174559e-01
5.154161927341998073e-01,5.067272383659696677e-01,5.303251627782675781e-01
5.456360139099549755e-01,5.237213356601908565e-01,5.162410037406323093e-01
5.499374959680010111e-01,4.857925440712542176e-01,4.844464195995804023e-01
5.193211758622048313e-01,4.277994808660141590e-01,4.470623445092890558e-01
5.061883525566861497e-01,4.717757186112653267e-01,5.418387911253567113e-01
4.033915407023598854e-01,4.358672496931662033e-01,5.800583009407510593e-01
4.474616725892683888e-01,5.188421120950088561e-01,4.989729648054297417e-01
5.066292804635338376e-01,5.237576445412044368e-01,4.890382418443187107e-01
4.769684051107809242e-01,4.527274611307224306e-01,5.580009243061790913e-01
5.642429132874584585e-01,4.510564050397004587e-01,5.178084714350733586e-01
4.505703464542687442e-01,5.942182756578209268e-01,4.765595799475713101e-01
5.362724117333544926e-01,4.902060929358804109e-01,4.220816296947885182e-01
4.675755635496013918e-01,5.138989205834247898e-01,4.470768971063640573e-01
4.969829602688404790e-01,5.645732306311828097e-01,4.623075393909289454e-01
4.499575407689273554e-01,5.008086450005585499e-01,4.682086599276858441e-01
5.421404602254618066e-01,5.204203524477174492e-01,5.131941020828693079e-01
5.580828062867601025e-01,4.642178567630559360e-01,4.108792244219003353e-01
4.517765469326375793e-01,5.084764424873450261e-01,4.683210957595164148e-01
4.616339873465659105e-01,4.891270551951145684e-01,5.929696710937426563e-01
5.841106737636934110e-01,5.262701168629837500e-01,5.025227442163275882e-01
5.923673147984604981e-01,4.761621112069064354e-01,5.276053919455924168e-01
4.731144597495282045e-01,5.107885818804700495e-01,5.003275280284301685e-01
4.675370647896039955e-01,5.136103397359986777e-01,5.694930826830091330e-01
4.783442322003108593e-01,5.081454888360863453e-01,5.929446753756072441e-01
4.844082357061900712e-01,5.161157630103004879e-01,6.004298280380171438e-01
4.470173485781888667e-01,4.847254674162155275e-01,4.444619077676059682e-01
5.560866873683558698e-01,5.140425647576496448e-01,5.392486308113476623e-01
4.696177944318161712e-01,5.553269324734617651e-01,4.914951152826591008e-01
3.735506171778976148e-01,4.943907137958448716e-01,5.322284704786472975e-01
5.314000133050815755e-01,5.211075979668087221e-01,5.447392364301807399e-01
4.452549188512967548e-01,4.051663335808449173e-01,4.124996166436112888e-01
5.116334197060566913e-01,5.383783131904297248e-01,5.128144639336186250e-01
5.009399820577432605e-01,4.576969720513963114e-01,4.636616140887955817e-01
4.959859788293435323e-01,4.347029540243034229e-01,4.521421793562649949e-01
4.732923945178705294e-01,4.726648383399892905e-01,5.579353530733355271e-01
4.719138054585071407e-01,4.840901733691905795e-01,5.226566200447417820e-01
5.317907166373387895e-01,5.160403244516947874e-01,4.698129937903043896e-01
4.748633944217955927e-01,5.361025323845581836e-01,5.009251069042247595e-01
4.981205014999075531e-01,5.239462012612695618e-01,4.416281333583063073e-01
4.561407765097512668e-01,5.123479707973064290e-01,4.958794739319530853e-01
4.717465619130168375e-01,4.664925262876795653e-01,4.708275969037395425e-01
4.993395597909591199e-01,5.242757077954744993e-01,5.164277944211901339e-01
4.199833413837853469e-01,4.700941292463833299e-01,5.208730551264535436e-01
5.930536564716043513e-01,4.752282362231731172e-01,4.664307125107641783e-01
5.387589593930424137e-01,5.210392697917027860e-01,5.441950996452618039e-01
4.616522345873395050e-01,5.810340218341032426e-01,4.671230460786042760e-01
5.374866294286082535e-01,5.170028799475638870e-01,5.504543370984092965e-01
5.211308420259459506e-01,4.674788062797096688e-01,4.247740576960414294e-01
5.388288460917025624e-01,4.983921824508362741e-01,5.227055522943457877e-01
5.031332607925397271e-01,4.136819168635836319e-01,4.851178105264756790e-01
5.417366280649997812e-01,5.139474543917196270e-01,5.406455232222940888e-01
4.884925452347633201e-01,5.138272667654439907e-01,5.353090655799915831e-01
5.597931002351029806e-01,5.226437321772791078e-01,4.718493964010561648e-01
5.123719296814154278e-01,5.376420629555410668e-01,5.291009675771961573e-01
5.016806452097869462e-01,5.330331637036598291e-01,5.912331631987930436e-01
5.657262593210520274e-01,4.719900012216148300e-01,4.939389385741220218e-01
5.062897471949623363e-01,5.371745580764623051e-01,4.377082409936943752e-01
4.375978410299432575e-01,4.434284497073723297e-01,4.717738624250349955e-01
4.906393437928620038e-01,5.218836400771565964e-01,4.916631794644698017e-01
5.239186642397721805e-01,5.007563353083388513e-01,4.676042014655147905e-01
4.361259204414076884e-01,4.640318877215746651e-01,5.042026140020456904e-01
5.265850931869334728e-01,5.222389269157295955e-01,4.117844880150756670e-01
4.651292777477156193e-01,4.743069569372665439e-01,4.983194318936445266e-01
5.093246865167143644e-01,5.254664719725148370e-01,4.641857404623420114e-01
5.294184394790039105e-01,4.998650649023789194e-01,4.998166524238014108e-01
4.996781367710880772e-01,5.281203037617978602e-01,4.477524848411602032e-01
5.199925128997637813e-01,5.036766091585409555e-01,4.625698536275894557e-01
4.854817175767454640e-01,4.922040635270816811e-01,4.526988912870443804e-01
5.120523173059309263e-01,5.881996998348986150e-01,4.754231156560150273e-01
4.628971770828737009e-01,5.684298319555786128e-01,4.794915897717862974e-01
