accel_x (m/s^2),accel_y (m/s^2),accel_z (m/s^2)
1.021237652600265888e-01,1.051575888165779404e-01,1.077062865580196949e+01
9.980524254364803172e-02,1.002249366544660097e-01,1.078011489024417990e+01
9.799468540511559189e-02,1.020308768891508983e-01,1.077261165891406947e+01
9.513520278169723676e-02,9.805530019967992339e-02,1.077518303669283384e+01
1.018532887560339162e-01,9.923248991111467687e-02,1.076912759269186814e+01
9.614601154664551008e-02,9.125023088846399844e-02,1.077838725001138798e+01
9.759479740293786065e-02,9.958999496254739014e-02,1.077670234085534418e+01
9.583021284741415069e-02,9.158953844511333320e-02,1.077928056610671881e+01
9.894023198922749507e-02,9.164122657699444452e-02,1.077571177795141821e+01
9.719224320211290735e-02,1.026244657012121558e-01,1.077836653516257392e+01
1.008862351032211030e-01,9.782275035283709286e-02,1.077035574617464242e+01
9.750502589423479249e-02,1.065744771751534481e-01,1.077298225680646127e+01
1.098823414278734534e-01,9.907164298152237869e-02,1.077663931795794205e+01
9.453278168082297761e-02,9.906735068566213664e-02,1.077290830672900412e+01
1.080739438144555503e-01,1.015015652605916474e-01,1.078756479251264722e+01
9.142955605006859721e-02,1.000078463276682927e-01,1.077121178671727009e+01
9.775136816526359962e-02,9.663199122574993305e-02,1.077453650748407377e+01
8.483624529931529934e-02,9.395611769652445489e-02,1.078151296074465648e+01
1.077412954055336214e-01,9.790718524330595252e-02,1.077522040225481170e+01
1.029763109920690811e-01,9.212937853620249695e-02,1.077359310507670642e+01
9.302940664840750329e-02,1.044653337123814807e-01,1.077669321052285234e+01
9.284983216552458729e-02,9.079863264114060306e-02,1.076609575374719974e+01
9.957597400976928026e-02,9.335627968022290613e-02,1.076869973773523803e+01
1.017417153997788176e-01,9.731263962732746020e-02,1.077468614025463189e+01
9.596145292156263440e-02,9.396454051905378524e-02,1.076998565258121410e+01
9.092440194962296551e-02,1.010060345484918298e-01,1.076650216462636322e+01
9.902236233091404882e-02,1.038757817966788066e-01,1.077302111469848178e+01
1.076545297907080673e-01,1.020698528136344818e-01,1.076336268359859716e+01
1.066956203567551859e-01,9.081994244847690911e-02,1.077585428319588878e+01
1.011977670127548329e-01,1.017254314504840162e-01,1.078361198772925533e+01
9.613186831928299814e-02,9.129561822383046310e-02,1.077289736338449799e+01
1.008241666011880228e-01,9.982833343808211746e-02,1.077174482709412651e+01
9.917400996404124314e-02,9.492110669496162112e-02,1.077051299203824364e+01
9.611650753508121925e-02,1.003710209286143712e-01,1.077337614423476886e+01
9.490730439409879315e-02,1.011810091515922272e-01,1.077109380825056917e+01
9.075148859352248631e-02,1.012135459118876507e-01,1.077047930406892284e+01
9.823776896117628055e-02,1.042477989526091192e-01,1.077533943520506199e+01
9.955962800317612327e-02,1.080568055157155732e-01,1.077316993829422742e+01
9.829575777973476036e-02,1.026662785904522424e-01,1.078842806913757357e+01
9.704567322105588090e-02,8.897958663044254479e-02,1.077875632278606943e+01
1.047145911138887830e-01,9.102261109762180280e-02,1.077512668752132541e+01
9.009702662042447241e-02,9.554552617313809282e-02,1.077396973518164813e+01
9.964000447613102773e-02,1.077506141559008146e-01,1.076627901427381495e+01
9.363287383846563561e-02,9.403557694486343321e-02,1.077765801610262386e+01
9.819810133742626346e-02,9.863478218183062418e-02,1.078358073344781332e+01
9.760797247198373106e-02,9.722025331729483577e-02,1.077759239946120928e+01
8.878729325600606681e-02,1.005436838239824743e-01,1.077098551626619027e+01
1.049860180782958147e-01,9.240255738556853171e-02,1.077396100941813906e+01
9.672359482515259510e-02,9.592074807682827997e-02,1.076705085183637678e+01
9.117632940528648533e-02,1.038263624512371919e-01,1.077968010639532359e+01
9.608397856477156329e-02,9.992061001245695906e-02,1.077889456226944098e+01
9.862465509606926917e-02,8.918580029049720526e-02,1.077966873267334869e+01
9.883113867949439024e-02,9.261554114771375357e-02,1.077507316990404895e+01
9.323529169837117825e-02,1.027076098122798736e-01,1.077610761372885584e+01
9.832297456159051763e-02,1.007965768411353824e-01,1.077682783956322687e+01
9.644873577169096879e-02,9.396172984140417628e-02,1.077348497931608406e+01
8.652250936798332182e-02,9.464338444081345225e-02,1.078067389994424730e+01
9.706132364078898234e-02,1.032634877925386885e-01,1.077460958554071091e+01
9.427100338295067716e-02,9.778186683285272629e-02,1.077768700001187874e+01
9.669962147883000292e-02,9.806953157686496003e-02,1.077324806178007499e+01
9.633793260771596201e-02,9.493226993782763468e-02,1.078590272381471138e+01
9.447684152213493836e-02,9.437631207804809963e-02,1.077500241886942156e+01
9.248370454782045558e-02,1.016590516258359111e-01,1.076946124891849621e+01
9.907509234946938748e-02,1.023775722352497641e-01,1.077226887621331208e+01
9.443707975294982071e-02,8.795408910695011462e-02,1.076848575240607886e+01
1.015778794579343253e-01,1.013771931278707045e-01,1.077716354070630977e+01
1.107124700180258936e-01,1.004330985745365834e-01,1.077513465711190932e+01
1.029670148358494131e-01,9.831934003618969520e-02,1.077111527790144230e+01
1.015482491733749465e-01,9.713590956430893930e-02,1.077711302106302327e+01
1.054263629012410219e-01,1.015086587584718286e-01,1.078927137644925160e+01
9.855768693081042031e-02,9.667579751008409383e-02,1.076705933782049840e+01
9.878479436357640031e-02,9.754943123421458417e-02,1.077573654163187733e+01
9.227035375990641497e-02,1.032452829337641848e-01,1.077031475619384082e+01
9.937584845391812804e-02,9.317805909476827020e-02,1.076512687253314837e+01
1.004061737907983726e-01,1.039334595762848729e-01,1.077167421643851775e+01
1.033518643833583328e-01,1.001996370523235980e-01,1.077585145411904222e+01
1.060224956320611200e-01,1.026435725530243370e-01,1.077188206174122165e+01
9.746798895124268725e-02,1.082642425667338232e-01,1.077723495130304165e+01
9.842729799352654962e-02,9.852675905022663383e-02,1.078412322954846836e+01
1.039490758404117282e-01,9.245632644064202821e-02,1.077489222761474252e+01
9.786887502986722775e-02,1.014756175427915380e-01,1.076838238489750310e+01
9.905535989579357381e-02,8.883254969707267412e-02,1.077868729016474347e+01
9.658050612667135049e-02,1.014701740505517535e-01,1.077575863202075723e+01
8.975458262007643406e-02,9.443302101940502513e-02,1.077845150663427276e+01
8.294637425327136548e-02,1.002234562818095504e-01,1.077186837258820695e+01
9.406728773406340671e-02,9.139098359772052094e-02,1.077324878053801882e+01
9.806469661294094087e-02,1.047269571326999438e-01,1.078255335581018670e+01
9.140235367619863049e-02,1.056093082136103645e-01,1.077908133210062402e+01
9.420226278263910125e-02,1.053757914291468950e-01,1.077663123661404754e+01
9.513040794444144188e-02,1.004891080425921873e-01,1.077290109619326053e+01
9.255029585580218376e-02,1.016247459461373237e-01,1.078404284734087248e+01
9.950809560260870379e-02,9.249266016648050037e-02,1.077535753553520692e+01
9.731250819665404617e-02,8.801699403944333866e-02,1.078520824086548657e+01
9.645704267210938876e-02,1.149468340102174774e-01,1.077570115515193017e+01
8.960697046064039495e-02,9.549510249109205429e-02,1.078984454564477780e+01
9.733143956247619633e-02,9.994570023436101514e-02,1.078585711608284647e+01
9.213069396169856762e-02,9.296017057325352273e-02,1.077328033181334455e+01
8.493794710140900595e-02,8.889612843591680746e-02,1.077895172935740398e+01
9.692632789601815513e-02,9.711004585349368445e-02,1.077884180514718437e+01
9.626518000189250579e-02,1.023392105414793890e-01,1.076622914682724108e+01
9.064902128767317324e-02,9.824018134671314018e-02,1.076574055158106802e+01
1.071028947321056718e-01,9.987371515203298522e-02,1.076916481711110052e+01
9.245919595983555228e-02,9.434897079575768619e-02,1.077215618247588047e+01
1.053647536617858121e-01,9.877997003979545332e-02,1.077322502663165871e+01
1.011869003050984844e-01,9.396583393526937444e-02,1.076839073020286008e+01
1.007376879168629669e-01,1.051744074613939345e-01,1.077968466220032617e+01
1.008314354615758579e-01,9.596593954279374061e-02,1.077289804421974395e+01
9.958101905064947745e-02,9.836913406757011313e-02,1.077410995725536758e+01
9.749959988385878407e-02,9.613134882989242402e-02,1.077211082197401382e+01
1.015578799574866631e-01,1.074763975827971035e-01,1.077447780031667968e+01
9.861295815208043214e-02,9.792893786295306380e-02,1.078160143963995665e+01
9.877915218487752502e-02,1.100587907443861813e-01,1.078703175392662139e+01
1.031279804619198159e-01,1.065735319298224543e-01,1.077572604389151145e+01
9.870125192081202758e-02,9.568892447819490887e-02,1.077698919024596513e+01
1.069060075540147620e-01,9.504568145753156116e-02,1.078441819687581926e+01
9.754671757857098779e-02,1.046689309646141597e-01,1.077290459859211147e+01
1.025676260166617226e-01,1.021284627286364599e-01,1.077208029683304069e+01
9.233774698204973153e-02,9.772546057559827748e-02,1.076576683662907641e+01
9.150909752691914478e-02,1.003556535803784983e-01,1.078888571603066637e+01
1.084110142320010711e-01,1.024254294523555958e-01,1.077011274097061388e+01
1.026219106655284485e-01,9.484681724321027130e-02,1.076806411061089008e+01
1.059269596087561299e-01,9.898832766954801521e-02,1.075914452117480202e+01
1.000864595553097869e-01,1.005082132922729410e-01,1.078025767284882086e+01
9.042577711717379729e-02,1.034004663341894503e-01,1.077752042894777773e+01
9.408153448549171072e-02,9.920742729720674613e-02,1.076893639669956215e+01
9.883790491429686464e-02,1.061844731136524778e-01,1.077573083121189867e+01
9.546759511668799492e-02,1.018437405638751708e-01,1.077116322796645775e+01
9.203514094758116770e-02,1.025149105890598017e-01,1.077314783968798828e+01
9.093017133759775938e-02,1.006195478558728346e-01,1.077901260861257171e+01
1.024093467254226508e-01,9.602190326273092602e-02,1.077455942418750645e+01
9.495699558354245284e-02,9.490678848774547482e-02,1.077502367793740135e+01
1.013505300900154199e-01,1.021895066851384593e-01,1.078131967590191032e+01
9.656392668589094952e-02,1.029947816541658678e-01,1.076865283207932400e+01
1.074186539040400956e-01,9.179481666464769929e-02,1.076820579777183085e+01
1.000170389744202137e-01,1.022793659635545943e-01,1.077199124930960039e+01
1.070937409696343934e-01,1.053687881347013244e-01,1.077721030991647488e+01
9.763033150332944832e-02,1.042491801806662566e-01,1.078276530674394529e+01
9.628073931097140548e-02,9.840996156414751062e-02,1.077712575053981503e+01
8.994971319885368410e-02,9.252620358430790892e-02,1.077664599921174293e+01
1.010792678282263907e-01,1.055966038208373120e-01,1.076251021743835601e+01
9.735278537052939607e-02,9.704714346898914157e-02,1.077221510935124549e+01
1.003267682806973371e-01,9.832325455003669556e-02,1.076566020109126853e+01
9.183190685534038666e-02,9.585385849032895811e-02,1.077648478067868076e+01
8.700769304171195040e-02,9.984382326388074880e-02,1.077076590987346627e+01
9.443572803672758975e-02,9.555132819426778723e-02,1.077265955745421699e+01
9.350030212125128026e-02,9.037448557434829555e-02,1.077649559786675937e+01
9.757001290327518839e-02,8.795902230307689473e-02,1.078105279224010005e+01
9.232238240923834605e-02,1.037551237972356849e-01,1.077052435302897848e+01
1.036468848031140699e-01,9.688893120823864613e-02,1.077335269963093012e+01
9.549199286810991505e-02,1.036992194723257293e-01,1.077472480811221800e+01
9.280952142577807151e-02,9.870166586361053818e-02,1.077293023609258604e+01
9.913849885854622568e-02,9.805552258846826630e-02,1.077493142948014260e+01
9.539997650188263012e-02,1.034673790616810612e-01,1.077231032850691506e+01
1.019101311248568620e-01,9.022729865122267046e-02,1.076706945906551915e+01
8.789891732099629207e-02,1.006537301063309131e-01,1.077661047557022300e+01
9.065843342884523370e-02,1.040634812531367054e-01,1.077361271022081191e+01
9.700395190895032271e-02,9.499775966862711307e-02,1.077633992988398859e+01
9.204894049502548858e-02,9.519660393317085079e-02,1.077080095858106112e+01
9.792133973950579995e-02,9.279902251655149092e-02,1.077215974276156985e+01
9.122017680669618211e-02,1.000847926240259894e-01,1.077919121233332689e+01
9.044948892842336052e-02,9.357909792417083705e-02,1.077121973661034815e+01
9.438001234425631714e-02,9.218261869984546719e-02,1.077978431954644734e+01
1.007597991084512451e-01,9.581829648511047681e-02,1.077577168560942411e+01
8.671243210972430504e-02,1.078869195041844004e-01,1.077141145518707432e+01
9.806482591780368852e-02,9.644542710990350320e-02,1.077298899300414448e+01
1.024872475671117084e-01,1.006981583858901075e-01,1.077523996043048449e+01
1.046417980662367325e-01,9.738516745531154706e-02,1.077186218544292018e+01
1.029048104667924096e-01,1.001150271856024176e-01,1.077005753690230172e+01
9.531066059848383731e-02,1.066657616055903535e-01,1.077424744957952285e+01
1.034389841278161026e-01,9.722840777759574060e-02,1.077012766338493854e+01
9.674113461353803234e-02,1.031823000940851609e-01,1.078164755488071691e+01
9.405236536338566766e-02,9.638897595413621622e-02,1.076493115987921279e+01
1.024548077592203205e-01,9.876664963998361968e-02,1.077460049176756662e+01
1.067352080820874738e-01,1.010329451735304251e-01,1.077709205132839543e+01
1.008192542747940179e-01,1.038030104449476493e-01,1.077236224620675742e+01
1.003020225333704774e-01,9.762480883295952816e-02,1.077174128524681329e+01
1.040456755862709387e-01,9.922462867569829814e-02,1.077433399767427069e+01
1.061492003270067264e-01,1.000681703910403925e-01,1.077256810428361611e+01
1.002341485206065808e-01,1.115409824476116529e-01,1.076912270462388932e+01
8.889811998963614847e-02,9.899591655349379571e-02,1.076647912605717927e+01
1.045580245466280894e-01,9.792041945638109424e-02,1.076943970471424628e+01
1.052610633180356692e-01,9.788108646330785645e-02,1.077886102096421439e+01
9.851987337744595730e-02,1.008907200471055587e-01,1.076861274373692723e+01
1.013184949314166472e-01,9.363945597100278850e-02,1.077853254730583465e+01
1.074022196377161231e-01,9.740714264254590748e-02,1.076799219182733047e+01
9.886602649763505390e-02,1.046307647308222510e-01,1.077356339006242258e+01
9.046011237663924287e-02,1.110154241085337251e-01,1.076894304195407237e+01
9.293556337548326829e-02,1.027736531570968559e-01,1.076714453714908082e+01
1.031466820926526112e-01,1.032116447170250417e-01,1.077837524613359754e+01
9.938889618379677382e-02,9.399336418635076407e-02,1.077084354433162972e+01
9.288446694676535942e-02,9.146993991909846411e-02,1.077663421764061269e+01
1.004977825661708402e-01,1.028828493324946414e-01,1.077369379030856322e+01
9.912821856152372046e-02,1.016560523498006990e-01,1.077098126168792547e+01
1.008733454417923975e-01,9.387258242961273036e-02,1.077970530542462235e+01
9.820666372139238987e-02,9.934332846488667934e-02,1.077820097819519418e+01
1.041336283342032404e-01,1.001200225836390151e-01,1.077184135482184679e+01
9.273943911259636963e-02,9.866952630706260496e-02,1.077493457292697876e+01
9.642689517637158259e-02,1.076566990091551712e-01,1.078241323436577304e+01
1.007889069248465996e-01,9.814289212948741625e-02,1.077457629787853399e+01
1.042805124466343741e-01,9.821440439141040923e-02,1.078012414894912396e+01
9.045179247957717272e-02,1.046325453635499891e-01,1.078220353681226129e+01
1.000210051527040817e-01,9.747209845366885950e-02,1.077495853698804495e+01
9.689924425691703869e-02,1.003704724562159284e-01,1.077476175968514482e+01
1.030189633539025373e-01,9.161647394217364848e-02,1.077402369961699335e+01
9.825656349437178472e-02,9.993334011863369559e-02,1.076140394169372172e+01
9.623002814627557022e-02,9.679638849382977972e-02,1.077243412546724954e+01
1.061539517731648063e-01,9.329369816898232248e-02,1.077423922014458313e+01
9.450435999200106074e-02,9.480017071880686430e-02,1.078204652665570507e+01
1.024908805280854290e-01,1.068429063312717198e-01,1.077204122813928677e+01
9.933806345285076111e-02,1.039129053866544722e-01,1.076760505930976919e+01
1.026034777379736390e-01,9.246609863622930192e-02,1.077057364247723470e+01
9.320629975380345655e-02,9.998221952576208382e-02,1.077408846376959062e+01
9.454558288019518364e-02,1.013751667648671584e-01,1.077734510732995332e+01
1.002654962538365863e-01,1.012145721326698361e-01,1.078221245047890520e+01
1.116900853685357659e-01,1.071555296691188014e-01,1.077970179463499001e+01
9.463249465025548590e-02,1.057827854021191477e-01,1.077536192853088970e+01
9.554786015077694483e-02,9.041421782830943998e-02,1.077907742885131803e+01
1.022686148564280889e-01,1.008829156079055628e-01,1.076764839840220134e+01
9.138545663156280585e-02,8.728417600509801033e-02,1.077432842440752836e+01
9.558363843449411978e-02,9.460754663380731289e-02,1.076878336201381536e+01
1.025951420529507274e-01,1.032450809412357173e-01,1.078625346452116851e+01
9.050217499829764367e-02,9.574577570293864304e-02,1.076934395723116111e+01
9.049556412704760910e-02,9.401648465141823618e-02,1.077199570906819126e+01
1.003422509176519900e-01,1.002432987011718096e-01,1.077253661708581056e+01
1.052127078036639851e-01,1.024531814310298827e-01,1.077501765181825633e+01
1.047979868704248113e-01,1.000899583162617179e-01,1.076989500583711568e+01
1.072966429402945621e-01,1.111109745255437764e-01,1.077433582846286697e+01
1.016493272656549540e-01,9.816867445339463871e-02,1.077153000120278392e+01
1.026876781287844181e-01,1.052760896338202634e-01,1.077846360762319478e+01
1.040328235893845932e-01,9.909612076624739474e-02,1.077710265324661698e+01
9.302541589138330069e-02,1.075897771143514842e-01,1.077509639682148901e+01
1.028793065574236526e-01,9.877768609361574359e-02,1.077643631928742529e+01
9.322694703033235220e-02,9.547525063295012049e-02,1.077824702772845811e+01
1.077056903164783919e-01,9.986554675605939513e-02,1.078039393913203092e+01
1.049039028181767558e-01,9.916438031590271707e-02,1.077164505065117872e+01
9.662946558427319699e-02,9.786320422528849150e-02,1.078292378385609496e+01
1.063442438293624726e-01,1.020184897763245085e-01,1.076724652183575515e+01
8.799607302539280695e-02,9.882017848826774031e-02,1.078037681064874498e+01
9.367768006276545878e-02,9.305618312467003883e-02,1.077483226520150872e+01
9.545868601171073053e-02,9.872130921652208513e-02,1.077486239012133318e+01
9.752707714312272569e-02,9.505043386898745505e-02,1.078394307317189771e+01
9.488178965987427438e-02,9.447597635046051101e-02,1.077988502053618980e+01
9.713999213091634166e-02,1.001641560951695431e-01,1.077648247340680498e+01
9.604559617777293223e-02,1.079655938905440121e-01,1.077058125978386016e+01
1.002976691857888764e-01,9.621099855497299014e-02,1.077967678310075428e+01
9.603141601005805994e-02,1.079218302633635773e-01,1.077410240664191221e+01
9.209568685880768768e-02,1.031522441750498259e-01,1.076248006515328015e+01
1.016166892454287707e-01,9.286541842162132632e-02,1.077225885127135285e+01
1.053788727546279419e-01,9.971755832402216801e-02,1.077967520433688087e+01
1.040196779227094553e-01,9.642213780316047367e-02,1.076819034765929572e+01
9.892538332774443444e-02,1.023366212898478567e-01,1.077809889545020816e+01
8.875155311158328120e-02,9.874685454590277633e-02,1.077856592721419382e+01
9.859830772377392583e-02,9.242254763045920640e-02,1.077564576932527451e+01
9.719456916720733974e-02,9.456085243206363566e-02,1.078106044301731359e+01
9.606389784756430572e-02,9.487056152537583220e-02,1.078644953557449071e+01
1.063356442976337857e-01,1.000191732276961981e-01,1.076821783933330323e+01
1.019461416553037736e-01,9.539294860508959473e-02,1.077293916789041894e+01
1.044975765023675729e-01,1.077199866965565800e-01,1.078186167946801000e+01
1.006669944146149770e-01,1.045123434335219065e-01,1.077419471538933671e+01
1.072407700996916152e-01,9.879900297317585622e-02,1.077579747068140748e+01
9.874259401012391857e-02,9.331077485384167702e-02,1.077739458395641670e+01
9.924296000100119031e-02,9.713009658121099510e-02,1.077500370644774463e+01
9.409574050194705053e-02,9.447787099778214015e-02,1.077781812843596398e+01
9.388366950478241324e-02,8.932793139211422928e-02,1.077275859666347912e+01
9.964994367592210078e-02,9.705007099813722782e-02,1.077894848986741216e+01
1.034426496677839508e-01,9.833153802640906549e-02,1.077612576422155577e+01
9.598269753726022813e-02,1.043907480405640159e-01,1.077297847847315460e+01
1.011784576750097836e-01,1.002542754253763074e-01,1.077340006674102035e+01
9.323316101518853982e-02,1.020683554779206192e-01,1.076747130890316484e+01
9.685416699041912714e-02,1.029329310215471582e-01,1.077535717286360395e+01
9.614264155372480303e-02,1.052693125279690889e-01,1.077412379615721427e+01
9.886657594566439222e-02,9.557049939141425143e-02,1.078606667650261564e+01
9.813440999116067320e-02,1.005181128150022946e-01,1.077836120229804528e+01
1.098590703099833615e-01,9.885845117896184531e-02,1.077200413609079988e+01
1.037592072327378906e-01,1.002522126639559807e-01,1.077186337060560462e+01
9.269657303837032514e-02,9.972452197349901404e-02,1.076642600325525123e+01
9.992902568373407401e-02,9.756290665909576887e-02,1.077531989023919401e+01
9.697373838800249501e-02,1.048880410226703808e-01,1.077560187577797635e+01
9.077867524030285018e-02,9.857309100890632170e-02,1.077600107808462759e+01
9.439564612289766399e-02,9.820956995599421091e-02,1.076736814847439838e+01
9.933809572864887860e-02,1.010281644033594467e-01,1.076419752066946778e+01
1.028818130820107341e-01,9.741024880136199549e-02,1.077082688262702526e+01
9.609722574448320564e-02,1.010921617802878758e-01,1.076963727596047526e+01
1.066497695343505137e-01,1.004752211446130750e-01,1.076979242132817660e+01
1.011749312417149632e-01,1.015849870156044915e-01,1.077224921650316958e+01
1.005478758020945940e-01,9.187718669387735793e-02,1.077285461529094768e+01
1.016879936137192880e-01,9.627025746851168575e-02,1.076629634872549879e+01
9.649409303831280038e-02,9.913850238780362589e-02,1.077463124943045436e+01
9.770052093737582877e-02,9.258637152792931202e-02,1.077734249037530034e+01
9.185544022258847197e-02,1.029683404522496459e-01,1.077134307241826683e+01
9.856497945635393776e-02,9.263871865778328107e-02,1.078086034114344649e+01
1.032930068701749526e-01,9.549932490930972129e-02,1.077619011052804865e+01
1.006755190823597490e-01,9.225522910482830685e-02,1.077140942421189607e+01
8.749431287135150948e-02,9.295421052748903401e-02,1.077636242481289486e+01
9.887910234856502056e-02,9.735731330346543422e-02,1.077493586720732210e+01
9.684996916258520328e-02,8.973733532251317035e-02,1.077884453856115776e+01
9.884526249318742464e-02,1.014199054413686824e-01,1.077490963517662159e+01
1.032106617032567536e-01,9.674260014374257144e-02,1.077064959156634671e+01
1.010186082126602047e-01,1.016250994739869851e-01,1.077128529252172484e+01
9.921008040172649145e-02,9.655919760001213659e-02,1.077388495617004871e+01
9.845369283297859819e-02,1.027136044400738663e-01,1.077016614714717946e+01
9.239942649253940488e-02,1.054550760229107237e-01,1.077647963807722498e+01
9.593170715411855620e-02,9.890698217000105930e-02,1.078415565511600427e+01
1.019576083383922915e-01,1.030051258726483732e-01,1.077181866068663219e+01
9.428161410581403779e-02,9.422831256646956033e-02,1.077141352051820355e+01
1.037155503320675992e-01,1.007041000812229220e-01,1.077114374569892519e+01
9.452203558086090529e-02,9.235146241713454440e-02,1.077229307028108707e+01
1.012081241218389521e-01,1.035242583742464473e-01,1.077478120002970918e+01
1.064392546423651303e-01,1.040528063607785575e-01,1.076468209884942340e+01
9.760466748384973024e-02,9.663157361520255395e-02,1.077168020907541113e+01
9.814428085731137508e-02,9.443491400234541033e-02,1.077644527280459918e+01
1.004351875873138733e-01,9.882923032239404604e-02,1.077219920916047258e+01
1.038519280091921848e-01,1.011783398380337595e-01,1.076783167895085036e+01
9.537819472636828444e-02,1.003240908088315758e-01,1.076402200684885813e+01
9.127092913947548736e-02,9.790913355022493048e-02,1.077019070598185557e+01
9.868838100931864865e-02,8.492085117314049358e-02,1.078110188821146487e+01
1.001746914125230814e-01,9.633189223556939962e-02,1.078006080929272947e+01
1.054211842836309532e-01,9.521194950715260175e-02,1.077831238906697031e+01
9.671183728992847894e-02,9.896315603791833171e-02,1.076294000333516898e+01
1.020218005580683512e-01,9.633207970284558830e-02,1.076908778287382695e+01
9.387355360809114535e-02,1.029972942908450179e-01,1.078206614776541450e+01
9.662953879601222928e-02,9.606864863059381976e-02,1.077488180196047018e+01
9.883748850416992915e-02,1.017570843315361157e-01,1.078097318067100829e+01
1.051916353403442028e-01,1.000227546131897266e-01,1.077167379404879632e+01
9.298287597419958861e-02,1.035685497856932286e-01,1.077155882356350780e+01
9.829094238607129219e-02,9.636178042780974007e-02,1.077139963774557074e+01
1.000537580160159312e-01,9.796690579207599503e-02,1.076979079181385934e+01
9.960307682187352629e-02,8.706939294743400171e-02,1.077862119286929854e+01
1.016843898681132063e-01,1.016335817563178145e-01,1.077030970535173537e+01
9.566538432478910448e-02,9.840785246179331591e-02,1.077174070816728779e+01
1.091849102790371229e-01,9.741208292467998242e-02,1.077696494088814028e+01
1.022389252201314214e-01,1.041416546302072754e-01,1.076512774396372230e+01
9.151390478418881813e-02,9.148436766638977369e-02,1.077265002345283484e+01
9.509127056516071541e-02,9.608530272486996704e-02,1.077262210561218581e+01
1.069232459356502241e-01,1.038373862858642666e-01,1.077414636092691147e+01
9.395075622281831573e-02,9.214416251295280691e-02,1.077317084555585680e+01
9.795091850837614467e-02,9.969257351245813803e-02,1.078295454536421261e+01
1.100709395707227811e-01,9.638020814550891935e-02,1.078617929152992083e+01
9.790670475347397483e-02,1.033992848033168238e-01,1.077599573436731362e+01
9.685329213528540149e-02,1.012545674974617282e-01,1.077396018640576258e+01
9.859497972098645036e-02,9.878513871941044244e-02,1.077955691357175461e+01
9.449038989818098200e-02,8.983129716870803805e-02,1.077946045391476027e+01
9.495280996904224835e-02,9.643747908014382864e-02,1.077240354680533407e+01
1.030260515171992491e-01,1.005077597520889765e-01,1.077519164914227190e+01
9.227231025406255893e-02,9.659077327005385905e-02,1.077441570930591830e+01
1.011911334213592278e-01,9.219668040052265978e-02,1.077665546943510044e+01
9.301663902275322804e-02,9.405134910719611940e-02,1.077225849932819557e+01
1.060387957665148567e-01,9.708481069542056197e-02,1.077821540179512994e+01
1.022225539836921215e-01,9.861207460936184666e-02,1.077137172321571512e+01
1.050666021043385745e-01,9.961163345238836786e-02,1.077325261040587989e+01
1.049844640139919044e-01,9.817803210181919038e-02,1.077967704224706047e+01
9.150917061468770430e-02,1.033353380932637150e-01,1.077906887677459125e+01
9.216593573760942237e-02,9.447238808579296043e-02,1.077802282110356202e+01
9.604745634625928841e-02,9.972991205551041960e-02,1.077404877137613326e+01
1.032036628675871148e-01,9.528073170496781374e-02,1.078449238678625122e+01
1.015652273625149704e-01,9.447602463689151742e-02,1.077009392827243062e+01
9.649739666679593708e-02,9.376624717762484240e-02,1.077552395154537734e+01
1.090653586543337272e-01,9.510816884406715632e-02,1.077279495835898082e+01
9.077006767802416054e-02,9.860097819761375060e-02,1.077919435846893670e+01
9.220583990309873246e-02,9.509268944523968647e-02,1.076348514735799888e+01
1.019113419952705907e-01,9.957563497217897241e-02,1.077104321323136915e+01
9.628697277114610376e-02,1.021601014135413432e-01,1.077488344500498130e+01
1.064719635504837308e-01,9.188882089892538851e-02,1.076410206670183278e+01
9.135135650031575572e-02,1.019942071295248109e-01,1.076102854761736971e+01
9.793594265476564253e-02,9.555800116168763902e-02,1.076880110108640842e+01
1.031330540359079589e-01,9.711795413985827019e-02,1.076983066890731777e+01
9.865348448530827929e-02,1.021916236819708779e-01,1.077395831319243236e+01
8.767563270860961877e-02,1.032124901657733296e-01,1.077619876828769385e+01
1.000218472383920809e-01,9.277907392854971291e-02,1.076438888466176635e+01
1.022202683028627518e-01,1.028255443044153866e-01,1.076682288637654317e+01
9.409947485321398797e-02,9.834473917488296968e-02,1.076600123814388255e+01
1.004513890612726834e-01,1.018107088765264345e-01,1.078290350851115598e+01
9.916738440434925972e-02,1.086340895841476084e-01,1.078343795935402660e+01
9.700380355761371864e-02,1.017651331016407590e-01,1.078194093338831117e+01
9.454031681812960497e-02,1.025290331686160988e-01,1.077423677873283836e+01
1.019141305082073012e-01,9.630639927945408574e-02,1.077540282061049481e+01
9.524993220760158419e-02,1.020421744427474492e-01,1.076871485934185735e+01
1.022242977514589285e-01,1.002033845212744467e-01,1.077151387077217848e+01
9.666698420380871737e-02,1.030900955368378447e-01,1.077313744417318730e+01
1.016532465765252191e-01,9.676606655596056705e-02,1.077225893538404655e+01
1.016927486939897540e-01,9.608248599331273287e-02,1.078038627114304404e+01
9.884204011076144769e-02,9.587217150030465096e-02,1.078084113256976728e+01
1.014031214413435578e-01,9.775507708312938804e-02,1.078310035629028896e+01
9.784241268711410533e-02,1.034049169496245035e-01,1.077103782416890532e+01
9.627387263439400600e-02,9.841821822978934209e-02,1.078080136098191311e+01
9.854366225240915322e-02,9.314115067650721724e-02,1.076979012320187756e+01
9.728863637820432675e-02,9.045175730400713265e-02,1.076637000958636214e+01
1.054224680405988074e-01,9.748375545824740362e-02,1.077506742296317199e+01
9.457216906147972169e-02,1.025333358455004507e-01,1.078062525303397123e+01
1.038917292143619470e-01,9.094701839228447326e-02,1.078052325707083625e+01
9.657961938827414050e-02,1.030473540257121068e-01,1.077643371560052898e+01
1.017109527095768906e-01,8.735781484880572600e-02,1.077276094902062376e+01
1.032837948972037262e-01,9.460253209539985775e-02,1.077289363862113447e+01
1.055102124058897445e-01,9.884117078286933089e-02,1.078102515086533764e+01
9.735862934474917574e-02,1.014984219411276811e-01,1.077743800887342651e+01
9.164036501208468188e-02,1.122439083352112232e-01,1.077760009079678660e+01
9.018048458721787675e-02,1.039493461008597353e-01,1.077598450413546161e+01
1.046727107816334268e-01,1.039981374391119318e-01,1.077461876678915687e+01
1.057151793120210820e-01,9.699178245923256725e-02,1.077241177050790988e+01
1.010038840307462132e-01,9.677422690326006882e-02,1.077295271845232882e+01
9.672752653823794844e-02,9.645239128277396934e-02,1.077539278201337325e+01
8.915485940464050463e-02,9.784277337227076377e-02,1.076394393641423264e+01
9.682609017361810955e-02,9.678650072498709567e-02,1.077462176127656690e+01
1.083378408907041818e-01,9.859312035750460168e-02,1.077553385455449586e+01
9.940504639608992166e-02,1.006187878264449137e-01,1.077536112012726832e+01
1.071656189143175009e-01,9.983153129077901311e-02,1.077460952368139502e+01
1.007628354417747646e-01,9.359812546272879008e-02,1.077881810958897191e+01
8.392342155436796625e-02,8.805393169787753549e-02,1.076928070433895535e+01
1.026478852037056300e-01,9.435480414716390651e-02,1.077795446813263958e+01
9.922342103394662938e-02,1.003734618161630093e-01,1.077342080839201088e+01
1.055457109013068773e-01,9.181639717238122833e-02,1.077879617335739759e+01
1.019090967938895281e-01,9.825691628921040532e-02,1.077238852250411050e+01
9.830848799413886840e-02,1.007201295094066612e-01,1.077759355180483603e+01
9.940293832781019190e-02,9.473245252926308646e-02,1.077825326719143106e+01
9.180691527226908510e-02,9.254269795756675521e-02,1.077499813602663181e+01
1.067138559968161260e-01,1.022227029263492043e-01,1.078253292083105030e+01
9.411911848595121144e-02,1.031318231998007290e-01,1.077790765596462919e+01
1.052146048927953270e-01,9.318081041579137636e-02,1.076826889298660106e+01
1.043753481874969691e-01,9.247978380708639368e-02,1.077539254673633984e+01
1.050911740179951009e-01,1.078173406227507514e-01,1.077762167835081364e+01
9.841191986944902714e-02,9.146552249718906125e-02,1.077898874503679849e+01
9.848320856940526169e-02,9.718448430218455669e-02,1.077947314483863650e+01
9.588240646554274660e-02,9.725466525801279571e-02,1.077452101353148173e+01
1.015216061357884780e-01,1.081098115695878353e-01,1.077655130477916323e+01
9.728260123401147319e-02,9.768563342275360384e-02,1.077209439671290347e+01
9.508978821004528126e-02,9.358232326233037468e-02,1.077534782090782528e+01
9.586466064349269400e-02,9.405368250109154282e-02,1.077417368727249958e+01
1.006868899964957487e-01,9.510831826602492156e-02,1.077298013988494318e+01
1.000624257240483872e-01,1.046543414865085120e-01,1.076841656031808192e+01
9.792279397837676258e-02,8.699772472618530483e-02,1.077264422044651759e+01
9.473249354694264490e-02,9.134594628892286905e-02,1.077210524343683140e+01
9.992799950172812085e-02,9.629627837376274202e-02,1.077730286261117776e+01
1.028288073145532944e-01,9.392761825305384615e-02,1.077376317263600036e+01
1.012766532303859962e-01,9.602952516290100271e-02,1.077549059810588972e+01
1.029202823982898474e-01,9.627653028853927486e-02,1.077752234313241075e+01
1.013414526530574816e-01,9.660035486737136856e-02,1.077511781463513962e+01
9.860947663418585807e-02,9.270993656121297166e-02,1.077161955905218349e+01
9.588971165042500799e-02,1.042962404658859948e-01,1.077968297076244397e+01
9.913644887757322444e-02,1.010465273060019986e-01,1.077273968652724889e+01
1.082178630882082021e-01,9.945032990957833330e-02,1.077848192052121590e+01
9.965390538738898296e-02,1.020099467120737929e-01,1.078022918103387617e+01
9.816166604938375562e-02,9.631928650920068558e-02,1.077878076444179278e+01
1.059648229317360357e-01,9.448788016181251803e-02,1.077881627992890579e+01
9.528796327019543877e-02,9.727818203518168172e-02,1.077623618929066218e+01
1.025517977680281412e-01,9.606596653770567429e-02,1.077901339915920964e+01
8.644829923377249370e-02,9.628539565105859177e-02,1.077174784878648239e+01
9.195851682640651670e-02,1.019182216951100978e-01,1.076883233454758759e+01
1.011062326889089480e-01,9.730780032626881737e-02,1.076949401020936392e+01
9.660020741052988136e-02,1.034391304810458878e-01,1.077542028628384507e+01
1.001707884784167474e-01,9.460562512924040879e-02,1.077047793814107912e+01
1.053702204066435805e-01,9.696797435930602782e-02,1.077693274722317263e+01
9.298484453755309631e-02,9.019032876407591381e-02,1.077656626473217649e+01
9.518041323910060580e-02,8.386580361289701357e-02,1.076392512099388021e+01
9.286075077450452187e-02,9.716793386986559422e-02,1.077920379397432882e+01
9.917468025258491249e-02,9.521249943837570284e-02,1.076827826755434714e+01
1.004761441965094093e-01,1.060936260196609637e-01,1.077296190960129074e+01
9.855552708422610220e-02,9.900999693162461368e-02,1.077020843675438755e+01
1.009215227146146587e-01,9.904700125464405147e-02,1.077744745899878076e+01
1.052766543122868326e-01,9.571224822927620890e-02,1.077655884483728777e+01
8.727258768581933057e-02,9.348257704685367098e-02,1.077653944295522237e+01
9.637016874082217355e-02,9.894012536764471011e-02,1.077890061264423416e+01
1.023923375578432438e-01,1.011566130037484801e-01,1.077566643924654777e+01
9.959434827619867425e-02,1.006887903168535853e-01,1.077589131579279780e+01
1.034871898573211380e-01,1.003978280951365321e-01,1.078128366089251600e+01
1.041626995050586868e-01,9.301616657014954992e-02,1.076842676666472265e+01
9.610669263219018266e-02,1.064745572226407921e-01,1.076706438190597659e+01
9.296780747587243821e-02,9.971797893368500310e-02,1.076938087719610770e+01
8.399190486444656212e-02,9.649106000734071487e-02,1.077353645772250701e+01
9.506064858229569536e-02,9.114780266004071652e-02,1.077432400109212551e+01
9.550467709769802638e-02,9.667790079505658718e-02,1.077264720391067421e+01
9.100224998857470160e-02,9.604587625254988603e-02,1.077806055735626423e+01
1.037264284172311618e-01,9.767323786327136714e-02,1.077520541331808701e+01
9.561171046875119317e-02,1.032934062950942311e-01,1.078014862559523657e+01
9.365537500492500389e-02,1.037659931552219889e-01,1.076975756873834555e+01
9.708521406788278574e-02,1.025639567483599551e-01,1.077177117160229436e+01
9.810237901286476825e-02,8.637772489398728992e-02,1.076686790291541840e+01
8.938754164899216648e-02,1.027491600274945682e-01,1.077472988222055861e+01
8.483671948584571576e-02,9.482344927681313207e-02,1.077663376963426067e+01
1.113864363944685326e-01,1.003179244004261395e-01,1.076850802338384661e+01
9.874572532139201664e-02,1.045315285395536781e-01,1.077722052244836171e+01
9.937288938066238253e-02,1.016575608397187191e-01,1.077235648231474663e+01
9.840745955432114722e-02,9.359261363498704023e-02,1.077481165292263832e+01
1.001881806719992635e-01,9.507995254547449426e-02,1.077679865638595125e+01
1.002105747014808840e-01,1.025150658814704824e-01,1.077172356267712061e+01
1.009739904350268336e-01,9.742543217084927154e-02,1.077698625615652794e+01
1.036693107938747443e-01,1.043039684843566628e-01,1.077391770300608798e+01
1.075959036728454665e-01,1.037870777265694627e-01,1.076890503991267245e+01
1.066448500182034381e-01,9.838373849790027492e-02,1.076574997150154900e+01
9.777306119892043013e-02,9.899449748199931620e-02,1.077930565218315451e+01
9.394214145362858592e-02,1.012317077311350733e-01,1.077523666822396642e+01
1.011379492773682581e-01,8.843410492342246298e-02,1.076854201024352520e+01
9.989948990876734713e-02,9.306011053765347874e-02,1.078384867860779650e+01
9.849950528611139955e-02,9.801157239682350975e-02,1.077339258621053020e+01
9.913118916815187587e-02,9.159088026000435090e-02,1.077502741080331106e+01
1.044879097038937804e-01,9.664028251717587947e-02,1.077270266098986440e+01
9.464069898337609810e-02,9.561844505848730857e-02,1.077235142259432443e+01
9.253083548454375806e-02,1.059469993181954700e-01,1.077707473545940786e+01
9.567073209001011880e-02,9.614705932438709357e-02,1.077187879420913497e+01
8.863868292731900966e-02,9.411031446462396477e-02,1.077626094608264751e+01
9.001607793838897753e-02,1.078304755728247966e-01,1.076779938570275164e+01
1.068104317545907900e-01,1.057594430338231056e-01,1.077263672957803387e+01
1.142165820531747950e-01,1.001767720815711221e-01,1.077715466714110981e+01
9.574305384139418507e-02,9.297576252849612533e-02,1.077197021990788706e+01
1.021288415359373342e-01,1.009939908379971774e-01,1.076651056518663729e+01
9.586093738226358907e-02,1.036639586573658012e-01,1.077540014059029794e+01
9.199467715782624899e-02,9.142617815789969016e-02,1.076668111977365783e+01
9.296204041443988098e-02,1.011660087401709401e-01,1.077301297657440671e+01
9.576171269522944229e-02,1.031485503395091208e-01,1.077196623619160398e+01
1.001210710274414856e-01,9.863542601666608345e-02,1.077793561639861686e+01
9.812502661247675395e-02,9.367863571718949844e-02,1.077663094515089170e+01
1.014320941887512095e-01,8.455717600950131418e-02,1.078083744320147908e+01
9.044023761257187488e-02,1.000930513902878183e-01,1.077554226760564227e+01
1.016467209877309902e-01,9.797941158571460418e-02,1.077294546793561913e+01
9.859939634467626557e-02,9.862949007093813059e-02,1.077427247688861556e+01
9.935895338138217570e-02,9.216155465900835453e-02,1.077205464000510204e+01
9.938763762189845030e-02,9.477708188525643673e-02,1.077812754585741040e+01
9.617309561163694953e-02,1.064415967213018233e-01,1.076739575355327183e+01
1.010184183502310790e-01,1.003779592894353534e-01,1.077157473096286822e+01
9.424991260608199528e-02,8.747996924603572422e-02,1.077313222060327469e+01
9.266012550155496019e-02,1.018433981202282873e-01,1.076738271114700574e+01
1.092043326355788130e-01,8.824016315311423997e-02,1.077725979896668740e+01
8.980518177840113303e-02,9.744835625104138199e-02,1.077310099481700512e+01
9.844242473298536744e-02,9.343114496181094408e-02,1.078079995803908631e+01
9.987481815262910789e-02,9.423721604855339606e-02,1.077850230518023089e+01
9.451080953540524909e-02,9.945089662139904030e-02,1.077054999518158063e+01
9.296478742210967372e-02,9.290480922630021954e-02,1.077425870010106657e+01
1.012174227941277788e-01,1.017418698845770492e-01,1.077048453962679631e+01
1.016733846039436229e-01,1.013521606855834339e-01,1.077055481789348512e+01
9.578833607845541054e-02,1.008442079842572919e-01,1.078360941580877608e+01
1.065820208176871398e-01,1.027397711303475736e-01,1.077504593305149960e+01
9.871305797068080645e-02,9.347736465897783786e-02,1.077333537944046604e+01
9.631556924221740257e-02,9.100627389554655222e-02,1.077318234679439435e+01
9.132339586424975675e-02,9.508530483638596986e-02,1.077455580703995075e+01
9.388359101431011100e-02,1.015077661273304371e-01,1.077430329527100383e+01
9.760118038189326273e-02,8.927918858220644516e-02,1.077797345231943815e+01
1.068711421889788349e-01,1.042629309926750569e-01,1.076836106918324809e+01
1.030141819180862978e-01,9.529949924666314409e-02,1.078006130578026323e+01
9.856984555660563974e-02,1.033930600084114887e-01,1.076723727582095869e+01
1.004537385394548149e-01,1.045731857891766953e-01,1.077956137468483533e+01
9.979499281653808618e-02,1.006377783095799838e-01,1.077193250970517724e+01
1.009080882189962863e-01,9.562433279023124788e-02,1.076836109096117333e+01
1.033844803418978997e-01,1.035567816734614677e-01,1.076931053118821424e+01
9.202622105468798164e-02,1.037499563953593884e-01,1.077296532459928358e+01
1.014626598538491686e-01,9.932853309500458416e-02,1.078316783868512729e+01
1.037445800668041068e-01,1.006274403037777654e-01,1.078093268395072180e+01
9.273897809906447853e-02,9.944384800612122988e-02,1.077446799027794988e+01
1.000224697763583553e-01,1.046350811955622517e-01,1.078228986272855217e+01
1.006343930057484182e-01,9.599966968956635816e-02,1.077159918318607978e+01
9.286333971911800433e-02,9.740972152282191543e-02,1.078419083252545718e+01
9.807682185084458382e-02,9.984904837436546499e-02,1.076969999510482978e+01
1.018461421555432733e-01,1.032660365589895962e-01,1.077332675078383417e+01
1.071156347872834341e-01,9.468349093017408569e-02,1.077203051562252156e+01
9.789957863128519178e-02,1.022567549353838451e-01,1.078012108317162543e+01
9.935208216561818018e-02,1.013059932891250542e-01,1.076862469591216609e+01
9.497250429495526780e-02,9.844903475527988501e-02,1.077671803202013301e+01
1.008127863691775095e-01,9.789531086187838738e-02,1.077264573021088268e+01
9.762944720238460328e-02,9.758206287063617146e-02,1.077169639150603331e+01
1.008916808804218995e-01,9.311971219488365814e-02,1.077437600175840338e+01
9.330533185214148761e-02,8.913575595025965970e-02,1.078022159602896046e+01
9.997563716052204619e-02,9.168912783922041065e-02,1.077434140929205597e+01
9.398464111944394850e-02,9.910680537170470095e-02,1.078210369023653215e+01
9.915907914218732855e-02,9.558197467854498419e-02,1.077004844732701372e+01
9.701074363656991828e-02,1.006732178261852684e-01,1.077136861900437736e+01
1.010351312633065712e-01,9.777730322096631066e-02,1.076369923542250007e+01
1.051974154540575301e-01,1.065332252315678296e-01,1.077190114554239564e+01
1.030032533262305733e-01,1.008405801183146766e-01,1.077116581806314599e+01
9.513888912842451140e-02,1.009719214687623545e-01,1.077901531951209613e+01
1.068975159959736770e-01,1.051365540393872922e-01,1.077934167133118670e+01
1.043490764772239121e-01,9.842517713547778435e-02,1.077161744705870383e+01
1.083789741410914886e-01,9.462306846348075839e-02,1.077171006088863692e+01
1.009302776981202965e-01,9.112776358878389715e-02,1.077380845162794998e+01
1.042798295533847036e-01,9.269001303585792939e-02,1.076612762282502267e+01
9.500394480195259450e-02,1.063587288731093344e-01,1.077779981531632991e+01
9.342504852043764796e-02,9.812777136530625999e-02,1.076877281545928255e+01
1.017505520426695703e-01,9.302413254478326954e-02,1.078093377934796493e+01
9.839876969279974517e-02,1.027766827261546861e-01,1.076841682111579246e+01
9.299084830836794324e-02,9.434604139411829904e-02,1.077414710969438971e+01
9.918672507797635096e-02,9.891827158578095358e-02,1.077710475219206820e+01
9.556354596097420273e-02,1.049460438253936173e-01,1.077379830056949395e+01
8.967256343806724594e-02,1.041407210864258720e-01,1.077282459938437320e+01
8.996861979285677990e-02,1.009726809568895767e-01,1.076544704910167383e+01
9.791796297432082963e-02,1.035551599836484205e-01,1.077415899705977331e+01
9.515185881213275576e-02,9.235650259410616014e-02,1.077612346551646461e+01
1.028595247478724384e-01,1.057209996679911307e-01,1.077814573467220249e+01
9.424734368376611049e-02,1.027371535088331123e-01,1.078215512494909589e+01
9.358859359838161973e-02,9.130657824823630586e-02,1.076642523154558440e+01
1.027054915424959330e-01,9.180687482234906049e-02,1.077589822724886304e+01
9.443516631509568660e-02,1.053211034733052831e-01,1.078172564942534351e+01
9.888165832344018857e-02,9.712521268808395336e-02,1.077911220974971229e+01
8.419392986309456872e-02,9.710148013900865571e-02,1.077722425956148022e+01
9.545099960962899477e-02,9.697679039966411452e-02,1.077282372720979353e+01
9.157801430557267752e-02,9.034612686804899262e-02,1.076996085029268180e+01
9.133955347927187607e-02,9.630733565065932589e-02,1.077063952923904289e+01
1.018160897055644942e-01,1.056407795540535849e-01,1.077153929662297394e+01
9.357144873692287146e-02,9.891833994086443593e-02,1.077054028275392383e+01
9.941162019649239789e-02,9.499684313341957842e-02,1.077800800145063675e+01
9.938642474383685421e-02,9.564013323840885039e-02,1.077387273911133825e+01
9.919874858747837476e-02,9.839125905633440416e-02,1.077282252838784160e+01
9.550800441221790615e-02,1.015903007531157726e-01,1.077560949045650318e+01
1.000348556010859785e-01,9.387579091225248251e-02,1.077771525253352713e+01
1.027558189427336677e-01,9.451162721859139582e-02,1.076721826575164087e+01
9.704708440506019940e-02,9.561746893966122096e-02,1.077250413668910412e+01
1.001206417153921724e-01,9.330366304761578133e-02,1.076782427172025081e+01
9.949348252519510383e-02,9.710634274976677471e-02,1.076838232992462352e+01
9.693182959265163323e-02,8.761795883895659443e-02,1.077901432323469777e+01
9.348389283468681865e-02,9.972634474828757922e-02,1.077096947042651465e+01
9.638169025511476862e-02,9.864882852747262898e-02,1.076739075540019996e+01
9.747093613879607987e-02,9.409078926013283994e-02,1.077371937024747872e+01
9.566488678281985514e-02,9.796906496343994741e-02,1.077106991975458961e+01
9.918879154292353784e-02,9.229167156521475568e-02,1.078568854015793832e+01
9.839840086527638918e-02,9.868676630049683096e-02,1.077317658641141485e+01
9.993413683553438454e-02,9.910630164655395702e-02,1.077746891383426409e+01
1.057218129126745176e-01,8.850319228965952689e-02,1.078039711446057325e+01
9.320586521147863901e-02,9.471376585333340925e-02,1.077196545815231055e+01
1.016736426628163242e-01,9.920480357152731965e-02,1.076886250707221748e+01
1.029961385236560917e-01,9.451770339233001028e-02,1.076802213863568802e+01
1.010178435216640830e-01,8.988681088358750626e-02,1.076435546658297149e+01
1.046956974580326022e-01,1.057998126602723021e-01,1.077277396320254255e+01
9.657640804138185875e-02,9.690314562074456295e-02,1.077653988087234183e+01
9.364994607029222817e-02,1.001617982537832546e-01,1.077366714779784296e+01
9.897472887296683564e-02,1.062659045146263637e-01,1.076814747031323805e+01
9.835626768842074819e-02,1.005940664540646151e-01,1.077351488130677737e+01
1.003935377591924499e-01,9.899951404523492371e-02,1.077232427970346862e+01
9.412091776338044058e-02,9.528182163796775073e-02,1.077347967486299396e+01
1.067541796674318089e-01,9.854344280423123215e-02,1.077568458085878689e+01
1.057952389060596715e-01,9.461548557893367795e-02,1.077528939532788677e+01
8.597685748683607521e-02,9.868759631956297573e-02,1.077531680044496554e+01
9.765464548812133327e-02,1.108090943112707977e-01,1.076759564040134620e+01
9.354765005228894703e-02,9.571335263287310269e-02,1.076969155373900300e+01
1.001530609859804244e-01,9.144582735335378409e-02,1.077271986171601270e+01
9.085353403718285370e-02,9.923174709717307029e-02,1.078029392611886728e+01
9.981123309840800317e-02,8.491948300096559266e-02,1.076915645245499320e+01
1.019574456988695393e-01,1.000296650621162603e-01,1.076649675954814356e+01
1.047244493329658188e-01,1.082080104153587546e-01,1.077889231618998345e+01
9.107322053577791843e-02,1.039179637948634272e-01,1.078045968108552621e+01
1.033228973271271695e-01,9.464199867600185667e-02,1.077038740941433126e+01
1.036355036864696072e-01,1.021914876132088146e-01,1.077300445206982715e+01
9.763266522485088139e-02,9.622575614368016061e-02,1.076862022319016887e+01
9.689001882637898744e-02,9.834495573961903048e-02,1.077637389203745499e+01
9.451833748017005044e-02,1.028118521359981385e-01,1.077879236343287772e+01
9.652162938355572652e-02,1.002370506343860102e-01,1.077247539583269997e+01
9.717791471448604390e-02,9.960841189673151630e-02,1.078047201073669470e+01
1.004530919063974792e-01,9.779467285030704615e-02,1.077522501392678045e+01
9.890472706213569720e-02,9.561312963702230106e-02,1.076569036173909488e+01
1.008845581704091166e-01,9.373348824399255208e-02,1.077549534654405328e+01
9.544473029237385275e-02,1.013438685592910199e-01,1.076864796902854060e+01
1.014649336941774033e-01,1.075457300381432724e-01,1.077284710001049994e+01
9.465812328628052386e-02,9.629556909019308664e-02,1.076594778542004427e+01
1.058685425994493612e-01,9.820531331516418883e-02,1.077874163817167741e+01
1.036539460055622697e-01,1.089905300337185162e-01,1.077505622841137978e+01
9.532780590502747120e-02,1.036215887300271504e-01,1.077573141414633362e+01
9.934595471183638171e-02,1.011615168031723411e-01,1.077303798275382540e+01
1.002381960777336961e-01,1.061410225257250484e-01,1.077545648244818111e+01
9.234522295018342264e-02,9.611782551529984842e-02,1.077609378320611100e+01
9.901036512979784210e-02,1.041480939132997663e-01,1.077278996746049522e+01
1.046842015732589032e-01,1.021417425454816952e-01,1.077225002462800951e+01
9.764754898519009685e-02,9.381647255943938168e-02,1.076696213081545039e+01
9.120516774130410509e-02,9.859043795856070602e-02,1.077614860331824076e+01
1.085582049647556835e-01,1.010573861249332989e-01,1.077806646477259456e+01
1.081645941971921127e-01,9.409233023398276552e-02,1.078011667855606426e+01
9.773318274746441159e-02,9.868291511254789761e-02,1.077822522863772470e+01
9.504638108690854903e-02,1.050087063018863842e-01,1.077367284136883718e+01
9.964290743047188315e-02,9.894147629073485328e-02,1.077684155262113208e+01
1.002637400398727202e-01,1.021326054025438884e-01,1.077402974953864323e+01
1.020040109573830955e-01,9.215770627735278553e-02,1.078218472804237749e+01
9.739246342748793250e-02,1.027688199325358237e-01,1.077603822505885667e+01
1.057961398408033687e-01,9.550393262342170286e-02,1.077519967098364262e+01
9.426881199842017389e-02,9.993975490757919800e-02,1.076440648072886219e+01
9.600745082655082197e-02,9.295887116679707463e-02,1.076959191201194876e+01
1.064509910476648807e-01,1.054397171992045024e-01,1.076769583907969441e+01
1.098555767707814768e-01,9.911453580050925971e-02,1.078180188443707621e+01
1.035772812447150193e-01,8.956044477271657422e-02,1.078123608515058329e+01
9.684302835880305438e-02,9.948755624399913122e-02,1.077055481056259012e+01
9.767142223820096669e-02,9.692201048177290224e-02,1.077175818966364673e+01
9.968529548125139306e-02,9.383040500381088778e-02,1.077854861309366008e+01
1.045654640623793347e-01,1.068871652175465703e-01,1.077436357192845584e+01
9.445811469589823761e-02,9.585791824914335901e-02,1.077690568338580235e+01
9.533729984168907989e-02,8.782454283753879376e-02,1.077782910176657793e+01
1.055424555161797451e-01,9.497329541654307705e-02,1.077389914080314171e+01
9.796768138825091843e-02,8.894629260394999737e-02,1.077939884669914683e+01
9.377190620045014469e-02,1.004421731341575974e-01,1.077698598314660927e+01
1.017778187406545853e-01,9.473430511670219434e-02,1.077198959078303275e+01
9.847751279350192011e-02,1.048472144565284758e-01,1.076914679085849080e+01
1.023030148894727570e-01,9.479880405649822317e-02,1.078188642761238469e+01
9.609904803228604131e-02,9.854250198037557695e-02,1.077989992289391274e+01
9.632213171070301561e-02,1.015799796290483559e-01,1.077345519038812682e+01
1.008862316619660998e-01,8.947797592527156896e-02,1.077745727780865437e+01
9.759251912146461871e-02,9.128797584955265776e-02,1.077556571078588377e+01
9.300833098871441607e-02,9.884968135668417699e-02,1.077695097018842141e+01
8.860708873602096691e-02,9.561800684304164188e-02,1.078055332968152769e+01
9.472330942657705699e-02,1.000799129639460827e-01,1.076983393773341113e+01
9.098276261087097361e-02,1.011701801436403619e-01,1.077716592167310594e+01
1.006519277180432104e-01,1.048288016926970517e-01,1.076916920381793474e+01
9.450465540926195063e-02,9.905447341681263007e-02,1.077371557140997993e+01
1.094141568517996294e-01,9.651382478629241812e-02,1.078171107105901250e+01
9.770707017369771596e-02,9.867888310359355930e-02,1.077984655771211386e+01
1.039295249382322373e-01,9.763843540113614772e-02,1.077905274956251347e+01
8.948061650263884614e-02,8.744363597743952388e-02,1.078158478613056026e+01
1.033922427583427450e-01,9.594347946865711130e-02,1.077696838374027521e+01
1.062167992349020429e-01,9.847975735962996580e-02,1.077369059630752446e+01
1.017705571665751541e-01,9.734245209724992631e-02,1.076543438014765286e+01
1.029355528698128047e-01,9.968404111300474546e-02,1.079046964693669075e+01
1.001273397227230855e-01,9.352776320322081505e-02,1.077214335170645576e+01
9.984472609916279773e-02,9.905554437107094712e-02,1.077945250167792501e+01
9.073823954661089375e-02,9.284560109330880495e-02,1.077463745798659289e+01
9.186143130237375831e-02,1.040832165714249136e-01,1.077408355764639403e+01
1.000170230747941397e-01,9.740711040386103303e-02,1.077089546639033557e+01
1.010007519177663904e-01,9.716998119380851340e-02,1.078379129810652870e+01
9.488855544319284296e-02,9.970659890164552952e-02,1.077703956716459466e+01
1.052987934141211002e-01,1.065390913581457932e-01,1.077110173720311970e+01
9.534432126377793970e-02,1.077353470311817607e-01,1.077895734522121707e+01
1.033240058315155752e-01,1.090139935357375828e-01,1.077579165418858054e+01
8.949518803496121777e-02,9.688574132408878103e-02,1.077810097220500651e+01
1.095275476162229783e-01,9.332787732348019061e-02,1.076678640172182888e+01
9.774490544748899723e-02,9.748615246021287428e-02,1.078232389499635069e+01
9.654487268736595962e-02,1.006691119650107297e-01,1.077363614609456199e+01
9.754396250173834326e-02,9.222667939712138330e-02,1.077584103665790849e+01
1.009216661738163295e-01,1.000046789010437809e-01,1.076638915436592825e+01
9.788762925237924628e-02,8.937524469782186232e-02,1.077052072081671952e+01
9.477484379415548887e-02,9.859113479650052914e-02,1.076453997075603652e+01
1.064411174036696967e-01,1.074757230482807496e-01,1.077182478329847726e+01
1.005237910607143931e-01,1.007413250867490728e-01,1.077002979086564416e+01
9.030786197989568165e-02,9.672805560871443331e-02,1.077637832464361800e+01
9.913540910897253311e-02,1.023071654250389123e-01,1.077265290313597035e+01
9.112628010214134100e-02,9.970045929868133483e-02,1.078202553289173515e+01
1.017759293350373323e-01,9.275196597033602552e-02,1.077759036778155988e+01
1.028809783095308295e-01,9.863157249375022195e-02,1.077814171222214767e+01
1.071257065488080140e-01,1.119496763405145312e-01,1.076915516009851714e+01
1.048308967604483916e-01,9.894088714862311895e-02,1.077127191923643501e+01
9.935380954966711864e-02,1.017276435955225544e-01,1.078645645484570892e+01
9.627966475849905614e-02,1.038512548587622181e-01,1.077617575211626466e+01
1.036052493144551528e-01,9.782383895348704950e-02,1.077901687986973300e+01
1.019140012020420261e-01,1.024931567880692507e-01,1.077102268732781276e+01
9.489844923195571436e-02,9.462980022464002883e-02,1.077284661611081695e+01
1.005872294210347767e-01,9.264407310194680556e-02,1.077106645097372351e+01
1.003598258240080837e-01,1.041926596292361562e-01,1.077538773008424045e+01
9.389060339036886527e-02,1.029806269153693277e-01,1.077532561113590859e+01
9.520762799164154966e-02,9.627450161532852269e-02,1.077381665691684276e+01
1.002802533324795020e-01,1.010579974745039050e-01,1.077248567186596340e+01
1.016210649606920369e-01,1.093424759574549432e-01,1.077588732207987832e+01
1.058483946978006629e-01,1.022433079738172268e-01,1.077662674090926842e+01
9.593969432618379423e-02,1.006858087782478706e-01,1.078374468092856198e+01
9.224115787429289226e-02,9.703051504939468053e-02,1.078810867201882040e+01
9.655857904508195755e-02,9.286174485617119945e-02,1.077646453543656868e+01
9.510266017988376619e-02,9.441805407434006314e-02,1.077580910164663841e+01
9.726205276512488174e-02,1.023942390140517300e-01,1.077787416030012579e+01
9.538016529109755171e-02,9.753164651222628878e-02,1.078316630439551815e+01
9.420586540982457679e-02,1.052693031913237431e-01,1.077853536914032162e+01
9.899467232900847902e-02,9.635877179797852632e-02,1.077685667762998101e+01
9.579260255262606050e-02,1.024886918678495212e-01,1.078797637570673551e+01
9.142658830268945991e-02,1.013326730878487819e-01,1.077459413796517040e+01
1.000590615146683821e-01,8.674652028016616168e-02,1.077888334021290007e+01
9.358393315166457782e-02,1.004439541869835972e-01,1.076578170391817935e+01
9.733037268598930536e-02,9.891157132089516135e-02,1.077384656908857785e+01
9.358365116045873344e-02,9.854841376490160176e-02,1.077749785900652846e+01
9.812901277445901238e-02,8.879269251898294635e-02,1.078236159140008432e+01
1.031465386718558308e-01,9.248948378832574924e-02,1.077600406196708782e+01
8.705101515980276372e-02,9.971170491017808390e-02,1.078024494085800988e+01
1.038609928821515732e-01,9.972444811903732886e-02,1.076512187806124210e+01
9.816674271147970976e-02,9.887181129580155381e-02,1.077807205207479591e+01
9.751388157956744629e-02,1.003605172805253493e-01,1.077020009984901527e+01
9.008416490005471955e-02,1.052834760363366845e-01,1.076684468548397255e+01
9.454596951058527599e-02,9.611833912298799187e-02,1.076794185020179739e+01
1.038214582892379168e-01,8.901285365148636775e-02,1.078196747529627153e+01
9.498290604389927894e-02,9.072756855920212360e-02,1.077583861396467668e+01
1.018316988089502106e-01,1.003676124458699470e-01,1.077467563556563768e+01
8.917540917760598262e-02,9.950346699728200572e-02,1.077195804304319005e+01
9.332238138127749161e-02,1.021656386906653891e-01,1.076908158296999574e+01
9.119102316794343299e-02,9.880710914487562946e-02,1.078863117259629334e+01
9.935373724393321837e-02,1.034535268591298823e-01,1.077510284263423834e+01
9.644163048044240849e-02,9.227621714749942305e-02,1.077674697118831304e+01
9.444616517085871465e-02,9.981272413029321222e-02,1.077471921219192019e+01
9.757964520140292863e-02,9.306648822939286858e-02,1.076923940820108783e+01
9.091641738931366401e-02,9.806916682185264078e-02,1.077936539763204671e+01
1.025906011237152915e-01,9.188887319774464990e-02,1.077823762367211025e+01
8.917505916929709120e-02,8.816718807956125392e-02,1.077359608186662143e+01
1.016660351486162600e-01,9.651482233452374215e-02,1.077348078357382910e+01
9.834073153971843728e-02,1.052996386375658344e-01,1.076926302862830909e+01
9.818292555244269304e-02,9.365754926845447359e-02,1.077023915804431731e+01
1.081082898178076235e-01,9.619342885847466385e-02,1.077038282285506732e+01
9.938744672847253658e-02,9.632147274929199476e-02,1.077648430085986675e+01
9.419448247104030003e-02,1.035823750604800836e-01,1.077062256004635898e+01
9.797709065357100566e-02,9.724140626186814074e-02,1.077542418925169621e+01
9.282364163008806346e-02,9.597767719022889943e-02,1.077375157999541955e+01
9.647428286423161137e-02,1.020225821787952014e-01,1.077712942421411668e+01
1.022240945146140473e-01,9.032096666571051702e-02,1.077710905234924432e+01
9.854241268235139350e-02,9.456462828646691743e-02,1.078084312634081599e+01
1.039271782762187096e-01,9.177985436787697293e-02,1.078084681114471799e+01
9.292306414428280759e-02,9.288187543296794191e-02,1.076879817553833441e+01
1.014246903073139083e-01,9.835543679609631829e-02,1.078990560088713480e+01
1.059020490362035521e-01,1.038798335955080504e-01,1.077868267254285684e+01
1.026004391949988659e-01,1.021106498540027135e-01,1.077455038676179555e+01
9.730881071987240727e-02,1.008181235411829968e-01,1.078191812476055134e+01
1.055178115247999565e-01,9.950096822527658424e-02,1.078216774708325687e+01
1.025576085383707453e-01,1.019000651758735637e-01,1.077128722458540366e+01
1.129297731930891113e-01,9.844144077325245323e-02,1.077414934273564917e+01
1.012126964366733273e-01,9.307538074299132047e-02,1.077662252599561832e+01
8.742430321962438300e-02,9.402550149874502883e-02,1.076749689616069006e+01
8.896770225038733160e-02,9.918665914855701038e-02,1.077391995624656573e+01
9.902301026807851236e-02,8.821039255986933003e-02,1.077790252750174282e+01
1.050452413742776897e-01,9.247044547436289452e-02,1.078029743045155975e+01
9.223827943386592176e-02,1.014982924516323881e-01,1.077424731507295519e+01
9.136529948194155315e-02,9.992036689946266759e-02,1.077372974250939563e+01
9.908536130550436860e-02,9.890037470378562623e-02,1.076880913435221920e+01
9.729584578845176801e-02,1.073380935862413982e-01,1.077807308531049024e+01
1.042321050374292596e-01,9.327398626627564360e-02,1.077299967686122883e+01
9.829245139267518694e-02,9.992632323243065551e-02,1.077598781990909593e+01
1.060447274117138072e-01,9.895939126487708626e-02,1.077293213310788467e+01
8.585528176005126355e-02,9.587681556806140759e-02,1.078252565245741579e+01
9.834578699337370722e-02,1.054419543095435757e-01,1.077043439596471330e+01
1.024892988536985766e-01,9.820859344521704060e-02,1.077107346138861743e+01
9.230978884925784833e-02,1.013228590264388801e-01,1.077253603658765257e+01
9.678630285216048568e-02,9.561119634686920943e-02,1.077621077772622371e+01
1.045818930705055688e-01,9.706025017924134468e-02,1.077708992593695037e+01
9.619239928922275473e-02,9.593842373735594897e-02,1.077196481593169253e+01
1.046090400759837752e-01,9.388865783462380099e-02,1.077605403702163578e+01
1.016786305548663671e-01,1.071534192002955299e-01,1.077106232355648352e+01
9.768882079225124637e-02,1.059947681925129115e-01,1.077475871587282796e+01
9.735633293157755497e-02,1.041988155380121628e-01,1.077216237700863921e+01
9.959052429067231926e-02,1.058312400557649968e-01,1.077498524942982883e+01
9.815502224823575983e-02,9.341377228173976255e-02,1.077356522857609633e+01
9.947438857295876069e-02,8.830390283248690242e-02,1.077352519376404594e+01
1.027570245392864234e-01,8.845372036917613368e-02,1.077908655263134818e+01
9.157480492578104481e-02,9.298670379707336953e-02,1.078831793670066652e+01
1.021770570409351320e-01,9.391210605804445333e-02,1.076726829998044899e+01
9.038836043940673415e-02,9.167895558185285010e-02,1.077024907050881453e+01
1.050872643850829236e-01,1.044090324991068797e-01,1.077590826915864852e+01
9.890023566015666845e-02,1.058482948489741227e-01,1.077606730590727757e+01
9.613140027662762932e-02,9.355434441580795513e-02,1.077652506557878453e+01
1.054510135767464107e-01,1.059008961875349819e-01,1.077689363141944767e+01
1.003592961243420512e-01,9.881993305877144473e-02,1.077365623945250306e+01
8.919129402919394323e-02,9.777144041535666685e-02,1.077450872778594970e+01
1.010730724867689723e-01,9.555621818442402993e-02,1.076966146195363550e+01
8.776784493465571158e-02,1.007060533168055577e-01,1.077788274789164014e+01
9.124756492926884566e-02,9.332279033643881005e-02,1.077442543211877002e+01
9.758635637179702282e-02,9.786003941637955172e-02,1.077654833940412971e+01
1.018006968944282636e-01,9.743166407526483719e-02,1.076986844082627925e+01
9.701167962755825880e-02,1.074373819674539904e-01,1.077733456386991229e+01
9.319310493575536092e-02,8.906216635060008879e-02,1.077195139900793563e+01
1.006177620508646869e-01,1.112908487368272220e-01,1.077622815866585348e+01
9.506838327391439747e-02,9.278864931139828298e-02,1.076788844403957945e+01
1.013518689127855255e-01,9.068204980024165140e-02,1.077738405424854307e+01
1.027654603018432894e-01,9.754904824528665142e-02,1.078118206148528380e+01
9.535976495590954560e-02,1.041630447652377306e-01,1.077577516896986509e+01
9.392190496394785260e-02,1.000697302408133232e-01,1.077532896888341973e+01
9.565008806071849390e-02,9.350580232811923909e-02,1.076405873456909745e+01
9.536527900773461575e-02,9.504221614726900136e-02,1.076833125166814753e+01
9.505287575621719498e-02,9.978658654675881534e-02,1.077727688543373219e+01
1.057813038474451767e-01,9.598910098272236957e-02,1.076546256663912082e+01
9.585915522439135417e-02,9.224819199006746573e-02,1.077979424863194602e+01
1.040955346673223120e-01,9.961752156988765150e-02,1.077786508019599765e+01
9.804475675109926291e-02,1.102454406820100319e-01,1.077850359827629134e+01
9.065871536887354365e-02,1.027713365538391738e-01,1.077570065267708266e+01
9.566152972972753743e-02,9.524732930242146844e-02,1.077634665482432652e+01
9.195351399038900753e-02,9.638890672422643913e-02,1.077943335484554588e+01
1.065160991719617672e-01,1.055188502874681578e-01,1.077723221289174660e+01
9.715830561214693073e-02,9.235756535834833969e-02,1.077644371270284829e+01
9.996057610502714907e-02,1.086495978959024222e-01,1.076927071668974456e+01
1.005173576253450690e-01,9.461051832527014871e-02,1.077626459750463006e+01
9.045977818501865775e-02,9.886912326806039653e-02,1.078419787572128108e+01
1.025727279460640767e-01,9.303505629008464173e-02,1.078130289490025362e+01
9.277944611390502583e-02,1.072474006786991174e-01,1.078006259017199753e+01
9.466149785195757116e-02,9.437164679546926338e-02,1.077240852069431654e+01
1.036110948690945749e-01,9.618703073181220087e-02,1.077804078643302610e+01
9.480111932681330178e-02,1.006902889199270817e-01,1.077400072351852423e+01
9.776469104079321681e-02,9.952695235541821062e-02,1.077411775457017029e+01
1.056300784459255487e-01,9.909158772931361825e-02,1.077522973920525473e+01
1.017354025203616036e-01,9.187286091108301522e-02,1.077641397364519626e+01
1.047107678271286257e-01,9.325941629155043433e-02,1.077478785653911153e+01
1.032544196530663233e-01,1.053055221145089704e-01,1.078037502019148874e+01
9.343267685833293867e-02,1.013906099208272543e-01,1.076854814691338902e+01
1.008231262095096864e-01,9.892439732939531383e-02,1.077753198175223481e+01
9.391114418755595883e-02,9.615060495210833724e-02,1.078999840138211574e+01
9.411097224308022369e-02,1.019556994547576867e-01,1.077787204485930772e+01
1.042391851803465552e-01,9.581093044211866361e-02,1.078021013550999996e+01
9.389987410676198243e-02,9.666412110808855762e-02,1.077826165559735294e+01
9.079467267394698837e-02,9.625307649816498834e-02,1.077570233148428080e+01
1.044032353277405123e-01,1.050006293464835899e-01,1.077410458173245189e+01
1.061866624559590078e-01,1.018106957166133308e-01,1.077417438763410473e+01
9.572350882378458103e-02,9.062352712795816723e-02,1.077066966755307043e+01
1.059228983709859101e-01,9.330363293489563059e-02,1.077864084592282978e+01
9.856175402838299182e-02,8.884396546086416324e-02,1.077336670462336699e+01
9.071932136560469095e-02,9.703995381158420086e-02,1.077159741388100223e+01
9.450837021577497554e-02,9.748646402222913010e-02,1.077208972506810802e+01
1.111772233198040499e-01,9.814737452000749096e-02,1.076973147228874161e+01
9.977409552775898249e-02,9.974018946749312053e-02,1.077298686112732007e+01
9.030358247036286701e-02,1.010152311707095268e-01,1.077833902827084955e+01
9.730389044795680065e-02,1.003247884019797115e-01,1.076916258624749467e+01
1.017448243841427152e-01,1.026579485992689528e-01,1.077048375296215887e+01
1.048475411980066135e-01,9.893909472113714132e-02,1.077132511687634597e+01
9.583972544018162787e-02,1.002579474720940028e-01,1.077377617117181785e+01
1.054123395534748847e-01,1.085972611820764655e-01,1.077255969898343757e+01
1.065933499812104501e-01,1.006147941916768346e-01,1.077367414899662101e+01
1.008974446555597343e-01,9.981728073126135137e-02,1.077473178769413664e+01
1.047577426551847546e-01,1.004244368428418577e-01,1.077980337618745388e+01
1.062140037841907136e-01,9.626093836640858825e-02,1.077959315448404176e+01
9.774741772856045119e-02,1.076769364838513765e-01,1.077385215007862307e+01
1.003931778418040988e-01,9.514569489999699647e-02,1.077637400982012217e+01
9.791950676386937391e-02,1.007773031256478519e-01,1.076995496287586818e+01
9.081262516857625811e-02,9.744355395601360381e-02,1.076360705092530168e+01
1.005851713605060149e-01,9.952124624800598451e-02,1.076670285398978244e+01
8.809831383280856965e-02,1.004509309633371400e-01,1.076628938713743544e+01
9.621891919749235578e-02,9.813408775920312577e-02,1.076504907777190923e+01
1.102526081934055019e-01,9.763014963822617964e-02,1.077440597756895357e+01
1.089749798991641871e-01,1.012943014486484550e-01,1.077494322022928230e+01
1.073556452828802049e-01,9.927638745447367463e-02,1.076823634825337273e+01
9.439660615082097472e-02,9.466129720743202136e-02,1.077440758947808952e+01
9.127871292864048192e-02,1.030100002337754339e-01,1.076673712847224884e+01
9.857755215975740060e-02,9.859895276858154922e-02,1.077277972288804264e+01
9.941768134679991598e-02,1.085179829263648588e-01,1.077858065674450216e+01
9.554196386163377186e-02,9.278238571104553689e-02,1.077098340647171071e+01
1.113119149340253966e-01,1.044946008314245056e-01,1.076873907417828846e+01
1.007296111494429408e-01,1.026184652222737609e-01,1.077346965280515256e+01
9.685978624278124283e-02,9.408832574525163861e-02,1.077054963696046563e+01
1.020098202946450316e-01,9.981891508985737960e-02,1.077217991830326405e+01
9.486460592267352554e-02,9.909166576822185657e-02,1.077850698876623703e+01
8.921201322763921970e-02,9.390425925422418718e-02,1.076773452146820986e+01
1.011839501913359696e-01,9.646758703760070774e-02,1.077569400692147283e+01
1.018606167944956786e-01,9.128471405804272631e-02,1.077423198266440529e+01
9.556163354235727714e-02,9.334763189300193664e-02,1.077929689371552868e+01
1.045799583909560321e-01,9.623779818727204449e-02,1.077978213724812839e+01
9.161976184097447851e-02,9.428550107784058887e-02,1.077717924466763222e+01
9.608059052736367400e-02,9.620737159563878815e-02,1.076954998222508841e+01
9.760177445183337852e-02,9.379438897530562036e-02,1.076717014391077853e+01
1.063647353468053502e-01,9.557832798743311209e-02,1.077727656474894502e+01
8.957916013890632190e-02,1.004928967849988974e-01,1.077349855777809218e+01
8.248644152083722814e-02,1.047340812796571374e-01,1.077903241162132453e+01
1.099178098012005000e-01,9.714379659337758766e-02,1.077694524445885627e+01
9.832363283421637068e-02,1.023582134587147779e-01,1.077824696067373900e+01
9.706620129271248398e-02,8.797787726208440573e-02,1.077184421321988772e+01
9.462119907134947105e-02,1.048694891313995681e-01,1.078242514175184574e+01
9.905585546304296329e-02,1.031582503843330584e-01,1.077416073997867585e+01
1.031181911633258369e-01,1.085762746780579158e-01,1.077587907753929564e+01
8.997686204571302138e-02,9.023291045005996103e-02,1.077080225601935837e+01
1.057204523648409139e-01,8.850986930964761801e-02,1.077253261772519011e+01
1.071840270044698840e-01,9.978190094805951260e-02,1.077441469170811317e+01
9.672975592491692143e-02,9.270729232853805457e-02,1.076980228368619485e+01
9.813438109044145263e-02,9.717470515856919955e-02,1.077420955319092855e+01
9.366090985765540555e-02,9.941813239340831221e-02,1.077607526216666756e+01
1.030863339251218841e-01,9.346693762533767047e-02,1.077812889698883048e+01
8.852215841424977694e-02,9.207470334894107822e-02,1.077207256134783542e+01
1.052984905523412090e-01,9.965651020016090544e-02,1.077414489607377490e+01
9.899662661629834992e-02,1.036195792487604739e-01,1.076437100081884246e+01
9.597641554914787543e-02,1.035933050451704612e-01,1.077894557582583168e+01
9.544353684953940653e-02,1.081026476053774943e-01,1.077460902217410599e+01
1.093012091815343256e-01,9.222354333255183834e-02,1.077519382695384209e+01
9.124028955803388519e-02,9.895438483651376738e-02,1.078083141052526805e+01
1.080936570596133378e-01,9.885376312181340386e-02,1.077763336553865514e+01
9.522518701485288561e-02,9.971374497385550317e-02,1.077580672782000804e+01
9.940689133764764318e-02,9.956283087552472710e-02,1.077704344875750841e+01
9.996329175614193652e-02,1.078986172589985471e-01,1.077303893021685255e+01
8.850356204655224213e-02,1.006298790967430079e-01,1.077776296641420828e+01
1.028968419480462970e-01,9.983398267508181156e-02,1.077170626561735567e+01
9.811634933277749160e-02,1.033818057331558904e-01,1.077118472472284338e+01
9.450706040124402796e-02,1.041175318428787522e-01,1.078177108728874423e+01
9.916461535412438022e-02,9.322988158890584132e-02,1.077998587806433584e+01
9.905739847516990826e-02,1.004950669107324834e-01,1.077001864923407659e+01
9.328540133545186464e-02,9.575333669079338916e-02,1.076381498946537185e+01
1.060802822177398796e-01,9.420059074922711162e-02,1.077139129087275293e+01
8.728255082531334585e-02,9.930243306320522823e-02,1.077935396566474857e+01
8.827494748821879123e-02,9.554241690820029775e-02,1.077330294373693853e+01
9.476288279903860579e-02,8.873015633759299969e-02,1.077105999428049721e+01
9.728423364230395776e-02,9.734563284920470794e-02,1.077649015302214508e+01
1.007596625439780708e-01,1.020728385996237386e-01,1.077037504576713900e+01
9.264797395181351147e-02,1.014246661217770296e-01,1.077397344271719426e+01
1.054818977045485634e-01,9.761597928210462294e-02,1.077792352417571031e+01
9.164108202930211500e-02,9.722197917745414864e-02,1.077706293458262721e+01
1.030377845353876859e-01,1.041468598883525248e-01,1.078411941753690328e+01
9.443560104611248285e-02,1.001591846857534107e-01,1.077992683641339866e+01
1.037225017050971837e-01,9.919490796404382971e-02,1.077005686025172082e+01
1.058735766219205537e-01,9.360586072470854224e-02,1.077614335044600402e+01
9.085555050798749255e-02,1.030251447310334550e-01,1.077363232427256712e+01
1.020261200316467248e-01,9.464905273247802009e-02,1.076652661258512111e+01
9.216083272802212678e-02,1.016484399101428848e-01,1.076710346679786845e+01
1.041736809333362879e-01,9.949805751768195372e-02,1.077091288663460666e+01
9.793431124640902818e-02,9.967775169763945509e-02,1.076866202902084702e+01
1.036764255935220952e-01,9.294908941240387357e-02,1.077099793719071208e+01
8.939564894637644366e-02,1.061137012898377974e-01,1.077000806428715407e+01
1.023085948028572140e-01,1.055490653067460705e-01,1.076847983792084307e+01
1.019014695498252493e-01,8.928967558529377069e-02,1.077504957259651697e+01
1.006547998904228636e-01,9.969942149071955861e-02,1.077422960383445627e+01
9.380205082839622455e-02,9.975298351719584511e-02,1.076499499114595615e+01
9.243286133752479095e-02,1.029774175461574265e-01,1.076867976151715744e+01
9.633448609730663192e-02,9.500447569680395277e-02,1.077522025300780406e+01
1.003575462691323750e-01,1.007260714966647236e-01,1.077162102913409925e+01
9.944921484576133008e-02,9.541857042377563380e-02,1.078219464926476689e+01
9.769190869606354799e-02,9.878212162642927008e-02,1.077950994337091295e+01
9.217482430554829742e-02,9.953342034453320497e-02,1.078432306539198926e+01
9.427634780946270165e-02,9.103439047225650449e-02,1.077353743561319988e+01
9.446721870055972692e-02,9.725313991476458586e-02,1.076959962346962563e+01
8.462323480798665531e-02,9.822418114536692058e-02,1.078671764768413333e+01
9.503668650365877657e-02,1.007346055651218569e-01,1.077505940905239612e+01
9.979819909318576876e-02,1.000441969205055626e-01,1.077142553559512805e+01
1.023052821750252694e-01,8.917896700390025300e-02,1.077593089202631660e+01
1.024913870788872472e-01,1.011111557201692657e-01,1.077155584816779310e+01
9.356977773499160211e-02,1.007896918813229736e-01,1.077884859537183537e+01
8.911529564497579214e-02,1.042986830383322017e-01,1.077392720143087068e+01
1.051962220721707614e-01,1.054004823378936195e-01,1.077377290614710503e+01
8.981847714954162287e-02,1.057515348656232756e-01,1.077612158402981457e+01
1.071506739898529514e-01,9.209946895555640167e-02,1.076970020078896972e+01
9.224977328735367577e-02,9.331858930897425630e-02,1.076852886160264156e+01
9.570654446794199521e-02,9.668527312867084000e-02,1.076908783119110602e+01
9.918943492064968837e-02,1.044600584000228150e-01,1.077049203470404137e+01
9.079784496727202892e-02,9.993448092265913574e-02,1.077486487113912617e+01
9.552909529717343307e-02,9.609807542136319936e-02,1.077075392328010039e+01
1.020022375524768238e-01,9.468731827747178809e-02,1.077423338828122468e+01
1.030816209667622385e-01,9.515352825671306858e-02,1.077320199129169609e+01
9.483211875368582899e-02,9.741336278357863587e-02,1.079026263893425153e+01
9.950308112856419418e-02,9.709668403710489115e-02,1.077320290740213515e+01
9.985961246289967730e-02,9.786131345438137119e-02,1.078291812063489274e+01
1.004775879636022190e-01,9.952219541403678482e-02,1.078068227831751535e+01
9.406428382173599723e-02,9.984296195944859786e-02,1.077686704361712877e+01
9.942031878006546419e-02,1.034923845358914352e-01,1.077039220751998094e+01
9.003121496488734887e-02,1.067772708172290974e-01,1.076704590463008948e+01
9.730072085715485430e-02,1.048037723132232563e-01,1.077133915080528226e+01
9.962759788464926880e-02,9.163966304181581091e-02,1.077741392801510045e+01
9.600496280197670651e-02,9.506816435534445886e-02,1.078115815394034271e+01
1.034515892132367304e-01,9.894392828167254683e-02,1.077423213815296066e+01
9.526156324507711881e-02,9.801004265767729318e-02,1.077630486666038223e+01
9.820603863168027303e-02,9.315336343517548190e-02,1.078156940362440963e+01
1.013031289010405955e-01,9.769480229725713283e-02,1.077297838846214972e+01
9.518936368223598898e-02,1.004820281215665218e-01,1.077737530260995946e+01
9.519762142013955819e-02,8.991071139000514356e-02,1.077716942913859377e+01
9.586242643440812117e-02,1.010022078675162222e-01,1.078265629727391683e+01
9.885415026699642671e-02,9.665093623844669968e-02,1.077754303692565863e+01
9.637360747295749264e-02,8.507618907885169945e-02,1.077711484548588849e+01
1.033077375625899574e-01,9.395095606722136949e-02,1.076856444782943711e+01
9.909897859559400890e-02,9.350450224259515553e-02,1.078033298281293639e+01
1.003549707171775274e-01,1.073846714238820277e-01,1.077068916895545314e+01
1.024680540941555335e-01,9.903141936873081919e-02,1.076854059422430865e+01
1.073332968423839767e-01,9.660809466443345817e-02,1.077387996519592761e+01
9.530758648704859559e-02,1.022632317575700306e-01,1.077446343126420381e+01
1.067485512382754104e-01,9.666903939106717691e-02,1.078106240934332760e+01
9.580697352193855154e-02,1.045780715739818845e-01,1.077072435982707788e+01
1.009063477005225362e-01,9.676864752426925231e-02,1.077535515816260236e+01
9.697940995619831750e-02,1.019593910882468923e-01,1.078030678759168559e+01
9.602616347905779115e-02,1.015000873366872919e-01,1.078141877857957276e+01
9.667685756434137023e-02,9.044975557247354747e-02,1.077498677134619598e+01
9.068147031577186712e-02,1.054444311857471311e-01,1.077698309935217047e+01
1.018240018011263570e-01,1.009174576482237684e-01,1.077572406328245691e+01
9.166752567947752950e-02,9.129241989103661914e-02,1.077655173881967876e+01
1.034085476114523922e-01,9.547317022156040500e-02,1.077143373776744539e+01
9.418775898692043069e-02,9.325715831839946623e-02,1.077844454480839254e+01
9.812159266585171458e-02,9.018587002356351356e-02,1.077046760157234928e+01
1.064351222556067511e-01,1.060890228203859725e-01,1.077184461774588264e+01
8.602934443725136771e-02,9.925667232357786307e-02,1.077292062881153356e+01
1.013469850203626565e-01,1.050109424809363978e-01,1.077198853555209901e+01
9.502386792475532584e-02,1.024233938508604530e-01,1.077186245819290455e+01
8.846837290826586875e-02,9.146670465050421583e-02,1.077372602109657151e+01
9.045379858680560603e-02,8.906828069128114311e-02,1.077634776375398928e+01
1.091417836206921982e-01,9.820266918058155603e-02,1.077187072789272015e+01
1.010080493364771403e-01,1.038471526678326068e-01,1.077665781085497265e+01
9.387626469656544514e-02,9.555391288356784862e-02,1.077852773685366827e+01
1.012028731290426364e-01,1.018174838604176680e-01,1.078256637996951639e+01
9.978152960265017357e-02,9.828424096702952084e-02,1.077761598534604204e+01
9.801478642872973879e-02,9.806678938709227633e-02,1.077587658093015399e+01
9.964519522436957044e-02,1.034983467282809266e-01,1.077493687296998104e+01
9.699992623294581562e-02,1.012838085047561010e-01,1.077395208341365418e+01
1.058773166310910813e-01,9.966435068905293848e-02,1.077022519850029703e+01
1.014453581367896901e-01,1.016520278891032830e-01,1.078151173155749021e+01
9.224304712106522197e-02,9.632077517852506710e-02,1.076886074408376714e+01
9.506228185508536210e-02,9.571873287710137845e-02,1.076799266194135996e+01
9.493434118103831476e-02,8.879383777496797914e-02,1.077945878942760594e+01
8.917093197537119542e-02,9.250865270752431369e-02,1.077642512571132549e+01
9.813199746406878199e-02,9.750101620972706495e-02,1.077709453839524478e+01
1.089084811945879583e-01,1.008102506764690098e-01,1.077143342719796415e+01
1.077588408652513652e-01,1.049621577091993802e-01,1.077682706628354659e+01
9.457112421237166833e-02,9.671642019541699942e-02,1.077429699186320633e+01
9.825358632987646335e-02,8.472277330280125751e-02,1.077913275153622230e+01
9.924145243526083515e-02,9.797202947299088471e-02,1.077170041017572011e+01
1.054635089072120668e-01,9.754390406637582223e-02,1.077213662045804732e+01
1.010070842381201595e-01,9.886235612846278054e-02,1.078409586325646430e+01
9.595123092754143102e-02,9.143792440428248625e-02,1.078235729125676379e+01
9.552141773690428495e-02,1.071499262613096748e-01,1.077656017357137230e+01
1.031576613734478121e-01,9.911344628157084391e-02,1.077758194806989778e+01
1.082438512951462567e-01,9.938200041051913070e-02,1.077932404709643244e+01
9.606196356997408203e-02,1.026608323524306199e-01,1.077049528934652578e+01
9.526392389250128157e-02,9.979204724464213472e-02,1.078518662243828174e+01
1.029957046905411455e-01,9.532746888060485146e-02,1.077787482725301871e+01
9.521730018134283435e-02,9.573327672654800835e-02,1.077161236917424603e+01
9.464847253763007673e-02,1.001963091982239346e-01,1.077072805694857571e+01
9.130112087202608973e-02,8.829159345683308679e-02,1.077570575252543428e+01
1.016221240760479400e-01,1.021880297989261055e-01,1.077533486330113277e+01
9.292725911509505665e-02,9.898166484596540582e-02,1.078309669295662054e+01
9.282972802089355102e-02,1.001408478207103936e-01,1.078003437526332497e+01
1.027576227075238796e-01,9.670174136619173744e-02,1.078346540526709418e+01
1.026116761609049272e-01,1.057641125459823223e-01,1.077719816677973519e+01
1.034494984894953062e-01,9.298037859325737620e-02,1.077550644776324518e+01
9.642347001961935893e-02,1.006726796075752828e-01,1.076622819818611276e+01
9.997288603411749741e-02,1.013787102585173433e-01,1.077697789243608995e+01
9.239644821625982163e-02,1.029113657268242721e-01,1.077078201009257796e+01
9.562332447078115971e-02,9.843523048696413424e-02,1.076695708289171627e+01
1.020641960745941462e-01,1.041514181498198327e-01,1.078088458902543678e+01
9.508234846634919246e-02,1.038231026207277613e-01,1.076491079177215049e+01
9.660706038398991780e-02,9.093032633459224856e-02,1.076537399072401158e+01
9.908149476048727644e-02,1.107291419353900186e-01,1.077516254940908524e+01
1.042885760908324327e-01,8.984003604128883158e-02,1.077997983814669780e+01
1.013879502963226653e-01,9.545048665921643249e-02,1.077645262950097127e+01
9.643461272122801076e-02,1.028903916812920205e-01,1.078001699537863622e+01
1.073636345453348739e-01,9.967590313962963744e-02,1.076966500720705788e+01
9.845491963947815284e-02,9.807878300181094300e-02,1.078094213005697100e+01
1.075030493302119305e-01,9.966717016734887025e-02,1.077981764641689999e+01
9.989999125541858260e-02,9.489983377010365040e-02,1.077366226472150501e+01
8.817224164570232336e-02,1.020363052736365517e-01,1.077109293085733199e+01
9.923990401771524972e-02,1.067364081929000064e-01,1.077417848717586679e+01
9.531747556117695086e-02,9.799323592062962607e-02,1.077118457731206647e+01
9.583396524500742419e-02,1.044027777413772673e-01,1.077761853883549570e+01
1.056660848569120625e-01,9.818371719388653551e-02,1.077806895076605009e+01
9.709530246441695767e-02,9.423143580292751842e-02,1.077460255567129011e+01
1.030664933090400526e-01,9.883228288196584110e-02,1.077731662574424121e+01
9.770329178868576714e-02,1.064439211789665191e-01,1.077902480186532408e+01
9.268687619723979532e-02,9.413610149231914359e-02,1.077194067697111812e+01
1.046748846279404593e-01,9.882820346849043036e-02,1.077202281750030366e+01
1.061117296567173213e-01,9.237731569638897577e-02,1.077283336521984047e+01
8.986484417136032798e-02,1.040546645745119153e-01,1.077915473443740169e+01
9.731329857065115774e-02,9.850678006487013916e-02,1.077787530955660777e+01
9.789910881965789569e-02,9.947700515469951044e-02,1.077785069147907393e+01
1.015430860666977214e-01,1.029843513931128357e-01,1.077024672674941819e+01
9.797532496389459167e-02,9.559222163453473531e-02,1.077703133701383287e+01
1.049916200056714849e-01,1.021055732817234690e-01,1.077755351133574280e+01
9.541578069060364931e-02,9.959020761474335348e-02,1.078303950389998001e+01
9.549326961784924961e-02,1.009645811921083686e-01,1.077615512126864594e+01
9.287607167844197376e-02,9.808584252396029823e-02,1.077527704032202216e+01
9.656199309863351676e-02,9.942061317606915027e-02,1.078487155443474599e+01
9.981461606903728467e-02,1.075326515331471167e-01,1.077325201649652087e+01
1.022328293616442951e-01,1.056418021362293125e-01,1.077409118505799235e+01
9.433238476122915439e-02,8.761563986582621144e-02,1.077410115171661964e+01
9.454317960995535508e-02,1.046510065852555710e-01,1.077858810743924955e+01
1.035199518457185358e-01,9.795065021768957492e-02,1.076455667987442411e+01
1.023887170523868906e-01,1.017066719302535394e-01,1.076193644384067483e+01
9.426983914524292296e-02,9.647446853270860712e-02,1.076206053257818596e+01
1.003739116491677019e-01,9.564479924458600679e-02,1.077062110616764556e+01
9.715733699802481249e-02,9.184760717330572866e-02,1.077274164314413163e+01
9.643360153653862676e-02,9.317167344623906999e-02,1.077496272274300182e+01
9.624374858679499156e-02,1.017944731448432588e-01,1.076497468426272164e+01
1.099160269169651843e-01,9.917081625800834577e-02,1.077750911071841600e+01
9.076357176211709288e-02,9.545370639131274537e-02,1.077186119051958357e+01
8.780028443841959851e-02,9.568629768383757339e-02,1.077398852476328805e+01
1.053665029173218304e-01,9.582352968733162668e-02,1.077543710882846106e+01
9.846899495469645103e-02,9.741697619587669221e-02,1.077779649316625665e+01
9.957144260607858621e-02,9.435987502088676038e-02,1.077074858315998185e+01
9.100545387440273082e-02,1.105529046201734755e-01,1.077408230546547507e+01
9.955097187826411620e-02,1.054768879173142299e-01,1.077935672333345174e+01
9.511589315444074488e-02,1.037900101358103094e-01,1.077886815473113558e+01
9.823793153165692738e-02,1.002769511745721237e-01,1.077102169766351558e+01
1.003419377704718868e-01,9.370807848475130875e-02,1.077800816195588141e+01
1.035632486794815788e-01,9.945003787292623632e-02,1.076797179179436981e+01
9.941482414578760307e-02,9.533358612854332670e-02,1.077643891402596488e+01
9.322541888140230271e-02,1.058676035627042211e-01,1.076515362647174356e+01
1.000424594650440036e-01,9.714765284688156588e-02,1.077963455517405755e+01
1.028668377328917083e-01,9.829886570551894798e-02,1.077298813750158324e+01
9.513786036608487540e-02,9.057686080583925159e-02,1.077755851076726934e+01
9.045008432633321049e-02,1.051381402832899797e-01,1.077670362803731940e+01
1.023403177908552147e-01,9.297527643929272279e-02,1.077864159930389931e+01
9.152902404145427107e-02,9.363917222132117635e-02,1.076455903620708199e+01
9.507402060433069180e-02,1.038704049946126695e-01,1.077747843771801506e+01
1.015144960044557509e-01,1.055437138575855832e-01,1.077461295397678143e+01
9.729677012793586099e-02,1.022816461931218696e-01,1.077516584581685599e+01
1.010474614347707384e-01,9.455810870517665501e-02,1.077742416933019420e+01
9.312103882916884789e-02,1.037943264302391699e-01,1.078129325447463671e+01
1.003880988657324946e-01,9.055138400924685194e-02,1.077052748050033060e+01
1.024033114081631252e-01,9.038123330048605797e-02,1.077202927123810028e+01
9.613830782706921096e-02,9.712906566049012147e-02,1.077581628283862258e+01
1.069071007602030304e-01,1.012332532017084924e-01,1.077930025978057849e+01
1.109820110192948905e-01,9.343588428270997726e-02,1.076902736751138256e+01
9.874347187559877337e-02,1.008314029451623656e-01,1.077414024348735744e+01
9.967888690376847105e-02,9.934665825456404087e-02,1.077620935899155796e+01
1.004206536982989451e-01,9.478774692391409018e-02,1.077920325922816858e+01
1.061401854504816777e-01,1.009052152074247921e-01,1.077183039857826863e+01
1.003770216050476893e-01,1.043396541531215055e-01,1.077734304235582918e+01
9.693115733566669279e-02,9.462585562843058018e-02,1.078234034478080083e+01
9.704177496749837040e-02,1.029697518207763340e-01,1.077672898066191820e+01
1.053683056050153943e-01,9.877109699368133433e-02,1.077615610514865985e+01
1.006303647830451981e-01,1.011131621343078352e-01,1.077281505391223249e+01
9.750009817736475515e-02,9.453859933384053948e-02,1.078146154836535153e+01
9.517073647586413165e-02,9.591914598480436038e-02,1.077170395038064576e+01
9.961697919234996368e-02,9.781339241542578999e-02,1.077502346776948627e+01
1.011262325454653499e-01,1.015160627259985571e-01,1.077695344802791055e+01
1.049648959367369128e-01,9.286888602295952089e-02,1.078026805085893791e+01
9.618738776988532135e-02,9.692904217426702440e-02,1.077118217032491998e+01
1.015529787904688314e-01,9.687821811505166469e-02,1.077624848057974560e+01
9.832838134075623515e-02,9.706937049387957817e-02,1.077829129849403067e+01
1.002093300237681950e-01,9.437604414937970920e-02,1.077121476972827629e+01
1.070685989298672536e-01,1.088437514166542830e-01,1.077971607718739833e+01
9.595704146551170544e-02,1.046904107348468338e-01,1.077833008990245744e+01
9.605190151050888026e-02,9.904666534684362922e-02,1.076951686491223725e+01
9.100487785447207434e-02,9.794687797022598452e-02,1.077451550907337641e+01
9.013607027707042085e-02,1.081472211765310554e-01,1.077435249861607147e+01
9.865102240253417754e-02,1.025065694857318493e-01,1.078356058424299135e+01
9.444468564871066896e-02,1.002330776329459633e-01,1.077500504034356155e+01
1.035439614112405871e-01,1.043053596083072798e-01,1.077532151323863907e+01
1.136954977218971735e-01,1.009367076784579986e-01,1.077714176011930114e+01
1.013428244107058840e-01,9.680606890213680482e-02,1.077423679328211215e+01
1.016101045026250593e-01,8.540367950195922042e-02,1.076484751837977960e+01
1.013569605522259276e-01,1.036034905878470969e-01,1.078046362574038852e+01
1.028657733535466717e-01,9.684949398286621380e-02,1.077944930173596738e+01
1.028651009941817379e-01,1.037436550062788010e-01,1.077244758907130517e+01
1.032007433557896869e-01,9.155118443016568852e-02,1.078083875154894145e+01
1.004177348348485321e-01,9.763782499646707358e-02,1.077487269873649467e+01
1.007551160358129139e-01,9.829702214175983777e-02,1.076109169479926564e+01
1.033183092016708160e-01,1.048808928978940541e-01,1.077495984973135990e+01
9.883157487053517709e-02,1.025482213977511881e-01,1.077589197775033014e+01
1.019252600778176865e-01,1.046200102346927507e-01,1.077720111688297067e+01
9.366778841818519663e-02,9.164479087609117558e-02,1.077805999412256632e+01
1.002072440266281450e-01,8.619126181654844510e-02,1.077179795649551863e+01
1.035024821948625218e-01,9.819289071057557550e-02,1.077059698106537233e+01
1.038354191080843175e-01,1.017258101941714843e-01,1.076416075939422434e+01
8.898977687155285032e-02,9.666440043050304742e-02,1.077756032756367510e+01
9.105537699612381575e-02,9.949648388421883372e-02,1.077326947234474730e+01
1.048421821689272670e-01,9.602461261442227225e-02,1.077052084760579831e+01
9.421208550819576422e-02,9.699429801538000939e-02,1.077496751403388053e+01
9.114934087664997020e-02,1.047893825421636615e-01,1.076845597480305372e+01
1.038839413787812221e-01,1.010326112269078203e-01,1.078295377469626004e+01
9.963347869812784474e-02,9.722999702237763997e-02,1.077012219272025639e+01
9.998199179500065481e-02,1.005361227519943057e-01,1.076819637875895630e+01
9.386404980123054520e-02,1.021456638632867037e-01,1.076674669751580282e+01
1.022393810867335412e-01,1.003678941172343186e-01,1.077626298054023835e+01
1.028933079374668436e-01,9.109817091034058678e-02,1.078061751912088084e+01
9.598021315197424741e-02,1.003995522944531177e-01,1.077460293562134908e+01
9.260836597564379991e-02,1.021704816470896809e-01,1.077163560485161931e+01
9.489321957589759438e-02,9.216724893566133336e-02,1.077763946481453772e+01
1.016553720045602904e-01,9.295615993236951147e-02,1.078576381436617915e+01
1.021216084510815497e-01,1.036344379067955929e-01,1.077481844664388611e+01
1.024200159994039516e-01,9.458690787741881600e-02,1.077274541805019581e+01
8.778597103210301900e-02,9.999110654104780005e-02,1.077651008903129792e+01
1.069317748420008096e-01,1.064973665433274347e-01,1.076974129954947301e+01
9.406413107499414505e-02,9.816016008104144763e-02,1.077563093446939746e+01
1.101007735392972864e-01,9.387183265985654668e-02,1.077732061471020231e+01
1.055814851367511270e-01,9.589694134769093103e-02,1.078000054848679667e+01
9.725890943096170138e-02,9.568302567804276570e-02,1.077470698064149346e+01
9.747462130784564915e-02,9.894530085799670138e-02,1.076939529797606454e+01
9.399269312821210975e-02,1.042689884473237960e-01,1.077049589523140050e+01
9.614091255713370920e-02,1.001525043858508962e-01,1.078013903645451244e+01
9.490854253696653919e-02,9.976162465379552480e-02,1.077484470166642083e+01
9.655329102247138529e-02,9.965786228276121705e-02,1.077059721836445050e+01
9.419101577442080819e-02,9.562525105770375289e-02,1.078299978985169894e+01
9.664069515669997112e-02,1.004683925972972985e-01,1.077022946948009618e+01
1.106502815596745182e-01,9.878854648218625412e-02,1.077567951791360201e+01
1.000931643458058962e-01,9.853385968687020102e-02,1.078496613590209385e+01
9.729759942203648759e-02,9.211479523386298385e-02,1.077350435671077733e+01
9.472928808182573546e-02,9.466697510170864194e-02,1.077665700509409419e+01
9.982943777768382709e-02,1.031083031836943775e-01,1.077696935758304164e+01
1.068478226676878584e-01,1.098095086408877874e-01,1.077558443749131101e+01
9.133418914818021428e-02,1.052353171904224921e-01,1.077933744121254378e+01
9.728287696839642285e-02,9.534754178421987747e-02,1.078085170088484368e+01
9.038980850962233249e-02,8.608011832774112304e-02,1.077383825688324315e+01
1.008463565582333188e-01,9.699118202971544755e-02,1.077547049152107661e+01
1.014223471722613124e-01,8.515906057712094301e-02,1.077665487139917921e+01
9.338960829528732133e-02,9.839321876954044976e-02,1.077700481007159539e+01
9.876460954748154941e-02,1.097011171747019759e-01,1.077150884793042174e+01
9.428628403368384536e-02,9.750601685321172440e-02,1.077766914192172010e+01
1.014102637647915778e-01,9.321018258609561902e-02,1.077929471063668387e+01
1.024923526647515404e-01,9.357237441227649055e-02,1.077680077726465413e+01
1.027974446678277670e-01,1.015996114115728655e-01,1.077236982177008251e+01
9.587638001224600692e-02,1.009386990772981746e-01,1.077793670615766253e+01
9.446893184228875862e-02,8.818014173409628731e-02,1.077026876641110498e+01
9.744828363923815906e-02,9.974086700153129981e-02,1.078151568069492505e+01
9.631834779805240054e-02,8.824744015933000396e-02,1.077922172392885081e+01
1.003533610830635997e-01,9.463244563021805389e-02,1.077214703544237295e+01
9.688033210136093309e-02,9.665273800925737457e-02,1.076853264988865000e+01
9.995282300981449264e-02,1.019820506924279391e-01,1.078896480158124049e+01
1.024779822511163452e-01,1.022693229388622060e-01,1.077556014233593906e+01
9.890095783046226607e-02,1.022994811488618511e-01,1.077082014654264341e+01
9.125824599137630222e-02,9.993554673559956747e-02,1.077710930653094401e+01
9.273680723681024252e-02,1.049906348597213351e-01,1.077783279216626333e+01
1.017990539602185995e-01,1.028804431558728028e-01,1.076982254444416220e+01
1.003176216688364958e-01,9.564324090822889923e-02,1.078228261504216690e+01
1.053160731201997907e-01,1.001623896482312925e-01,1.077989330604230211e+01
1.059644200971466554e-01,8.949693583810774955e-02,1.077634612885923282e+01
9.301182308873429117e-02,9.666454917807250358e-02,1.077709910908422941e+01
1.035524276780270536e-01,9.578197204194735526e-02,1.078276194841794577e+01
9.249639683089667941e-02,1.036776017694966273e-01,1.077366334255963132e+01
9.120176266138059484e-02,1.014743482662625318e-01,1.076734894758775241e+01
1.122767658654294648e-01,1.052874977486398939e-01,1.077618761159850536e+01
1.069230785841538550e-01,1.033533539296426496e-01,1.076653070030029191e+01
9.389146072886429828e-02,9.281098433830684002e-02,1.076381797583086986e+01
9.552188753935024479e-02,1.063522785549072536e-01,1.077453981440429231e+01
9.924623108314765962e-02,9.737758797282496104e-02,1.077269712863894746e+01
1.004815393285755504e-01,1.042684206636077804e-01,1.077005286191072919e+01
8.889595616179746251e-02,1.026886266586606866e-01,1.077061834401630414e+01
1.051692419965016279e-01,1.046461028317848402e-01,1.077106289068580480e+01
9.333334883529137427e-02,9.313510738837724179e-02,1.076821098734474624e+01
9.612151965692578015e-02,9.552824752844361889e-02,1.077770511221760685e+01
1.042958866203311380e-01,9.760502651740091129e-02,1.077093293810534469e+01
1.016213992462996901e-01,9.870922064955764408e-02,1.077578257904430181e+01
1.038626386807097735e-01,9.623224130135726861e-02,1.078321746856847518e+01
1.010680847463323595e-01,1.028528266146045006e-01,1.077976250191269969e+01
9.481386920287411535e-02,8.641861624851102097e-02,1.078105663264412151e+01
9.871850451454666775e-02,1.012407566263646419e-01,1.076696709340239089e+01
1.036693634418547061e-01,9.651005393608459715e-02,1.076730609318092746e+01
9.398435786843946371e-02,9.336723559102708125e-02,1.077647900771241574e+01
1.007928577706607848e-01,9.712199935013358931e-02,1.077520596136827180e+01
9.807050459804667053e-02,9.704176242978022893e-02,1.077793204412645345e+01
9.867084927934781369e-02,1.004514416945284094e-01,1.077374203555406318e+01
1.011564797953835998e-01,9.838035997933457233e-02,1.077383770838486932e+01
1.022979026123647522e-01,9.246434538788476931e-02,1.077823099842183829e+01
9.696716788038063639e-02,1.084098963409638877e-01,1.076821503332219976e+01
9.759105767798342823e-02,1.017677190134403109e-01,1.077471910773916264e+01
1.047646691489501902e-01,9.625415207856449773e-02,1.077742599616129837e+01
1.000855726019837660e-01,1.053205072631752948e-01,1.077331677901247176e+01
1.071504344401985886e-01,9.883985309518535101e-02,1.077945071320263892e+01
9.871979111999476530e-02,9.503672576391208882e-02,1.076297387347605650e+01
9.890530670579604500e-02,1.006251544383404833e-01,1.077239618649225150e+01
9.326428459285654449e-02,1.010120441325125240e-01,1.077338242794652778e+01
1.032261359769519465e-01,9.930432608425604490e-02,1.077510920420704643e+01
9.546203153366929206e-02,9.787581044766353877e-02,1.077635556360858260e+01
9.878943113500190942e-02,9.652887282329998542e-02,1.077371752878487143e+01
1.069720230903414976e-01,9.507297670302587711e-02,1.077850088311599208e+01
9.649659756472110661e-02,9.752952238730884515e-02,1.077120288949681282e+01
9.617104919274158115e-02,9.950633550371522362e-02,1.077393752339709110e+01
9.815078218187046899e-02,9.559242303320426848e-02,1.077675541696247663e+01
9.532224319162758974e-02,9.146265440025912186e-02,1.076731448082836096e+01
8.934274305286170337e-02,8.843873989908823674e-02,1.078428530691430076e+01
9.457276461127252232e-02,1.054150429507815789e-01,1.077616883865086450e+01
1.038274044581185690e-01,8.972907099396729147e-02,1.077640779438372043e+01
9.429132949577651024e-02,1.015437038166994155e-01,1.076634595948537587e+01
1.013035475896824356e-01,9.083916112910105090e-02,1.077254129397300630e+01
1.018064309814332297e-01,1.007952127324570069e-01,1.077249958214805758e+01
9.295271847470129578e-02,9.461690267955814859e-02,1.077343024960570439e+01
9.925299626190210722e-02,1.027769861816381358e-01,1.077267941214106095e+01
9.788837097106972696e-02,9.294306390397602535e-02,1.078044425535719952e+01
9.639008080670621870e-02,9.872405448003876427e-02,1.077294860150910516e+01
9.911164042561446119e-02,9.991108053466232763e-02,1.077621543018831751e+01
9.360922489016640369e-02,9.710436293399575536e-02,1.077668686599203340e+01
1.027511390013679526e-01,9.479567051486108287e-02,1.076813486115646157e+01
9.004127254771292221e-02,1.053059564703554690e-01,1.076552489375032096e+01
9.731983048821307714e-02,9.048551322591594226e-02,1.078035113312620830e+01
9.814363030766017071e-02,1.021538070698273931e-01,1.077228248868917149e+01
1.110190597746408547e-01,9.794066233254594689e-02,1.078244104248328838e+01
1.013052020928910113e-01,9.625877887596247240e-02,1.076844264207212021e+01
9.818473136765973330e-02,9.864073225625237529e-02,1.077283471307999996e+01
1.041421696250445228e-01,9.414690100318276467e-02,1.077212972288981341e+01
1.047422990944328752e-01,9.973450045969708966e-02,1.078056897686812654e+01
8.941031701879020854e-02,1.018659006173672499e-01,1.077159426752079874e+01
1.029029926725579108e-01,1.064967999619734346e-01,1.077484496571133654e+01
9.818363569560926984e-02,9.577197996283891290e-02,1.077682724003733128e+01
9.653009796979881985e-02,9.118556753510317914e-02,1.078763573519817776e+01
1.013101552066127675e-01,9.827349120423578555e-02,1.077386403381747293e+01
1.070952145096045471e-01,9.581689876535785799e-02,1.076951562084650682e+01
1.011351643278242812e-01,9.857525703654168581e-02,1.078220739556987340e+01
9.335796913383027917e-02,9.348452512581961749e-02,1.077325996328978519e+01
1.079107175070986857e-01,1.066748701566307828e-01,1.077920283354128372e+01
1.065635322567783372e-01,1.022615725893701172e-01,1.077137671858974421e+01
1.056532049047381600e-01,9.273737887124279544e-02,1.077648740079341749e+01
1.073036646951540385e-01,9.606355019042639443e-02,1.077499479547792305e+01
1.067741021754301523e-01,9.692878998213323716e-02,1.077115873704000037e+01
9.972683757143566141e-02,9.203090240655215082e-02,1.076424659986773413e+01
9.543248167758054679e-02,8.981994669483545080e-02,1.078339985455858674e+01
9.601458388411897305e-02,1.067259452573040557e-01,1.078196179026549473e+01
1.035249668712510396e-01,1.006801287349229079e-01,1.077962031103296248e+01
9.653561877777966371e-02,8.806792558080916988e-02,1.077407875694411743e+01
8.896441385299759530e-02,8.539652945884268487e-02,1.077546005854014943e+01
9.179170220626135801e-02,1.136415045565638826e-01,1.078473730887101745e+01
9.298341936421510023e-02,9.839085555973908770e-02,1.077337993542009720e+01
1.047085858245442869e-01,9.719446248677096611e-02,1.078154851650562129e+01
1.011073817991209045e-01,9.266065475987923794e-02,1.077311132825376561e+01
1.017667890361795974e-01,1.020912975574164855e-01,1.077647988171545279e+01
9.323566053231752138e-02,9.799387687810152958e-02,1.077902951489120831e+01
9.703769513902883725e-02,1.032899736276426256e-01,1.078158706280290424e+01
1.047989498843643341e-01,9.596846642022692497e-02,1.077783876068657953e+01
1.005222199184222370e-01,9.317902278209953815e-02,1.078561262116542530e+01
9.486852087320057914e-02,9.606005799905371900e-02,1.077687529547121059e+01
9.776734105358332594e-02,1.060301210448254816e-01,1.077523979286549149e+01
9.597859497326836908e-02,1.024519883932663161e-01,1.077508612547369538e+01
1.021245333784053799e-01,9.863709259148070729e-02,1.077857338704804668e+01
1.007798915522947203e-01,9.330744628430102938e-02,1.076576626138109205e+01
9.966588647236662712e-02,9.765674063873990007e-02,1.076529641454898467e+01
9.741015256884179296e-02,9.625761531693638462e-02,1.078401822549717437e+01
9.737270721943029617e-02,1.042841137362165854e-01,1.077534505811476784e+01
9.573104998105694263e-02,9.827993300883351713e-02,1.077331833147898266e+01
9.324430865084858133e-02,9.768660265222725569e-02,1.077962414667809732e+01
1.041430655706534203e-01,9.413591134559866347e-02,1.077759187412038422e+01
9.578652237924245583e-02,1.037191842810666620e-01,1.076696096085444943e+01
9.213186681003465717e-02,1.003718830101022058e-01,1.077084200444264539e+01
1.053796949289932949e-01,1.032728587593758629e-01,1.078752780493974583e+01
9.069780191691323434e-02,1.030869097126067002e-01,1.077000996501672780e+01
1.023557532143010013e-01,9.535438160582004885e-02,1.077486021178256692e+01
9.701755008460338781e-02,9.746960701824260165e-02,1.077266486823047664e+01
9.365672047484464857e-02,1.088508085976159223e-01,1.077420041013241736e+01
9.514020225715180690e-02,1.012270713114656051e-01,1.077818736173277081e+01
1.026632591595681571e-01,8.944290449698812095e-02,1.077381217626995280e+01
1.028896234273695975e-01,1.016624369705676212e-01,1.078206580229181100e+01
1.012567881831211020e-01,9.759718300384669087e-02,1.077800115064923325e+01
1.034882628082295780e-01,9.328133979100676487e-02,1.076457105322704422e+01
1.027418666911682904e-01,1.045552719467596481e-01,1.077224105006488486e+01
1.018875639741114447e-01,9.056092906343293780e-02,1.076847984945092129e+01
1.035448650435065177e-01,1.039781026091046723e-01,1.077950268091637120e+01
9.293870793500080829e-02,9.475255948665620154e-02,1.077859481070943737e+01
9.534729613904276146e-02,9.468227720088460975e-02,1.077513221749380357e+01
1.020957436950866298e-01,9.668067721038156592e-02,1.077185376768490954e+01
9.459814762087717654e-02,1.075084513216092719e-01,1.076877597461333913e+01
9.648728444246217062e-02,9.823171307946142183e-02,1.078071983856047567e+01
9.872122989037501739e-02,9.327481472512648419e-02,1.077166294080680942e+01
9.480510950589501884e-02,9.261342020032201083e-02,1.078827958597206660e+01
1.006749109198288444e-01,9.849647337682974901e-02,1.076440019989453312e+01
9.720444275487791219e-02,8.939598908204082761e-02,1.077825571234881963e+01
9.621540649427971770e-02,9.983771036530568466e-02,1.077708076010869398e+01
9.856140195972047657e-02,9.196587920781505721e-02,1.077243757236898603e+01
9.897830429946020969e-02,9.206653180298102201e-02,1.076968926181233677e+01
9.702473008218398531e-02,9.645097718318246249e-02,1.077548708012969314e+01
9.179839069977391297e-02,9.919946435744286806e-02,1.077728331969897724e+01
1.030648920568805610e-01,9.673020936577740592e-02,1.077320761966813834e+01
9.463182386524843226e-02,1.052869628522005302e-01,1.077883968961460504e+01
1.007388826397559722e-01,9.398710335854179587e-02,1.077529374818502994e+01
9.280083702677992263e-02,1.008020870232985422e-01,1.077810536201505087e+01
9.835818734801844709e-02,1.013790767974104973e-01,1.077197684916190745e+01
9.873221762444785166e-02,1.083500182939968609e-01,1.078252899036596268e+01
1.067928850933296397e-01,9.015655128882414659e-02,1.077953165416007764e+01
9.190692498248742570e-02,1.006177780834882768e-01,1.077323473307836821e+01
1.008350407850902020e-01,9.761589357406498524e-02,1.077190825587963374e+01
1.052580536335380595e-01,1.013529400255508833e-01,1.077878509184258782e+01
9.680354043953681709e-02,9.655053562382272248e-02,1.077643586614726523e+01
9.437195049668854752e-02,9.113273919127935774e-02,1.077380577955509544e+01
9.685483126068387960e-02,9.185006580919537200e-02,1.077064544785113931e+01
9.419466641509227633e-02,9.341155673579716601e-02,1.076782332367491613e+01
1.083683104168171180e-01,9.896884604248287753e-02,1.077287350094245966e+01
9.973367195470700386e-02,9.454713038009701642e-02,1.078073845582460599e+01
9.093423659776828094e-02,9.298694556246349385e-02,1.077484282119549519e+01
9.592437584018230490e-02,8.974201060524966689e-02,1.077280364277643621e+01
1.079767741874725351e-01,1.065964532134199422e-01,1.077063410879382488e+01
1.033711802863342410e-01,1.008093195108608897e-01,1.077542609840599397e+01
1.075165502662099037e-01,9.204598700285299140e-02,1.077122167728340152e+01
1.003746931752256544e-01,9.008574804174457329e-02,1.077777290899599549e+01
9.384837411103413851e-02,9.358358723542860302e-02,1.077651204977059685e+01
1.035697205125660630e-01,9.853024108825145233e-02,1.078069049676586033e+01
9.900058818326799848e-02,9.642680495967521914e-02,1.077343491266725195e+01
1.093060567602774646e-01,1.006758276697423821e-01,1.078162988451145310e+01
1.009718896263181453e-01,1.059405041725422075e-01,1.078108684429944120e+01
1.037149132942491586e-01,1.003126148371636522e-01,1.077484945196408184e+01
9.895642824948915062e-02,9.042779887484360402e-02,1.076448435775812840e+01
9.833749448074453892e-02,9.089810128433864489e-02,1.077200452177464207e+01
1.034606304973910706e-01,1.001912276539881907e-01,1.077183030332056113e+01
9.755382433158626965e-02,9.865921944958055967e-02,1.077938192656679206e+01
9.021859839056071972e-02,9.072576619254518748e-02,1.077718041254406423e+01
1.007374208610565813e-01,9.865906064164789435e-02,1.077909208308441968e+01
1.022864187881771803e-01,1.002131725742874402e-01,1.076864575453472028e+01
9.986243312416206996e-02,9.831117310994860747e-02,1.077951491327680777e+01
1.001757052140170717e-01,9.091495191514302465e-02,1.077169446681231868e+01
9.766341687381600856e-02,9.529806156346137813e-02,1.077324689901586829e+01
9.520523056380886251e-02,1.064499888647432446e-01,1.078627352705794351e+01
9.662756906853255112e-02,9.382847835523920599e-02,1.078832665715199468e+01
1.019850136593274392e-01,1.009863632253814453e-01,1.077803083403369477e+01
9.730190201613131418e-02,9.550099054882181526e-02,1.077712941742496611e+01
9.152877187900416989e-02,9.619971887346068229e-02,1.077164840868749529e+01
1.062167432661464267e-01,9.663691579530044040e-02,1.077756275357389626e+01
1.057865037641953915e-01,9.760612797062548363e-02,1.078056552532276768e+01
9.932361162581337943e-02,1.037711527734251071e-01,1.077199108385535986e+01
1.034020557750584685e-01,1.017205368183634190e-01,1.077577169524602141e+01
9.805955789011154555e-02,1.098300666958167970e-01,1.078010069257329384e+01
9.236412286809680960e-02,9.787746071985845009e-02,1.077112255062333190e+01
9.666440904578861570e-02,9.715534647407529645e-02,1.078027423068343715e+01
1.029610986201873885e-01,1.004286269253900632e-01,1.077094286779346177e+01
8.531003658601984951e-02,1.038836247004063795e-01,1.077356181162046056e+01
1.017835154377255413e-01,9.472110239439479606e-02,1.077348042549364493e+01
1.002538364213630545e-01,1.005053550818510999e-01,1.077320151524882519e+01
1.050336428145126066e-01,9.596880604916332991e-02,1.077873652745723376e+01
1.001623441642192497e-01,9.375252685589083312e-02,1.077413070429837916e+01
1.007985273730206410e-01,9.969674398674673033e-02,1.078041342033388439e+01
9.620339160068620832e-02,1.095709370789626491e-01,1.078511434363099930e+01
9.740636443688066581e-02,1.059153316454401889e-01,1.077499004060921628e+01
9.863683657766401935e-02,9.036979670049305469e-02,1.077393041835571985e+01
9.359437222993616246e-02,9.306079905600435354e-02,1.078309916417985548e+01
9.327616135814108256e-02,9.589970043481715889e-02,1.077215399598617473e+01
9.467827500920406036e-02,9.458045651890169270e-02,1.077912523487950303e+01
9.789065750625138007e-02,1.022760577237182000e-01,1.077229767133748162e+01
9.815364319738782706e-02,9.537842390766024248e-02,1.077805688454362532e+01
9.893691284316041834e-02,1.026316859643412183e-01,1.076613196612112588e+01
1.003940285764653717e-01,9.440142223140175759e-02,1.077827111600925569e+01
1.021939603524459061e-01,9.701754731769950124e-02,1.076883991599903290e+01
9.484359748263390677e-02,9.720391522367427539e-02,1.077681896416779850e+01
9.185562588117314464e-02,1.008942296143573863e-01,1.077581559736104921e+01
9.962797107346268999e-02,9.140168348700021539e-02,1.078437965368195428e+01
1.016740636771788220e-01,9.837189249903660615e-02,1.078244058298865937e+01
1.064951944824270580e-01,9.200581719242167944e-02,1.076398455018901323e+01
9.559496785894278092e-02,1.027000272376207002e-01,1.077715129498666613e+01
9.833444048799949710e-02,9.409407294220323292e-02,1.078226824358846514e+01
8.890454807929130954e-02,9.602697671790098866e-02,1.077383891477212075e+01
9.587474120940289724e-02,9.996886701272519882e-02,1.078378738573125162e+01
1.008009887559744994e-01,1.010229469032491861e-01,1.078101766796717165e+01
1.000445564408348198e-01,9.946993370412572644e-02,1.077353471679292518e+01
1.020226329420019229e-01,9.871968870149548658e-02,1.078502455098140089e+01
9.743112456559184509e-02,9.162928179118311200e-02,1.076552684875314370e+01
9.610920621502890004e-02,1.049007384162436718e-01,1.077712471370710645e+01
1.036455001514269558e-01,1.024372088200978526e-01,1.077603878106125634e+01
9.961309913561325335e-02,1.058462912822537294e-01,1.078032081422785993e+01
9.043429845184157434e-02,1.055402304211853076e-01,1.077506320202234313e+01
1.042479865822069918e-01,1.002472322428681756e-01,1.076430411384486519e+01
8.847944913988396720e-02,9.650790480509136016e-02,1.077267251710212115e+01
9.316023402248030383e-02,9.073691650912543705e-02,1.077843816162389423e+01
9.630748530981989020e-02,9.629614619269216691e-02,1.077631999567121035e+01
1.035174979257336703e-01,1.028196156751080281e-01,1.076833828774364221e+01
1.000610047848320555e-01,9.320250726949830256e-02,1.078114499132809456e+01
1.006067670248124157e-01,1.041840353735154351e-01,1.077419913879922397e+01
1.029035338825749213e-01,9.570724650059635186e-02,1.077073400379578416e+01
1.013295737728214241e-01,9.157044503631771304e-02,1.077174276961683752e+01
1.034939956877911071e-01,9.739204738921351800e-02,1.078340065102986323e+01
1.018301956101647227e-01,9.127223260960211360e-02,1.077095142297563513e+01
9.185222112475192879e-02,1.030527307349141108e-01,1.078392594100832191e+01
9.364906235285117009e-02,9.343647130249253807e-02,1.078472291988125065e+01
1.036598755159877372e-01,9.499847778375083984e-02,1.077035478537371205e+01
1.003167055712276268e-01,9.559094202126079687e-02,1.077537174619042482e+01
9.881825329887433673e-02,1.112093868491599996e-01,1.078003426866119341e+01
1.000352375688348533e-01,9.185697870950522426e-02,1.076992260621939224e+01
1.015237948040615956e-01,1.010702543429691236e-01,1.077406201942998010e+01
1.021211867876475055e-01,9.584960084864477259e-02,1.077086761417690042e+01
9.224321762720379125e-02,1.043974800767870498e-01,1.077867675054231711e+01
1.007199388343207602e-01,9.378561398120106862e-02,1.077662956554074647e+01
1.039526067635604401e-01,9.729847644756615954e-02,1.077859083608213453e+01
9.443948827276593683e-02,1.048995470720999468e-01,1.078011297141739711e+01
9.919505433631278790e-02,9.657167573759101176e-02,1.077839075288108894e+01
1.038149081833505405e-01,1.009177147479868170e-01,1.076464827435200178e+01
9.328202658399831204e-02,1.000506431762597376e-01,1.076554739729834509e+01
1.026341109708309440e-01,9.767786850190572634e-02,1.077785364769774468e+01
9.472336183008220334e-02,1.014480850893900721e-01,1.076806934262052451e+01
1.063290861762638262e-01,1.065938818918244352e-01,1.077364053310446579e+01
9.234648128602940265e-02,1.043787282216190326e-01,1.077954060608526810e+01
9.396324149105432511e-02,9.937129387794030322e-02,1.076851814109179273e+01
9.243949104308406273e-02,8.905630948779803824e-02,1.077531683130714413e+01
8.917337473557174210e-02,9.386649915567417402e-02,1.077152456390764357e+01
1.004379794346930838e-01,9.263007217096011492e-02,1.079041643156551622e+01
9.587219015597557570e-02,8.381681709218481713e-02,1.076513039747633904e+01
9.853768890483728671e-02,9.571323037385649768e-02,1.077285168303606078e+01
9.721312894337859334e-02,1.027637997966801137e-01,1.077842183544510490e+01
9.592928882058925077e-02,9.929060054110266931e-02,1.077036067373464512e+01
9.840808219449488636e-02,1.024391323272792198e-01,1.077592008924337463e+01
9.903919468452346275e-02,9.914508863321111476e-02,1.077131252203030698e+01
1.008119152371112909e-01,1.017275829139025617e-01,1.077942199189429573e+01
9.278290146117587622e-02,1.003762246264524732e-01,1.077816750459659723e+01
1.029349744979866921e-01,9.758770210785368271e-02,1.077051754887766144e+01
9.768480122564056345e-02,1.015212098860567430e-01,1.077647670196506979e+01
1.014017200329569157e-01,1.012637565309889021e-01,1.078226621724617118e+01
1.038297197083691698e-01,9.611081092442000373e-02,1.076849830331556923e+01
9.119277849995965912e-02,9.293324573133229793e-02,1.077471244296250319e+01
9.809213469713649880e-02,9.900622016071145004e-02,1.076854492697503041e+01
1.034974462723902838e-01,9.709749663047355372e-02,1.077373469164032116e+01
1.002132381729259336e-01,9.715539400491358946e-02,1.078202595037683231e+01
9.546699352688334250e-02,1.102498739470205436e-01,1.077315358265258816e+01
1.071558102490304809e-01,9.860846247405065379e-02,1.077197234242439272e+01
9.292285474460633410e-02,9.648328855765350709e-02,1.077507994240585276e+01
9.858479724565981372e-02,9.255989296170329117e-02,1.077874810518093973e+01
9.928932752693145347e-02,9.425082634198451992e-02,1.077853803387029252e+01
1.027761609025208828e-01,9.240347661241055111e-02,1.077785785477753144e+01
9.907202559030567346e-02,9.721278589374798829e-02,1.077036751447256613e+01
9.416413981154103663e-02,8.819951937694439636e-02,1.077286520389562163e+01
9.819691664103105677e-02,1.011407944903179867e-01,1.077690106298838835e+01
9.828754171726908351e-02,1.003782466551621233e-01,1.077193429680209036e+01
1.052384656053508144e-01,1.019158087569920906e-01,1.077254534020281440e+01
1.069598455391813502e-01,1.018661148811713935e-01,1.077203547353107815e+01
8.719155348325437205e-02,9.945293067364784079e-02,1.078457779530618410e+01
9.715821532757767942e-02,9.617371025914349392e-02,1.078275742792367353e+01
9.281417662513043176e-02,9.727661335099423157e-02,1.077192625209756116e+01
1.000046409181941653e-01,9.323668070517608653e-02,1.076396832425862549e+01
1.023891325042607936e-01,9.284831041931707052e-02,1.077777922064988836e+01
9.541588407205289779e-02,9.940657330890589893e-02,1.076944223052489313e+01
8.318753577324621007e-02,9.256958428670350458e-02,1.076804839695408234e+01
9.761188426606580426e-02,9.946498830505171029e-02,1.077867272957679923e+01
9.845777067977910801e-02,1.024592653951174187e-01,1.078369223304859048e+01
1.029908201562140524e-01,9.773207866452356118e-02,1.077037723289412696e+01
9.791636785883915672e-02,9.973023638760637744e-02,1.077318864234297635e+01
1.070580111084711156e-01,9.421943407079713673e-02,1.077526174439365469e+01
9.768729186101998696e-02,9.875119359861732338e-02,1.076935325696502765e+01
9.419207338139969077e-02,9.116762335104573733e-02,1.077036969019922275e+01
9.857043359817833916e-02,1.011236311382219533e-01,1.077521959690789011e+01
1.006157919531564526e-01,1.017823340989705422e-01,1.077164470875429281e+01
1.004749724781491549e-01,9.583999246654553716e-02,1.077827059605174398e+01
9.508921576395093500e-02,1.011483767229402614e-01,1.077287723030857514e+01
1.063511161228535007e-01,1.021465386310764778e-01,1.076626490101287459e+01
9.663441094442172530e-02,9.379123872982578214e-02,1.078085989206056539e+01
9.686630003583324156e-02,1.015791924109309269e-01,1.077516171528162658e+01
9.024717029530510137e-02,1.020114885365183133e-01,1.077016384652079672e+01
9.578959081496858652e-02,8.807294552697063350e-02,1.077837828686368127e+01
9.796015506370342463e-02,1.035361973517515133e-01,1.077732189437428190e+01
1.019260022581627290e-01,9.914219931163557875e-02,1.076829196162998059e+01
9.636988404028599964e-02,1.102386745160175985e-01,1.077147022860717129e+01
1.023417724943219836e-01,9.641779406520586959e-02,1.077594531306626813e+01
9.009138113116306468e-02,8.729959243910316580e-02,1.077555561003896223e+01
9.492298336907896428e-02,9.180786958662325026e-02,1.077258093516397253e+01
9.769201414269113037e-02,9.752847797207236935e-02,1.077138470927583036e+01
9.310502601096702635e-02,9.563997360431857053e-02,1.076622901875593286e+01
9.236542006500654545e-02,9.893634255384027576e-02,1.077095890562518221e+01
9.480285212126236816e-02,9.438103089870507334e-02,1.077640891265880541e+01
8.802316476535768097e-02,9.872960588977255925e-02,1.077459452818857244e+01
1.054549735358347867e-01,1.054632932348993635e-01,1.077042147175234277e+01
9.877898192706240088e-02,9.690349523066009441e-02,1.077146164498770453e+01
1.053557670779106670e-01,9.284894040591581965e-02,1.077128251108360857e+01
9.224546167834446475e-02,9.993397545101233292e-02,1.077289604186255723e+01
1.020231846467273551e-01,1.059086864550151663e-01,1.077929087022022969e+01
9.926555802884076685e-02,9.753794073046744006e-02,1.076849270252236224e+01
9.248903866376735616e-02,8.703424976923090917e-02,1.077000838766752722e+01
9.551855590671753937e-02,9.830124625159883389e-02,1.077566469659013748e+01
1.012516329993177339e-01,1.049973046838359458e-01,1.077289520526332822e+01
9.183587162209075339e-02,9.871675102844226779e-02,1.077520929377492109e+01
9.632590627019650686e-02,1.012726016962631481e-01,1.077585569540978305e+01
1.042007151379465285e-01,9.833792570355842644e-02,1.077576059864172642e+01
1.034626937425917881e-01,1.059322723836125940e-01,1.077672480146345357e+01
9.898909068160506586e-02,9.507309967209578994e-02,1.077521620580899153e+01
1.027353655211471484e-01,1.043466319939195946e-01,1.077398681354428689e+01
9.859044284400377001e-02,9.743423975095419354e-02,1.076561659418686645e+01
9.224545300893439992e-02,9.493132961080953669e-02,1.077605379842461808e+01
