gyro_x (deg/s),gyro_y (deg/s),gyro_z (deg/s)
4.915562702397860972e-01,4.842506762810764309e-01,5.093534274206490409e-01
5.089676524751185482e-01,4.183350373242855635e-01,4.892853131785762644e-01
5.485082581621532061e-01,5.336807840455285445e-01,4.852509013142620731e-01
4.726633011271849094e-01,4.228851200672903987e-01,5.523828895423266161e-01
4.675808344742198308e-01,4.846871417354227107e-01,4.226285123581135506e-01
4.862114331299980385e-01,5.062607467739195233e-01,5.306123130544486699e-01
5.154729653694286595e-01,5.471236867600006715e-01,4.876119638377419685e-01
4.951283357259987361e-01,4.229205435554651005e-01,4.931738951461313580e-01
5.108377500372369706e-01,5.346097558273192885e-01,4.418988586366380811e-01
4.960362448104607691e-01,4.809244908300171484e-01,4.928996085911550029e-01
4.777706090294964181e-01,5.283228481861559356e-01,5.477213001976151130e-01
5.341115525194586322e-01,5.001211504581914991e-01,5.189725173825731064e-01
4.963833830401997438e-01,5.192627862649968895e-01,5.407045022290631886e-01
5.958217273761672317e-01,4.983046038542391365e-01,6.001767563223183721e-01
5.737018817724985897e-01,5.122775073814554991e-01,4.612272579965356889e-01
4.864801655765436106e-01,5.296371612037882315e-01,4.646715718143856200e-01
4.566477215143839308e-01,5.144979346794310571e-01,4.412056099459905067e-01
5.591793176891619588e-01,5.168770473805968102e-01,4.515635251008450202e-01
5.105352196058283720e-01,4.982099414210507393e-01,5.292337238008868461e-01
5.126349220161209308e-01,5.734589693577873959e-01,4.877566699402088313e-01
5.070681521695215022e-01,4.774569191934448509e-01,4.908802637436197047e-01
5.269755841512969718e-01,5.245129558411718573e-01,5.214136671512196175e-01
4.880070759496404897e-01,5.056985693884049615e-01,4.367765729791405760e-01
5.014604271732209240e-01,3.975764802017814903e-01,5.237606961613977541e-01
5.215891700485536520e-01,5.244149161973278295e-01,4.832828107074985113e-01
5.515734113713011144e-01,5.994208313706715918e-01,5.352142974391067565e-01
4.920536870530916596e-01,4.626536940254898367e-01,5.244786248262057748e-01
5.585604793715498451e-01,5.241417639708634280e-01,4.903294394163290049e-01
4.637792927983824254e-01,5.080044107803765030e-01,5.778212270876006418e-01
4.210817771242671981e-01,4.843125973738876544e-01,5.412137415448174949e-01
5.507780265721452517e-01,4.302911396279715528e-01,4.917838319454221896e-01
4.837113622525013867e-01,4.745442726740607409e-01,5.478888610697744133e-01
5.017192132435581708e-01,5.100845489255151355e-01,5.319702613421539716e-01
5.058839736682924082e-01,5.198154373707770670e-01,4.332810987839124661e-01
5.159365291328854575e-01,4.933841480239545274e-01,5.138701716282985110e-01
4.637628840530986229e-01,5.237155357714792236e-01,4.958658895860921789e-01
4.512238487813649002e-01,4.859398100034397205e-01,5.239667891067253391e-01
5.114165884904982029e-01,5.756290928611773605e-01,5.314439747643356915e-01
4.542062626312202145e-01,5.382682754090438726e-01,4.950973874153120069e-01
5.371558504620743690e-01,4.983923746308014935e-01,5.761517950732568671e-01
5.041728919872917603e-01,5.361569903883752763e-01,4.668769109993687882e-01
5.544256892486710830e-01,4.782900455191927414e-01,5.159672148583593909e-01
5.494206280560253175e-01,5.300518816692529889e-01,4.038580685341537913e-01
5.002795924373449887e-01,4.829072810878571320e-01,4.945076805224107863e-01
5.215062326564343653e-01,4.865171608948679061e-01,5.494879632376451495e-01
4.804976140349931923e-01,4.794560005325653185e-01,4.284002891447384331e-01
5.510498545636451917e-01,4.680711078613170040e-01,4.661388361217395082e-01
4.232372501029740275e-01,4.492453968848428292e-01,5.145430809497414382e-01
4.670525829933039330e-01,5.113113087095025877e-01,4.775624201542048586e-01
4.695006978345666049e-01,5.192137043244448025e-01,5.473096491611519898e-01
4.802191834363895850e-01,4.974582434305017675e-01,5.466661025134939011e-01
5.307774809534914207e-01,4.665645012495590049e-01,5.677735721830456939e-01
4.823787117854562712e-01,4.796251594908593763e-01,4.875076413265150288e-01
4.774541874519312445e-01,4.847569646511783459e-01,5.117400327352825684e-01
4.419552529614595437e-01,4.701350383651619058e-01,5.038426138506347796e-01
4.869923705228045852e-01,4.892332007657126391e-01,5.293618472096418559e-01
5.231291290853539167e-01,5.105367973063097420e-01,5.866709077058781530e-01
5.409159563183468800e-01,4.298173178860096311e-01,4.912157939766481629e-01
5.204976427215374235e-01,5.102802945219522268e-01,4.648054286604579866e-01
5.922011410503220663e-01,5.083316081135701436e-01,4.817838523085802294e-01
4.955037313894669615e-01,4.885625495651630401e-01,5.871795536971884388e-01
4.588820226092154009e-01,3.910557650046771472e-01,5.373696443808048118e-01
5.026510633309898557e-01,4.673657302667145186e-01,5.073139186466953943e-01
4.469777234120912990e-01,5.356164872066390137e-01,4.983940457930944867e-01
4.761568339983102138e-01,5.277657496148351335e-01,4.592662583083612637e-01
4.736063151943804006e-01,5.216522824910554412e-01,5.380842931998714995e-01
5.023850366907292031e-01,4.746569268062826308e-01,5.167510101866406025e-01
4.976467631374360545e-01,4.747953148573461069e-01,4.659213439931697565e-01
5.249871606014864245e-01,5.211070171527457662e-01,4.933863441241352343e-01
4.967443582924487289e-01,4.805658061345556842e-01,4.927980402860450138e-01
5.436776917475278914e-01,5.344523787177389851e-01,5.348020120482314121e-01
5.445137401529727139e-01,5.592946222994573668e-01,5.281183027049211054e-01
5.909976253823119308e-01,4.803906595001742885e-01,4.261551721125111380e-01
4.714870781648304310e-01,4.818969354087209167e-01,4.368701169535083029e-01
5.151556280103999352e-01,5.052064169479003608e-01,5.326830336897004914e-01
4.419681106312058905e-01,5.601197771373664924e-01,4.868871791041285979e-01
4.089024077088003750e-01,5.080206760270226107e-01,4.795460903306548728e-01
5.123509947720932267e-01,5.346300054857059392e-01,4.081455857776558060e-01
4.879039352833510201e-01,4.478149175091339917e-01,5.702777985372458058e-01
6.200300951493407098e-01,6.019753071421884982e-01,4.496364263084099422e-01
5.107735500247302385e-01,5.002038209627255316e-01,4.878148054078184637e-01
5.126077289785583302e-01,5.221186067948685450e-01,5.421758135533247813e-01
4.815439029906268820e-01,4.799535840317583624e-01,4.741043502306507840e-01
4.765613844921411935e-01,4.680499735773980818e-01,5.302159430684421082e-01
5.658197118480726706e-01,5.116464980212244162e-01,4.890567725947040367e-01
4.593101554508512430e-01,5.306709915008792633e-01,5.254483792869003578e-01
4.946668027693950642e-01,5.424319893085712829e-01,5.105604636468028534e-01
5.080256581357761592e-01,5.017766823460153569e-01,4.834424065689180705e-01
5.377253290776254913e-01,5.395053918566288242e-01,4.922758713258905128e-01
5.597532141184924370e-01,5.442133389223562379e-01,5.354025380125876366e-01
5.079854817307584147e-01,4.614862381167682548e-01,5.177461738241934119e-01
5.498720217073524985e-01,4.978235344607374047e-01,5.606137186551396479e-01
5.284178920472023533e-01,4.355584667340927640e-01,4.771387268140451221e-01
5.165538084860321622e-01,5.311324473371713539e-01,4.542113500415397298e-01
4.805115326181782498e-01,5.299739940238762381e-01,4.872355417087671503e-01
5.177878334105601166e-01,5.240701231796335291e-01,4.739031424451131125e-01
5.413757671134158400e-01,4.437630352950947543e-01,5.269531603472392689e-01
5.119022592097965951e-01,4.732364316055813758e-01,5.422901438873285462e-01
4.600145416534669462e-01,5.190015615590095610e-01,4.803940835735753812e-01
5.320507342533309370e-01,5.069303487428338251e-01,5.166358335319697348e-01
4.683856187100266522e-01,5.417610694901267010e-01,5.133617459360344526e-01
4.699417996362558192e-01,5.111565688943479069e-01,4.702470330376170571e-01
4.672459670416280186e-01,4.808637172828728046e-01,4.236894450900139941e-01
4.931549885369928554e-01,4.345604024603983428e-01,4.958671695630562648e-01
4.873332343893380103e-01,5.295032665346285361e-01,5.283047080690618236e-01
4.724189750379962360e-01,5.318392309643880100e-01,5.313461401548387197e-01
4.625229349578184324e-01,5.409816296760197041e-01,5.724489672349553082e-01
4.610111436657130524e-01,4.768573553657251551e-01,4.735008466460396415e-01
4.725483318455595549e-01,4.861126104068561049e-01,5.791731800765498317e-01
5.522606056101728722e-01,4.907980080126517763e-01,5.806172971644311120e-01
5.706701878007296447e-01,5.807234547572139860e-01,5.668819218824820982e-01
4.954027128634699295e-01,4.657625244677273124e-01,4.767846506515498461e-01
4.925515216031096655e-01,4.854720112472586946e-01,5.133974748641151331e-01
5.262394862709209864e-01,5.439178563679298861e-01,5.052189048418168626e-01
4.100835559986278911e-01,4.323413647665252380e-01,5.100573941179976645e-01
5.020802425211485787e-01,5.022945282096487052e-01,5.617620499828790415e-01
5.264692656667863124e-01,4.532391246376784033e-01,4.981479933019857254e-01
5.283388268563580237e-01,5.298633988147497531e-01,5.015757683088362118e-01
4.823053066292897206e-01,5.522769774531132159e-01,5.149589144888437886e-01
5.039766031766675924e-01,5.176343276863925036e-01,4.606474471435198503e-01
5.311623720380200808e-01,5.009792746318431078e-01,4.702346227633563691e-01
4.824028497336679822e-01,4.356366880246831941e-01,5.190621404840434217e-01
5.441742526781376821e-01,4.426244553252157710e-01,5.186966857322659052e-01
4.975686750185672746e-01,5.547792763756930201e-01,5.843780418721098435e-01
5.258926703035374794e-01,4.985735245159894635e-01,5.218219710308049653e-01
4.364477988927610297e-01,5.352651000224988298e-01,5.453910225170439663e-01
5.071237698896969848e-01,4.378346768995731719e-01,3.968507758092970628e-01
5.781103432202893133e-01,5.544260200886379497e-01,4.426130751200831881e-01
5.300851620131366015e-01,5.521899017619665839e-01,4.793381291291449742e-01
4.724069165916914281e-01,4.371097980929982141e-01,4.174757573458302562e-01
5.256492530796595952e-01,5.097961984458817541e-01,4.691089529738370345e-01
5.242158116108580623e-01,4.637924448973457237e-01,4.685684249015539260e-01
5.640093386695842481e-01,5.103089405025984515e-01,5.107871957139953345e-01
5.003408971705379793e-01,5.439335048009052986e-01,5.168974555949737981e-01
5.459519800007994750e-01,4.400208215169523207e-01,5.379858639527952402e-01
4.417976333766050479e-01,4.481852975309858489e-01,4.795208294870537125e-01
4.728849348426679144e-01,5.514050777240525614e-01,5.359311070479183536e-01
5.004980266847602888e-01,5.037610388668879446e-01,4.654942007522703262e-01
3.632834063226489385e-01,5.825529285600763441e-01,4.579974132739328962e-01
4.965074626600314289e-01,5.267848990778792873e-01,4.829031634191568445e-01
4.964122666299947140e-01,4.323855144097983327e-01,4.472048978862579460e-01
4.438951491252389747e-01,4.762553846749262854e-01,5.258987005475442844e-01
5.565492764617991917e-01,4.748684464390018900e-01,5.386697007043306229e-01
5.098384446048398466e-01,4.655515396530557903e-01,4.833620646916434449e-01
4.903449439354907735e-01,4.962671164575521154e-01,5.264022756454534990e-01
4.414393929797581495e-01,5.220285706888623256e-01,4.779057468698476030e-01
5.002840872215406076e-01,4.437741198665551834e-01,5.083665599945729197e-01
4.629532113454649656e-01,4.716810377609890748e-01,4.810034403360168298e-01
5.520159161073915355e-01,4.957178196923270330e-01,5.618782179478171157e-01
5.463890583101579379e-01,5.303023445130601310e-01,5.166620581717147331e-01
5.264795323719154707e-01,5.522505587283221828e-01,5.145039404071827249e-01
4.977126909916261277e-01,4.907359512918136324e-01,5.207713661451541798e-01
4.635016756682206474e-01,4.471818842444595932e-01,4.381726014490202603e-01
4.841445155248765286e-01,5.172013484815615181e-01,5.304483937083106504e-01
4.547459653140855096e-01,4.691668021278592726e-01,4.848685306502348857e-01
4.954259343379353586e-01,4.875256119629628460e-01,4.088709146262872185e-01
5.276598912549055331e-01,5.371728937287826300e-01,5.221287310374523871e-01
5.181092240091760281e-01,5.590321716680262121e-01,4.945745305106540313e-01
5.234746516496672220e-01,5.882678297149603885e-01,5.123930956928687275e-01
5.065151673599596061e-01,5.086036097045644189e-01,4.833411356194207698e-01
5.237385485036103461e-01,4.718346793713295018e-01,5.045434899410004004e-01
5.294426860653282940e-01,4.637925785478207996e-01,4.744437724303018356e-01
5.258320061483576779e-01,5.038153208712035092e-01,5.060133868982822358e-01
4.431599148220630169e-01,5.375055399245625143e-01,5.140085229470290340e-01
5.514925591088195578e-01,4.839733543800566196e-01,4.810483942749765873e-01
5.238066836162392770e-01,4.409742049625610671e-01,4.961118750297332514e-01
4.946089700423602631e-01,5.413912795957543933e-01,5.139456160502394733e-01
4.409300020290926603e-01,5.430671196786498456e-01,5.677980719636290807e-01
4.701316462794344342e-01,5.718740062685471193e-01,5.013854415780039098e-01
5.003696617713661032e-01,4.512605608830044801e-01,4.009217609034216867e-01
5.544127718156904860e-01,4.862751383958661133e-01,4.805245810245539761e-01
4.900789442403540863e-01,4.432457219580837049e-01,5.062491195706719793e-01
4.972490497730295278e-01,5.489655477497443758e-01,4.603049120099152458e-01
5.565146566145310336e-01,5.282478345121854879e-01,4.778197499914361157e-01
5.175101244081051766e-01,5.201968101291207791e-01,4.924580161061682948e-01
5.022927119667581763e-01,5.172372591156384480e-01,3.876344496163379727e-01
5.225784527221043474e-01,5.426111478822408518e-01,4.355261893242233229e-01
5.318841759181208717e-01,4.841733312360942398e-01,4.705531252719202251e-01
4.624865776875786705e-01,5.191894523585912635e-01,4.890856021757116201e-01
5.095212613503653509e-01,5.243179375887362381e-01,4.917363533336826520e-01
5.032033870841831069e-01,5.167181980834940624e-01,5.356009637194460993e-01
5.028467274695360700e-01,4.862028610305035858e-01,4.723104568607120468e-01
4.253127766014740407e-01,4.898688852449066267e-01,4.733809706686974428e-01
4.820125831267208505e-01,4.740066418249727076e-01,5.584821776260001647e-01
5.291171522983119102e-01,4.935033035685389424e-01,5.448236414304852282e-01
5.788965979900687620e-01,4.754399399043749419e-01,4.686017601888697315e-01
4.397507794125433689e-01,5.310684339064344339e-01,4.877157573982193739e-01
4.952965404182718689e-01,5.375599620073733265e-01,4.835595227081628811e-01
4.905205870659811729e-01,4.902312563674513513e-01,4.588399374674623221e-01
5.061193753612162061e-01,4.611190503685369535e-01,5.215034517283987370e-01
5.637711529467890337e-01,4.669609088560261467e-01,4.997804618013926836e-01
4.663362699610171802e-01,5.331758317737614883e-01,4.885564360824528052e-01
5.355533484814314349e-01,4.667810488595772744e-01,5.586301538057021343e-01
5.304302015293277384e-01,5.233653210572087877e-01,4.490535077639110084e-01
5.318402419817136462e-01,4.501170188466319111e-01,4.840303050108661354e-01
5.174360053863121811e-01,4.806480970943225461e-01,4.754039212735586273e-01
5.144097141612373747e-01,5.517585832802989199e-01,5.339971876364413284e-01
4.938515852146320162e-01,4.798728627615811426e-01,4.052235285161990275e-01
4.793997929732769503e-01,4.866848644384864087e-01,5.336283417320627498e-01
4.717502181048290333e-01,4.312546086667471967e-01,4.843877461590703204e-01
4.144479693017845690e-01,5.000987699835344191e-01,4.557564269390773082e-01
4.867687527659527169e-01,4.666878125069198191e-01,4.370873137645720496e-01
5.278006642740717957e-01,5.331862866773006138e-01,4.502634030978456825e-01
5.197859409871009584e-01,5.346707886692972922e-01,5.954710347175317109e-01
5.156412039630379196e-01,5.523562645223604184e-01,5.189271373360538897e-01
5.306463164736274774e-01,4.908344322117183522e-01,5.474702591696414267e-01
4.966444600523653441e-01,5.108771991499647669e-01,5.185099952705881643e-01
4.550040426559003315e-01,3.857949662991747020e-01,5.014004541955946470e-01
5.348134629749938806e-01,5.401736337206364258e-01,5.402234231660105745e-01
5.231275085433459981e-01,4.467264256608332595e-01,4.920499603130440436e-01
4.926432520021967743e-01,4.810768138736366550e-01,4.961998367227024032e-01
5.192589525748884105e-01,4.529146331225076261e-01,4.634533748900034333e-01
5.071964808147815251e-01,5.365743423399131906e-01,4.188355422910967074e-01
5.195015199090159408e-01,4.657643219797243939e-01,5.191241399744006557e-01
5.425693176499996051e-01,4.734163276394450226e-01,5.304557674846962501e-01
4.428689958659635106e-01,4.530780705023592647e-01,4.095634573505479992e-01
5.573009023491645175e-01,5.613510308051229414e-01,5.130024218312650985e-01
5.258117967216189292e-01,5.186388711567750942e-01,5.207733685624392761e-01
5.565062392143381720e-01,4.950857227708987951e-01,4.705269747205120812e-01
4.248363041180867050e-01,4.934154067953673284e-01,4.704141738637189762e-01
5.138544090154330002e-01,5.174958973790011463e-01,5.083839106602235924e-01
5.759849321755599050e-01,5.281130698099935072e-01,4.223319312811059101e-01
5.897500633475684095e-01,5.415261415679069046e-01,4.800083903841667610e-01
4.239521346752032072e-01,5.168077038567220338e-01,5.176652398188532622e-01
4.384402311366236704e-01,4.802733082648724117e-01,4.494572394454723896e-01
4.904716956141679796e-01,5.360140934866889362e-01,5.289651526552650029e-01
4.515065270025824806e-01,5.158637179363095848e-01,4.567556502340679447e-01
5.381382624908721546e-01,5.440707906410322536e-01,5.185318372512150997e-01
4.677042733155976628e-01,5.067694501156234654e-01,5.767524733362494604e-01
4.394390846242245963e-01,4.479282618824073081e-01,4.997968630050547145e-01
5.301439293667816743e-01,5.373212574966308441e-01,5.159579290982787558e-01
5.467474390146616070e-01,4.672179714409595563e-01,4.594836550771311257e-01
5.298026965409713407e-01,5.110025100085677785e-01,5.074672902807279007e-01
4.545361438029119627e-01,5.034166038784687602e-01,4.938243401761363005e-01
5.229824797164516204e-01,5.204252128893147589e-01,5.905928087171492535e-01
4.795994382091285924e-01,5.222718213107331309e-01,4.731309821945217098e-01
5.061392361199253953e-01,5.126960958431799886e-01,4.789751660884050688e-01
4.621860035763143970e-01,4.705982076378468215e-01,5.546673035056404188e-01
4.901553532476126684e-01,5.211681814772654020e-01,4.777301228499651331e-01
5.431578232563329944e-01,5.477604879870660026e-01,5.133083688622208651e-01
4.465941384586868401e-01,4.748374959965373510e-01,3.803037222708975373e-01
4.832392187791235694e-01,5.100549004625117844e-01,5.130964711865259043e-01
5.355748307564277555e-01,5.687600022082615059e-01,5.270600871236975626e-01
4.697813151696136891e-01,5.174086151526514632e-01,5.782711248622931510e-01
5.606306269542074006e-01,4.951649036456689523e-01,5.375466677387178427e-01
4.818109819237882396e-01,4.704994217308382520e-01,5.265269135293749736e-01
5.049969434033455551e-01,4.529511595302240790e-01,4.901500865984863564e-01
4.905485548897084991e-01,5.752369731318823787e-01,4.671304846005083222e-01
5.158514152076913994e-01,5.044496161689452363e-01,5.084985740073912908e-01
4.689106029611259108e-01,4.622953122784751456e-01,5.322604034276678941e-01
5.174384140478269778e-01,5.526765465366523244e-01,6.139450898556633174e-01
4.738428165601169528e-01,5.300553922118680372e-01,5.565367267576066812e-01
5.392471101472229300e-01,5.264024944008166562e-01,4.199861141564159572e-01
4.982266428653055468e-01,4.706028673621121539e-01,4.848894222704049350e-01
4.931574670812735040e-01,5.290675222774721131e-01,4.493517017197684038e-01
4.987836578271222510e-01,4.857170147559211615e-01,6.010079054200557769e-01
5.092697884254145935e-01,5.168439871910526229e-01,5.252461119565378089e-01
5.318815521704820526e-01,4.229559109069459533e-01,4.876976975075842380e-01
5.316546460826425680e-01,5.363028923529917780e-01,6.022064561005420202e-01
4.537282523767089404e-01,5.702687207505612310e-01,4.317859493608913191e-01
5.160565675297191790e-01,4.319079702069680837e-01,5.358246364134828799e-01
5.005730747729103536e-01,4.865949296878490093e-01,5.657814578128936844e-01
4.872471239913678254e-01,4.890473956001097910e-01,4.953437304037078825e-01
4.970277952394528964e-01,5.660677905557902623e-01,4.817890343175390000e-01
4.913244537539053214e-01,5.359313925611824958e-01,4.860219624021139273e-01
4.899429368306245647e-01,4.187244025982430062e-01,4.349520846738399449e-01
4.964252789150671030e-01,5.073135054524372523e-01,4.836237980342829035e-01
4.172101046973064054e-01,5.171020527702961944e-01,5.239580893937747508e-01
4.973692234699424453e-01,5.349421612955868044e-01,4.964473043751184145e-01
4.638671957908404031e-01,5.448259820937089160e-01,5.252883940963782861e-01
4.711586521341239453e-01,5.208375422298174851e-01,5.346822119626835068e-01
5.068976692635429604e-01,5.075962838803689259e-01,4.895558170253020980e-01
5.626177145422713854e-01,5.481136182205968987e-01,4.806000586142600839e-01
5.346624845715438612e-01,4.915855643569861932e-01,4.078433750139442981e-01
5.721296729824006944e-01,5.096663020978636771e-01,5.083299125319906686e-01
4.821916460186992381e-01,5.274442931152416580e-01,4.695053446054433532e-01
4.812493007076114049e-01,5.154915780967900263e-01,4.797848922284010942e-01
3.903330373053942592e-01,5.105409283499453554e-01,5.436891291751586586e-01
4.889014477762784194e-01,4.762837403196384933e-01,4.803469900723849606e-01
5.400592508209175469e-01,5.242312684279640811e-01,4.938163763634806913e-01
5.290464366459992629e-01,5.083741957166556524e-01,5.196714111453761831e-01
4.913336322926700195e-01,5.196505245932929729e-01,4.820348960010569228e-01
5.264595460253140846e-01,5.220233277260351024e-01,5.648198934620749512e-01
5.196495274067561843e-01,4.373110752290973458e-01,5.030476708313627032e-01
5.179216710251841604e-01,4.920316499932201326e-01,4.835025784227510171e-01
4.725266437943496101e-01,5.077220170735825544e-01,5.565433329377258431e-01
4.789512618180807868e-01,5.486834760865465510e-01,4.800345962413931633e-01
5.023346153022975047e-01,4.955458994928158001e-01,5.097290289443576761e-01
4.864172386960156635e-01,4.653632913859548359e-01,5.521836023612021194e-01
5.355642427629294655e-01,4.712641755317533709e-01,4.662110571437923512e-01
5.159984940336111991e-01,5.666682354381559206e-01,5.052627147337781510e-01
5.145052889937478113e-01,4.913947124834965874e-01,4.613747985656780348e-01
5.378193920906649828e-01,5.187173820485189157e-01,5.677923282296541974e-01
5.819298613631430639e-01,4.685038604598520950e-01,4.566580266174955494e-01
4.923366917488667949e-01,5.813918933133548350e-01,5.080266141507850941e-01
4.972806052119552733e-01,5.047150600814075405e-01,5.072732354731108728e-01
4.673289647025500870e-01,5.008009086392801734e-01,4.742038574944353879e-01
5.411235558722504724e-01,5.341017424100652500e-01,5.166632378736223385e-01
4.702031307689315542e-01,5.503961623950126558e-01,4.832832206981015344e-01
4.856167499957778078e-01,5.603025380399953015e-01,5.460479997938276764e-01
4.992062153099324218e-01,6.230464336319648799e-01,5.453332727429873739e-01
5.466161033015281001e-01,5.666673805021965604e-01,5.114582488332606314e-01
5.326164757467070077e-01,4.756856178170900673e-01,5.786362181728164078e-01
5.440417505720831493e-01,5.562456025580971852e-01,4.693150945775625416e-01
6.077286495167812941e-01,5.474802872993838054e-01,5.409324092614032908e-01
5.388859279799005364e-01,5.380449486709343310e-01,5.546997767712428251e-01
4.680439739998236148e-01,5.090234357313294655e-01,5.117832315740680205e-01
5.046613113594109468e-01,5.281216764126756003e-01,4.576709656574086127e-01
5.597559824925512073e-01,4.725370588620869672e-01,5.618645192202031957e-01
4.662770780796807180e-01,4.491880474661553158e-01,5.067248370482578812e-01
4.744158481581258191e-01,4.694773436652391885e-01,4.626580750544726506e-01
4.810854555087729634e-01,5.422547517362649172e-01,5.025505258925484497e-01
4.933328790837522293e-01,5.306041472221848521e-01,5.186739177220436314e-01
5.558598453587653143e-01,4.259419141168602208e-01,4.656517281844677614e-01
4.919515341710122280e-01,5.688793632992152904e-01,4.598354414991724370e-01
5.144432726253843624e-01,4.440924352845861955e-01,4.817017561866117070e-01
5.166202741743366467e-01,4.828843781626708243e-01,5.238035848619450041e-01
5.136459611663819480e-01,5.658050513511043711e-01,5.150162766652977009e-01
5.053178286530449759e-01,4.815202256470356712e-01,5.079292655099501008e-01
4.403379783730083652e-01,4.402131297932611043e-01,4.874188647391534679e-01
4.662629317522511418e-01,5.243457009946088654e-01,5.269614047183895922e-01
5.321667558287179745e-01,5.298925395798804727e-01,4.955630588845286177e-01
4.307722479557803408e-01,3.977689541197597101e-01,4.840061693853272007e-01
4.693777580807888539e-01,5.166441401142319867e-01,5.195382369260008737e-01
5.174543009257116521e-01,4.874496866320819355e-01,5.240261877946537084e-01
5.212195065406048933e-01,5.244275788581301834e-01,5.232849277103088781e-01
4.651674260727947097e-01,3.947952788462756879e-01,5.325005560366200541e-01
4.681207927894460719e-01,5.234501349073914511e-01,5.630771793496444078e-01
4.301098626247920054e-01,4.389053349788663572e-01,5.078732101194888271e-01
5.228835169175994890e-01,5.120932944230380812e-01,5.130075733360246470e-01
5.167548112589472886e-01,4.942538916092100165e-01,5.373979696095119163e-01
5.259764707659168037e-01,3.814559230150089131e-01,4.701989536178502460e-01
4.803940516052269127e-01,5.168878330291194478e-01,5.267241312133448261e-01
4.637091631987088070e-01,4.566130654497319585e-01,5.350476114659961091e-01
4.812522990733363870e-01,4.654760973575144400e-01,5.449845374689492594e-01
5.122226763668096261e-01,5.094069784220992547e-01,5.593662446492274620e-01
5.377792635593401371e-01,5.352379795803420270e-01,5.129684385959825121e-01
5.288107523074044858e-01,5.669852258090678498e-01,4.994603053103251478e-01
5.616920017890315586e-01,4.429041647708151230e-01,6.041516575592859040e-01
5.329952465523435379e-01,5.044282483243834880e-01,4.785611185778841925e-01
5.258190976949724815e-01,5.547353715972594967e-01,5.565329761208884785e-01
4.674138706481011929e-01,4.656723048413238808e-01,4.883950234244370248e-01
5.242870271005279914e-01,4.801068506062075025e-01,4.881458276581996381e-01
5.061723219695876130e-01,4.763962836853243843e-01,5.440166042695206983e-01
5.570517110404755723e-01,5.221808644457800463e-01,4.615153654777408576e-01
4.990318389558074386e-01,4.155541498604578554e-01,4.537112638832348499e-01
5.146445070362409835e-01,4.700516728050146975e-01,4.690906435840249689e-01
5.239215198126535578e-01,5.759408575723830026e-01,5.113370393204950126e-01
5.430524897709353427e-01,5.250484897756382274e-01,4.389313600435676421e-01
4.904896807817132331e-01,5.313877381947864631e-01,5.367318608575243344e-01
3.994601895278768189e-01,5.083977887823973862e-01,4.878294262429583306e-01
5.013707711229264952e-01,4.997146069673363833e-01,4.680531903478381550e-01
5.106146960288777681e-01,4.788610351636896634e-01,5.301082591376372610e-01
5.140378722134409939e-01,4.816599511374619613e-01,4.386455978781083065e-01
5.257070321537756774e-01,5.215393339108912452e-01,4.819318770642348482e-01
4.955689375774357530e-01,4.901805492074068904e-01,4.755770206123574595e-01
4.916113468775926143e-01,4.747471028061728271e-01,4.861268897479974482e-01
4.838688676563246971e-01,4.202914051489521907e-01,5.383821377009639919e-01
5.648635228625518145e-01,4.929100040620107426e-01,5.320292440832412595e-01
5.197965731897924435e-01,5.242492234272577711e-01,4.966579934038031774e-01
5.127006168252291607e-01,4.961466168657879816e-01,4.920145134117476227e-01
4.510272294351809763e-01,4.948462605345283483e-01,4.304666462461227416e-01
5.002280883501130093e-01,5.038539151693104401e-01,4.797605271501710900e-01
5.219851993945894275e-01,5.652454575460302832e-01,5.580320288634424974e-01
5.184518447982597866e-01,4.413755593266598942e-01,4.456052246169425746e-01
4.838055202102812258e-01,4.605719636516726334e-01,4.479872101410148910e-01
5.287595311805320941e-01,5.115517302465104610e-01,5.115823185648652460e-01
4.962396188656121865e-01,5.292684950525713417e-01,4.644680388462952836e-01
5.364422074136329099e-01,4.568887414937042313e-01,4.809068911746494646e-01
5.748554654270380260e-01,5.360684445596038961e-01,5.505345211869944189e-01
4.186916164228511317e-01,5.456458630324523273e-01,5.393498531401257345e-01
4.281423907204530144e-01,5.145128569798728124e-01,5.240918721239036238e-01
5.760168879100568962e-01,4.771876564644697560e-01,4.347040909217399496e-01
5.421348657900882939e-01,5.906265366276035600e-01,5.374188697752816379e-01
4.911379060784017425e-01,5.012286906251341989e-01,5.092431825298878723e-01
5.291560582720472583e-01,5.387818062352772719e-01,4.064095412261979345e-01
4.419010293355226660e-01,5.155666978083870422e-01,5.154137758109930134e-01
5.750958139041046913e-01,4.983220369052062670e-01,5.647525665315685783e-01
4.096096189698812950e-01,5.229313509302906393e-01,5.111452341093879470e-01
4.627062202079384456e-01,5.035085057117365537e-01,5.152650276725621037e-01
4.565239647013529245e-01,4.744863260989687914e-01,4.316880776227948746e-01
4.671123503399102206e-01,4.433884700656102185e-01,4.928098517129991807e-01
4.301391380990606250e-01,4.613260797219187470e-01,5.141631066726564114e-01
4.678234325934793603e-01,5.247198243852417843e-01,5.217390013411044025e-01
5.134247445939238430e-01,4.392246822529114469e-01,5.423349344663891403e-01
4.491994298619436110e-01,4.987365146813746986e-01,5.076167858329654337e-01
5.808961242098912292e-01,4.777917990371463031e-01,5.419627279595996550e-01
5.473388446435278887e-01,4.734659902015053157e-01,4.774588802404879373e-01
4.812058930668036694e-01,4.645373612125457408e-01,4.886436544445575958e-01
4.567540101818438614e-01,4.798214014032094465e-01,4.694139023032899427e-01
5.463591119688830933e-01,5.127553139360101486e-01,4.998637003846032600e-01
4.673666628646870325e-01,4.609698877390825955e-01,4.025960543547529302e-01
5.416270055719765164e-01,5.941020284556085551e-01,5.908812522843163162e-01
5.735422764749100732e-01,5.225193668647798440e-01,5.606074528628518516e-01
5.024507041221561998e-01,4.204606241742158690e-01,5.101341184584178290e-01
4.946820591204832418e-01,4.584364754045637258e-01,5.359210748569988025e-01
4.978197604656449116e-01,5.142708680830688772e-01,5.250022054462373244e-01
5.303727477547600655e-01,4.882584083116737750e-01,4.914399154910127354e-01
4.727138722190726283e-01,4.725307345889804833e-01,5.690932804148809421e-01
4.250631510798286161e-01,4.239669136199744615e-01,4.803106218522431026e-01
4.577317220120037944e-01,5.332100128845284059e-01,4.872363743412229109e-01
5.282776283066296097e-01,5.128915592698702897e-01,4.792805385301046606e-01
5.458654013333618105e-01,4.630945751613189110e-01,4.740980841432884674e-01
4.948167454739199056e-01,4.959500259730970084e-01,5.281425971408866271e-01
5.401834781732308688e-01,5.194646037537595795e-01,5.533915942982743363e-01
5.511886288950242907e-01,5.330761253428502044e-01,5.217285190193526878e-01
5.510996411422410812e-01,4.646296324204150507e-01,4.912010524134788891e-01
4.898515992031997057e-01,4.687619074322481039e-01,5.090821780867759161e-01
5.453754543158255697e-01,5.815833356807580401e-01,5.518405320251233981e-01
4.605917100051447055e-01,4.684954595632555563e-01,5.366651741735900538e-01
4.927041108614942932e-01,5.355108509468597955e-01,5.298408213726180094e-01
4.972137702970942374e-01,4.649130377088072641e-01,4.800188080224777609e-01
4.964528361856969108e-01,4.564413809047742632e-01,5.644316561048600134e-01
4.796682701905609636e-01,5.118127568992097975e-01,5.418095900615435001e-01
4.998504891047575449e-01,4.729893471467718769e-01,5.569576529661249831e-01
5.957746521808711115e-01,5.031869911698102493e-01,5.088279402443341981e-01
4.446858354709350980e-01,5.508365613870783717e-01,4.982313793318661754e-01
4.365862778536964695e-01,5.390224472259118604e-01,5.424165096145942000e-01
5.220335460491651869e-01,6.039072728427261616e-01,4.861616413000282577e-01
5.108064426332505903e-01,5.181023109102164126e-01,5.246527485196036400e-01
5.165485659263366891e-01,4.906168532429423523e-01,5.129020787254799929e-01
5.279956048849783201e-01,5.102698043075777345e-01,5.419827919729467425e-01
5.301781933727356400e-01,5.640621456327551408e-01,4.961936127876586666e-01
5.481948520915111978e-01,5.203371567528710662e-01,5.024746539984534799e-01
5.299020422688163201e-01,4.528397159638422043e-01,5.677290470538234324e-01
5.516352883355442049e-01,4.943720963766788934e-01,5.460557363328958358e-01
5.239960704006092485e-01,5.361571265851627910e-01,4.890869046068413439e-01
5.061511464690656714e-01,4.596952399476234019e-01,4.408477407187170183e-01
4.610419833389978184e-01,4.665163097399979142e-01,5.515993339035379917e-01
4.436643112370706188e-01,4.879202468081815236e-01,5.357933858162157170e-01
5.593334714518843898e-01,5.147163285367570840e-01,4.558797071653944433e-01
5.284858413018511669e-01,5.262497273980971668e-01,5.391569258604228532e-01
5.070141209690917083e-01,4.620262421774410377e-01,5.780581467431490372e-01
4.607583920797627686e-01,4.887466580182900922e-01,5.083416340170154868e-01
5.361912146082908892e-01,4.825197382811298730e-01,4.426259432524385917e-01
5.069676436196216551e-01,5.332298381390883080e-01,5.151692079260472568e-01
5.829567954246399619e-01,4.387520923144394569e-01,4.948220123954794603e-01
4.954058675694987812e-01,5.264143789676355434e-01,4.677005979544177072e-01
4.817362421518871507e-01,5.058941024692247268e-01,4.592044742055586548e-01
5.247730819571840843e-01,4.716436085626015129e-01,4.567054723522088744e-01
5.195634682637827462e-01,5.144384545653779561e-01,5.248336604623682344e-01
5.570810494341721375e-01,5.248368274419437096e-01,5.063720052051147169e-01
4.559010322024408257e-01,5.432068989413604276e-01,4.515333641277319843e-01
4.807474654481158072e-01,5.042886108865165529e-01,4.877991467864524755e-01
4.676632258251021135e-01,4.902372377507637213e-01,5.193462342181680569e-01
5.093245425567487494e-01,5.624604377572063330e-01,5.141511782276031450e-01
4.772463946944615620e-01,4.908462842927455161e-01,5.025628236904843282e-01
4.915293657458882914e-01,5.634542459332735342e-01,4.497876375911788460e-01
5.686037094490627997e-01,4.211074813721120136e-01,5.237800063594693079e-01
4.832983372675019318e-01,5.273562870050335638e-01,4.411108137614621616e-01
5.206298124924843007e-01,5.384793900537306888e-01,5.196935122287296149e-01
5.506468989177190076e-01,5.191747448497032735e-01,4.026975159493135781e-01
4.541874542372337786e-01,5.333001179559193616e-01,5.384372174456723004e-01
5.511123550062944076e-01,4.965235770732505660e-01,5.007002518557940318e-01
5.114703871933963253e-01,4.217718978473970481e-01,5.010330490739965947e-01
5.012511320680004268e-01,5.382830249430979874e-01,5.681737531667911956e-01
5.562295500417363536e-01,5.209097350102295243e-01,5.941796300656992935e-01
4.846624084668572641e-01,5.534792678587073800e-01,5.015100712914426495e-01
4.691931845908465792e-01,3.884658834930195259e-01,4.199972669502277656e-01
4.833008699302128730e-01,5.473666876928015013e-01,4.930430990672209912e-01
5.053482318707394061e-01,5.008076347386858362e-01,5.204333874001673133e-01
5.692127342422879099e-01,4.404008552532361898e-01,4.878905359535514741e-01
5.664377559341647883e-01,4.680259042732274333e-01,4.806179351096062646e-01
5.472401949838284763e-01,5.044260889434344364e-01,5.110719705696399329e-01
5.145740895939556747e-01,5.633953360408640032e-01,4.531571247118688084e-01
5.155892856985350159e-01,4.755828543782930073e-01,5.379341605986136532e-01
4.610089803216145810e-01,4.861271065944543501e-01,4.936053340725246041e-01
4.612239241104315601e-01,5.022645392728702918e-01,5.686425996232340463e-01
5.066390666161769696e-01,5.170387407619709830e-01,5.336735710349302941e-01
5.404368543969236827e-01,5.134951674881508277e-01,5.098903482519981933e-01
4.611451807016575533e-01,5.753037258527018416e-01,5.793260097290721111e-01
4.613555413944314121e-01,4.740263237217870462e-01,4.996328801261381569e-01
4.474150942842739509e-01,4.902870547874631502e-01,5.420923079246926513e-01
4.913420218033719977e-01,4.569041878302624315e-01,5.207907091746722950e-01
5.204415075923517486e-01,5.322724949703965258e-01,4.304977937963274659e-01
4.748306944074440761e-01,5.326275255813474052e-01,4.905631736691035139e-01
5.245479283156972983e-01,4.985992937018532967e-01,4.504291856112808135e-01
5.512506656578395337e-01,5.178618177908388409e-01,5.265555783676647561e-01
5.070077183330183868e-01,4.915452332074728981e-01,5.252066505632299043e-01
4.635542203324089505e-01,5.286347281091808847e-01,4.742703539935093637e-01
5.859319732946255410e-01,4.693394680984000478e-01,4.452030677357644017e-01
5.852549448924843079e-01,5.189121672804812846e-01,4.956716147666203609e-01
4.798018768599160988e-01,4.805342404020735425e-01,3.920307447163492442e-01
4.879848762454621069e-01,4.827320121972842326e-01,5.562482846743078690e-01
4.467540963781834185e-01,5.533783052805829605e-01,5.488898317750405820e-01
4.807154736484345325e-01,4.227147133767513720e-01,4.716553809131924235e-01
5.106303409607225730e-01,4.983052741193317869e-01,4.467672418943211543e-01
5.195242758344187362e-01,4.706436189775289880e-01,5.229433231982096864e-01
5.038310536095030878e-01,5.700975787096791425e-01,5.323320618495887002e-01
4.702561608275711014e-01,5.078282127326473327e-01,4.767559961630933874e-01
5.279268089751306681e-01,5.617304143915836656e-01,5.462516647412006821e-01
4.393771974591119678e-01,4.390529096890941063e-01,5.510220264562397663e-01
5.558447352961967125e-01,5.355174381849566734e-01,5.521745304748805205e-01
5.203019426855152174e-01,5.119490216027309248e-01,4.301698200152779261e-01
5.124866975947071079e-01,5.274893454812914495e-01,5.205964590803315861e-01
5.096994024352411445e-01,4.337629902272268079e-01,4.741816664144443139e-01
5.183060849286599270e-01,4.958835274344332578e-01,6.016258781255190424e-01
5.725561018769336208e-01,4.456793216099258492e-01,5.440711551873952390e-01
5.365277730622693975e-01,4.792272795231694582e-01,4.865723038222080077e-01
5.170725297855267577e-01,5.109707373603087355e-01,5.456296284716123379e-01
5.614827710682001038e-01,5.167690171797989507e-01,5.265675509695112444e-01
5.556812485208538765e-01,4.967333840847995008e-01,4.164266111924186387e-01
5.209592652234537047e-01,4.913918408548701988e-01,5.643419478767631725e-01
5.292308311727172976e-01,5.013258480300309960e-01,4.660941156655313278e-01
5.456370151184337658e-01,6.209581536783119748e-01,4.599543091707973819e-01
4.506996112336962845e-01,5.250302133188704534e-01,5.196875924335844221e-01
5.359363239058885231e-01,5.363840703850621949e-01,5.409563337430016716e-01
4.893569854551125253e-01,4.755191758502560484e-01,5.001943605185412700e-01
4.830933828600946223e-01,4.156012274146470009e-01,4.486461898630629830e-01
5.601693462080206132e-01,4.838724538056722868e-01,4.824927300399578511e-01
4.211176650917361486e-01,5.254290511403311159e-01,4.740376652463229590e-01
5.490184557807519239e-01,5.239338172353681378e-01,5.341129058121131257e-01
4.783708334092510173e-01,3.708685130173257627e-01,4.564465387871046165e-01
6.073575603166690984e-01,4.546452552714980166e-01,5.178537366311108947e-01
5.338647991580393048e-01,4.883349640990552465e-01,5.057998448792198065e-01
5.067940537384122424e-01,5.236350423239555241e-01,5.436076271462719767e-01
4.830333224592657237e-01,4.718695508724158327e-01,4.654267058956346736e-01
5.200052619621046146e-01,5.936654742562946785e-01,5.039590454223609184e-01
4.999120065324559881e-01,5.516761123461061400e-01,4.619714758933468612e-01
5.169717554694207573e-01,4.466780224451065706e-01,4.993371975988388223e-01
4.313085288533902717e-01,4.605657702811938314e-01,4.813647060104032649e-01
4.847068659712426841e-01,4.929516217044179194e-01,5.689028525783889068e-01
4.867083211929026376e-01,4.613360586109502282e-01,5.553426443749482910e-01
4.854689029124271138e-01,5.179549596190016203e-01,5.286979121724765251e-01
5.062780924978556030e-01,4.361876206003713619e-01,5.099093120369856402e-01
4.734225887282111356e-01,4.816631252351563641e-01,4.681690320529924287e-01
4.712620268374877464e-01,4.942126804023567188e-01,5.222503713927896252e-01
5.305787065279198300e-01,5.042232930135387425e-01,4.643457337773581051e-01
5.128832895795161217e-01,5.381320056051336342e-01,4.491787716476107195e-01
4.437882898597870773e-01,4.488123878402331401e-01,5.622847153738391723e-01
5.527221226571108481e-01,4.836698154534579408e-01,4.801141925218525564e-01
4.478839567647592279e-01,4.530335966659933544e-01,5.018921020896361940e-01
5.787078136040432197e-01,5.051014500585980782e-01,5.393707618035897822e-01
5.201193112556347087e-01,5.407148269155139797e-01,5.430529204650796915e-01
5.745920563018348526e-01,4.957751030453734220e-01,4.870705018925234331e-01
5.027461202832654852e-01,5.276362201723093781e-01,5.027414007196051582e-01
5.424369235649748600e-01,4.657743880049989849e-01,4.857682340722604963e-01
5.332131273687957806e-01,5.168371072076748396e-01,5.511035141814556448e-01
5.119176344895246533e-01,5.281277648370765743e-01,4.572294227711283798e-01
5.984394079199607530e-01,4.867089655784053726e-01,5.355243233077644494e-01
4.491279537913932529e-01,5.936676785081586027e-01,4.597356741500954747e-01
4.504806855863965898e-01,4.999200315868807531e-01,5.354714295293896420e-01
4.794087687225562222e-01,5.323879841891863141e-01,4.538659721085612220e-01
5.263740389678321918e-01,5.256889342593690229e-01,4.727445539591268453e-01
5.181059118481623482e-01,5.499489198826554848e-01,4.837364387298199730e-01
5.923057308194087378e-01,4.639635307097305650e-01,5.137666049500561050e-01
5.486464997904679786e-01,4.277602788221114838e-01,5.485812586331672014e-01
4.615458877835060814e-01,5.170409276206141547e-01,5.652400158484678361e-01
4.959050002073386310e-01,4.553846375398565849e-01,5.237739700494641326e-01
4.434381135547896813e-01,4.912939645607026784e-01,4.767838752124932133e-01
5.836079250240723271e-01,4.542016299234638010e-01,4.590608753199976744e-01
4.632336101233432424e-01,5.233426727744167062e-01,4.775690030609923697e-01
5.202601396800757838e-01,5.178196584783653078e-01,4.953073848331480677e-01
5.164239566237049939e-01,5.039838185781360114e-01,5.046700245378594740e-01
5.051746769253513403e-01,5.044922476522589738e-01,5.916582772461703721e-01
5.257868577813518129e-01,5.047673298839993050e-01,5.232273437275122285e-01
5.500427768096413095e-01,5.300795622543041929e-01,5.624594689098157962e-01
5.083446585537687579e-01,4.838833306718805516e-01,5.180187798125633902e-01
4.594820618678637225e-01,4.858001415482183782e-01,6.253429224129541941e-01
5.380130152314549496e-01,5.280637165533730304e-01,5.344780367973621660e-01
4.543358428190408804e-01,4.945583368658690304e-01,5.088939854250179584e-01
4.705032823302704448e-01,5.111647591725260176e-01,5.642065968938417830e-01
5.559242663436558818e-01,4.780238003979268568e-01,5.363951320053874650e-01
5.159376060855246360e-01,4.629541975421925248e-01,5.266404647904652236e-01
6.035317631918050152e-01,4.857507755805581806e-01,5.152320065033572094e-01
5.165189543391149884e-01,5.047260683621520583e-01,4.469872445054872134e-01
5.219698697747537919e-01,4.913765702696777926e-01,5.015668941775156542e-01
4.973108069366053985e-01,4.450902304723241554e-01,4.922910983447856270e-01
4.590101444322939872e-01,5.264288048248028096e-01,4.428697457254204273e-01
4.671087617659273050e-01,4.906819854106194145e-01,4.895126112882715042e-01
4.612190065959290153e-01,4.278245318420188514e-01,4.798016438360023783e-01
4.522257221092689794e-01,5.356916108602235438e-01,5.122326624815708440e-01
5.186426032558967281e-01,4.866038339439594518e-01,4.575084949001947399e-01
4.486878516657055171e-01,5.181541607814501571e-01,5.715520698646545661e-01
5.217547554526088538e-01,5.175898762249159235e-01,5.428311956196704147e-01
5.376963970522279368e-01,4.501937551843823715e-01,5.249177125592607851e-01
5.047604007613739618e-01,4.615144903481849803e-01,5.265369111828374082e-01
5.400247073938114761e-01,5.013977239532086960e-01,5.682184877119693667e-01
3.930213451939151281e-01,4.895833323088903954e-01,4.771537537217614422e-01
5.119539582981167403e-01,5.292436800945459208e-01,4.276046800388567659e-01
4.367346670079641502e-01,5.838852566324839177e-01,4.525836432235504914e-01
4.832731993039306451e-01,5.156203519561233239e-01,4.838509810517249710e-01
5.333156753174738141e-01,5.041004232904368054e-01,5.361455657733601443e-01
3.622419630421919723e-01,5.245827236586541042e-01,4.612696392197217499e-01
4.598181259060002413e-01,4.989604221704203590e-01,4.820037829599505552e-01
6.213741846377210942e-01,5.195556176450787378e-01,5.032658952858083401e-01
4.784372897155979021e-01,4.946075475886574924e-01,5.507790500910243470e-01
4.853867997399310408e-01,4.819091956481426076e-01,4.223743741335038715e-01
4.922121976469379101e-01,5.346560959021788850e-01,4.762129716248733602e-01
4.981167981467134465e-01,5.483667713606558136e-01,5.070361712067666948e-01
5.067437026196641714e-01,5.135308897528904071e-01,5.105179988080618125e-01
5.344124657379131227e-01,4.921182884486863807e-01,5.413088885693077001e-01
4.705138515918521058e-01,4.060714905535993124e-01,3.840162354428323099e-01
4.785517526322747295e-01,5.344066851796387407e-01,5.123344695746072652e-01
4.928577808214616995e-01,4.869927471663657581e-01,4.841614926920982942e-01
4.806538058374795752e-01,4.912165730167161182e-01,4.442218633041154496e-01
4.720786735407637158e-01,5.440130306763985013e-01,4.998778813485509342e-01
5.194058463225847966e-01,4.906706156000256724e-01,5.099578970751007523e-01
4.528827159111379896e-01,5.051932399617813374e-01,4.844304480049738681e-01
5.420492581346304517e-01,4.746857763258153229e-01,4.511238327792139180e-01
4.995664134754906893e-01,5.115975274985814503e-01,5.105062998321987511e-01
5.095881537064693712e-01,4.694648779400666383e-01,5.025959738615796146e-01
5.614755054827750280e-01,5.249778478739746124e-01,5.336073795068623227e-01
5.008807644924088143e-01,5.448125689132204963e-01,5.142906249566909782e-01
5.066132042554909454e-01,4.680096367316418648e-01,4.908507576889152846e-01
4.882129608220583394e-01,4.981220928086372846e-01,5.286062720127259196e-01
5.336650262309790005e-01,4.909974733599207219e-01,5.394560510920262120e-01
5.811222685660523135e-01,5.631994599760935527e-01,5.077204441133249535e-01
5.252429202547337361e-01,5.574880945916060870e-01,5.508787598434368160e-01
4.537202985804985600e-01,4.753378819920355824e-01,5.415338998670762294e-01
4.227519241417226903e-01,4.864258585524492973e-01,5.080508037281206146e-01
5.091730862867263063e-01,4.851241525950292788e-01,5.003720406578578972e-01
5.672952927761641950e-01,5.868147432266270780e-01,5.716393701409573369e-01
5.608053218436771514e-01,5.427067345325277126e-01,4.686399537797303894e-01
4.438755372900929363e-01,4.474552888324853095e-01,4.496171489901625851e-01
5.066812924825665476e-01,4.641705910694174375e-01,4.790316309762460145e-01
4.674398563217267433e-01,4.967489392453924846e-01,4.784582193663358129e-01
5.340934927365815765e-01,5.166918539849116865e-01,4.859809781791361583e-01
4.885595362259242402e-01,5.708786328404791277e-01,4.974117117084417283e-01
5.648650787302029741e-01,4.451807186506754332e-01,5.402214054801796062e-01
5.543933997310471762e-01,5.003788783999871814e-01,4.930885431062420055e-01
5.097542602318925198e-01,4.652991351875238601e-01,4.500963943606823281e-01
5.562424035843368531e-01,5.053467108864954094e-01,5.302238613963415892e-01
5.127839114802764664e-01,4.660838734996495814e-01,4.314276749815452172e-01
4.508489323040227870e-01,5.285604378461804531e-01,5.257957238515273968e-01
4.772606984995287349e-01,5.097003383241345276e-01,5.159091386503118493e-01
5.277460479649780378e-01,5.118683937254248084e-01,4.875661902502545497e-01
5.303149714699917361e-01,4.596770209503504012e-01,4.117949830575129977e-01
6.095825373495192823e-01,4.863016144492169901e-01,5.619872959342498975e-01
4.766397319053424786e-01,4.920446549200626074e-01,4.605754823628608330e-01
4.508586142002569130e-01,4.939627517021220049e-01,5.385346093605292150e-01
4.731994067588543573e-01,5.793875541670524543e-01,5.897943408159809220e-01
5.423153828850318936e-01,5.363982950753255485e-01,4.209124836849961193e-01
4.688424681588776455e-01,4.511946764391696618e-01,5.339120137710978709e-01
5.148564057944857719e-01,4.899550466175726648e-01,4.835730941261142668e-01
5.376453925137142376e-01,4.991360175862943338e-01,4.357805682566214811e-01
4.276148275932484810e-01,4.713573363566647134e-01,5.583458680103060567e-01
5.526479804410879826e-01,5.533472434993847999e-01,5.228275316687445162e-01
5.997513434874415239e-01,4.593569406047776638e-01,5.043113936849942247e-01
5.426171389514593546e-01,5.261536161178028692e-01,4.819859715110794696e-01
4.410271777398928061e-01,5.275138610697310826e-01,5.090723061119699633e-01
4.578999057564063224e-01,5.259431632210515017e-01,4.964054821305250997e-01
5.094328121923265007e-01,4.938247848637870585e-01,5.234645961943986681e-01
5.474931482289824292e-01,5.484205870851988074e-01,4.786296516064191819e-01
5.356899463049590304e-01,4.470263200699085560e-01,4.437131829619357370e-01
4.435685956839197086e-01,4.542941361126852651e-01,4.861401629548665615e-01
4.618676062372903401e-01,4.406611502659805168e-01,5.308696280023614822e-01
5.041763025878286397e-01,5.987517493786627121e-01,4.912952941395026807e-01
5.153381439303748035e-01,5.156585839327670895e-01,4.615779126175854619e-01
4.274539890708209389e-01,5.205967327406316736e-01,5.308324093343557148e-01
4.861327811816230082e-01,5.391173014204218017e-01,4.579320470677161192e-01
4.839472719394105615e-01,5.599681826432139076e-01,4.477625671666734530e-01
4.974469664679325165e-01,4.994798544577824240e-01,4.997507667282888311e-01
4.933132224493496643e-01,5.209051451430241064e-01,5.978509264824655167e-01
4.852886402902113483e-01,5.529980011194999268e-01,5.449690362625928541e-01
5.015544731802329403e-01,5.352831237973749712e-01,5.432240230685175808e-01
5.767330587076026083e-01,5.013538740501291002e-01,5.387719545461295834e-01
5.416395376333256184e-01,4.410282977352578127e-01,5.017810570907610401e-01
4.281213141399994870e-01,4.704854946549043015e-01,4.555938191489904421e-01
5.176276627858487078e-01,4.780029036095035933e-01,5.045938101386158170e-01
4.908201937686244021e-01,5.256200467220627504e-01,5.538954584171414952e-01
4.698761871930319800e-01,4.903429876787861463e-01,4.778197053182038911e-01
4.746724001254467029e-01,4.983799594221958174e-01,4.884855252193406328e-01
4.385805657610735153e-01,4.705034539716669295e-01,4.760025871958117327e-01
5.379278695048343995e-01,5.595229122884671780e-01,4.744455369355274343e-01
4.522710365748014438e-01,4.980628898806374605e-01,4.796587284759225023e-01
5.121787678292485380e-01,4.959187576082345617e-01,5.196842066068388943e-01
5.067375484352960591e-01,5.161212363829912331e-01,4.193587179455888214e-01
4.765939717444948598e-01,5.194776351106166201e-01,4.942676806407060863e-01
4.845048726229246316e-01,4.845633915004797232e-01,4.675695885801635088e-01
5.260846381878753197e-01,6.037455561286987349e-01,5.392497448663375881e-01
5.297512492117266714e-01,4.670845808815287103e-01,4.593914030753571964e-01
4.173973065487764922e-01,5.636958874546704745e-01,4.624386093335379200e-01
4.695361311621722433e-01,5.007315340068376752e-01,4.385349626734313389e-01
5.081924150255843209e-01,5.320703570258430437e-01,4.716202818154034970e-01
4.821629344406195838e-01,5.148722478448681805e-01,4.759598755039095019e-01
5.003878317676352383e-01,4.894859427087263071e-01,4.922752492667503144e-01
5.826331718109517555e-01,5.954508509795617410e-01,5.757947683622675061e-01
4.967236794532456923e-01,4.688933606814372768e-01,4.452353431245662518e-01
4.581833652090488984e-01,5.742962639968922645e-01,5.324353579677956194e-01
5.060815408391524661e-01,4.754748187474687748e-01,5.336471607746886558e-01
5.361395047118886481e-01,5.067386143007496235e-01,4.384932885463824204e-01
4.672185263697911095e-01,4.557165484867010119e-01,4.986105592462798386e-01
4.961372429529081196e-01,4.791972791094756823e-01,5.088740800744223636e-01
4.857038863317451050e-01,4.764095950575847338e-01,4.512189151889960947e-01
5.749591625132726147e-01,5.467502378944765207e-01,4.575672843044970017e-01
4.271162277619343084e-01,4.563422086051666104e-01,4.476739942083834412e-01
4.525807972468027796e-01,4.104150955622916097e-01,5.030079347558340519e-01
5.434403015689767136e-01,4.577847773575944301e-01,5.451803103066944489e-01
4.631068447512565189e-01,4.612808098553513036e-01,5.287725265526048712e-01
5.112729555297114148e-01,5.338202993421969911e-01,5.653542306607444168e-01
5.205612171210231010e-01,4.849798501206613044e-01,5.466629968137731721e-01
5.622044433432917820e-01,5.023434169661815663e-01,5.042154975779281623e-01
4.701381943745148173e-01,5.078196258234191074e-01,4.964982025566332391e-01
5.498875376394364300e-01,5.222087979429205218e-01,5.343830705833143568e-01
5.198450175485601621e-01,4.076108925106839975e-01,4.696645163225007802e-01
4.954672781940737125e-01,4.725605334725408446e-01,5.651656192121460309e-01
5.126454794951098570e-01,4.914859763190029818e-01,4.572772928163384432e-01
4.294737572117459101e-01,4.795839827877583783e-01,4.803858968609270863e-01
4.978915676552788661e-01,5.220180439828299157e-01,5.475654209013361973e-01
4.926673561499904652e-01,4.852015301621037668e-01,3.976269149933474578e-01
4.896311254457639817e-01,4.649232724747244805e-01,5.563994552529226700e-01
4.645460278033373691e-01,4.563105393509832575e-01,5.022187051493008925e-01
4.346410206256760556e-01,5.203844410486646588e-01,5.035194359729270319e-01
6.019148577164669112e-01,5.656969056373121196e-01,6.251771270644033152e-01
4.993327058042165700e-01,5.305420122276285344e-01,4.744757080318340314e-01
4.909808674574258069e-01,4.684046709683678533e-01,4.638294424947370098e-01
4.230630690679616501e-01,5.357267240403327246e-01,4.939524543109608534e-01
5.304955758432952084e-01,5.048348046301655012e-01,5.326260059941306801e-01
4.851908140294762251e-01,4.669291434675590935e-01,4.665453043774914210e-01
4.176763030741484917e-01,4.485270404832664148e-01,5.153344482483205313e-01
5.260307942857574970e-01,4.957147454648626050e-01,5.539858241881979728e-01
5.943224209901755151e-01,4.793554398256588134e-01,4.856910672321476663e-01
4.889407430322874615e-01,5.311946753709205771e-01,4.251277960277068946e-01
4.789745312924402754e-01,4.925721206953009301e-01,4.783424879944355168e-01
5.995885405329075546e-01,5.880884238091892424e-01,5.717891199012434811e-01
5.473120550938074258e-01,4.677486205876820180e-01,4.778240100131669332e-01
5.148164697137856960e-01,4.890262122212036267e-01,5.166908492493650362e-01
5.228663278346693533e-01,4.416004871679605759e-01,5.167724649718676844e-01
5.322638131110543069e-01,5.024969036311747184e-01,5.248277298211135866e-01
4.408335977150733553e-01,4.901841346870179916e-01,5.699644394236504930e-01
5.324713177806302822e-01,5.261349138585811325e-01,4.827253177247119442e-01
5.165534652093428658e-01,4.909342338258662064e-01,4.898196610745578217e-01
4.677137989442999300e-01,5.428611516738792719e-01,4.968479729961552405e-01
5.541579657668624925e-01,4.982825163422660020e-01,5.022544286183667772e-01
5.391890235649476892e-01,5.209299642805916841e-01,4.639776349511458564e-01
5.242504104831715583e-01,5.372070305349264663e-01,4.936065236314078897e-01
4.662020292328257209e-01,4.636083365333009132e-01,3.966102607835119143e-01
4.733610625517585269e-01,5.063930797586271293e-01,5.199057515056411116e-01
5.022719456573965235e-01,5.250097082110486424e-01,5.503431482990087664e-01
5.134028411552363780e-01,4.846609727359257325e-01,4.786592176085470163e-01
5.556892172342141611e-01,5.270777609183309176e-01,5.162422488977300716e-01
5.073446529510695635e-01,4.510661467105152034e-01,4.389336078393007434e-01
4.717026730534616963e-01,4.514907035393584955e-01,4.976493381604020216e-01
5.801580231627785356e-01,4.895459177176411658e-01,4.455977636892342053e-01
4.622568799527115302e-01,5.303200864904352718e-01,4.835524755558556764e-01
4.212111658333979602e-01,5.268653212942133734e-01,5.285385252043106608e-01
5.118075925005580729e-01,5.442339687741950538e-01,4.436262588501854731e-01
4.866593761220683323e-01,4.683215613759708629e-01,4.901711776768063467e-01
5.364464543803456609e-01,5.075821573040222301e-01,4.793817925846093897e-01
5.228395651871475813e-01,5.172860980172795387e-01,5.605599460440823245e-01
5.309814278008910815e-01,4.011669396586639569e-01,5.220541702208808532e-01
4.528326525832483962e-01,4.923753586976983287e-01,4.596457709135817193e-01
5.090140897887226457e-01,5.327297290722005085e-01,4.730064001025174880e-01
5.322167375948498869e-01,5.489416733081154964e-01,5.134621674406468772e-01
4.651507502005922112e-01,4.716935761748651257e-01,4.035854232941936126e-01
4.360235058291630494e-01,5.305676115337401022e-01,5.064074542353150798e-01
5.157583666124517796e-01,5.188304428729615392e-01,4.721637341561731871e-01
5.372793760685621312e-01,5.390167213579230010e-01,5.003910721810703732e-01
5.238501914606010779e-01,5.635241359085129131e-01,5.212461467634202927e-01
4.716044358660491098e-01,4.932363153974632097e-01,5.354963062840238930e-01
5.531323216011436728e-01,5.301119210753101330e-01,4.680309679382579913e-01
5.040313969668854810e-01,4.707983610383673079e-01,5.381148494007303995e-01
4.716916522277534440e-01,4.892434083547767543e-01,4.666346675981140057e-01
5.266774544541636960e-01,4.546606178106184504e-01,4.962614998495953333e-01
5.462534673474541691e-01,4.487306737759571007e-01,5.070729300102179149e-01
4.972538700118501742e-01,4.878723804035571265e-01,4.893159631480069605e-01
4.838323998720364116e-01,5.182682983484697692e-01,5.000584307372054615e-01
4.887504588013961704e-01,4.703359282096730154e-01,6.281711753993897140e-01
5.452527713661592390e-01,5.000138456120426511e-01,4.767978701198217206e-01
4.787813910394582151e-01,4.993499872330161571e-01,4.683111575181055919e-01
5.198397114391317686e-01,4.753577433231913063e-01,4.962607512996604076e-01
5.021470008919806105e-01,4.777077129422179769e-01,5.317729138707111280e-01
3.862850746042206795e-01,5.023251395796032304e-01,5.438839487990199117e-01
4.401022454901400982e-01,4.618334223348532497e-01,4.852418970797974240e-01
4.730361356006996254e-01,5.328724391348724776e-01,4.955101281807473002e-01
4.366278683517241799e-01,4.367250572081676774e-01,4.917861250385530680e-01
5.252794636153707009e-01,4.979642554888050188e-01,4.957910575103244288e-01
4.669137437092704124e-01,4.919975305215827932e-01,5.441823083347273604e-01
4.899740951521060484e-01,5.550877543712366968e-01,5.072086032170111114e-01
4.675023840994725899e-01,5.045581403036163426e-01,4.939095782945125412e-01
5.319942373888608689e-01,5.244578582270126299e-01,5.461876814717155915e-01
5.376069116602348874e-01,4.834586172436752816e-01,4.890918057090800075e-01
5.745047687855633356e-01,4.830755157806342903e-01,4.948807745036238326e-01
5.366612019644565468e-01,5.216178126218449229e-01,5.747207994810227261e-01
5.374292257952313356e-01,4.946503314461306866e-01,4.925154611831602525e-01
5.180833040102347242e-01,4.756548542452863071e-01,4.515389456081160824e-01
4.592905016504418292e-01,4.941890171313915725e-01,4.858042355721995942e-01
4.916581934380897523e-01,4.524343337087065042e-01,4.439592549326655813e-01
4.793796747050504958e-01,4.791622297336585734e-01,4.747145879533436474e-01
4.522796249891081755e-01,5.107300049448539880e-01,5.383186387011761331e-01
4.630197558545491865e-01,4.374840876292389602e-01,5.364285186249027060e-01
4.988382570287155926e-01,5.406494831118286992e-01,4.360328316400439164e-01
4.885254453762484239e-01,5.487048574986632676e-01,5.405614045046049920e-01
4.732657018211742783e-01,4.802952809991956062e-01,5.187622411425416580e-01
4.976537612053090198e-01,4.328302070946603020e-01,6.465777475436204069e-01
5.165689330123487411e-01,5.006386110606469986e-01,4.658906859808168988e-01
5.571774358543528649e-01,4.586332022948519382e-01,4.921713321872791536e-01
5.399274093068401337e-01,4.666202872833170034e-01,4.531768640952009153e-01
4.924129483169558674e-01,5.078292588177911737e-01,5.237719808190567372e-01
5.553252615505178680e-01,5.697593048081222022e-01,4.659812970792366893e-01
5.156201845320196320e-01,4.627789125921488722e-01,4.643470042735478587e-01
4.899469034650457133e-01,5.499740638409211790e-01,4.573516622329185655e-01
4.583072584297877006e-01,3.948790817657456542e-01,4.762206243197507627e-01
5.079403504881111475e-01,4.636208022746817203e-01,5.095492551017792859e-01
4.847496132422584592e-01,4.862938735070823082e-01,5.031156810063837082e-01
5.266502873060899814e-01,5.117942252685601101e-01,4.750026949244606778e-01
4.167137128017062708e-01,5.382934044094324078e-01,4.988335254199187108e-01
4.614016124295157173e-01,4.961013427665407760e-01,4.666151814268741371e-01
5.257549836732251514e-01,5.043269979598317132e-01,4.747712214646717666e-01
4.261026593856683253e-01,5.905357152114185659e-01,4.776436868229311794e-01
5.857015238180339756e-01,3.557578896413350344e-01,4.331653205373410254e-01
4.430770505164032813e-01,4.734951372872893138e-01,5.250133749918410864e-01
5.317586299737570021e-01,5.300500939881547247e-01,5.401134343257613102e-01
5.287845729522845373e-01,4.751308381628481237e-01,5.145289381714622801e-01
5.734285781784856928e-01,5.475003704128587056e-01,4.995308374468728774e-01
5.107670737180904919e-01,5.234989210097737988e-01,5.793065980772008627e-01
5.493111901035572231e-01,5.423275404414231726e-01,4.465822978444024538e-01
4.766473411064319765e-01,3.809699196545033306e-01,4.762990128894397102e-01
4.709654481455319841e-01,4.799396701964559475e-01,4.957774329974168337e-01
5.393333551336448872e-01,4.896561262358133937e-01,4.944598725225220481e-01
5.741923521041570888e-01,4.501903987296718146e-01,5.306324205380634762e-01
5.000323638891644995e-01,5.608761411412509501e-01,5.061995294256763644e-01
4.920160602141477879e-01,5.108536887965725581e-01,5.022599620756963423e-01
5.350384268119204867e-01,5.047785170804384158e-01,4.988365472711476234e-01
4.509526942443952136e-01,5.244918188128375736e-01,5.004207234090193301e-01
4.794355105039375675e-01,5.433517749688703269e-01,4.988944123857098623e-01
5.174883446546707511e-01,4.780706614482438943e-01,4.963545493143015075e-01
4.539487023732202142e-01,5.063849891089656774e-01,5.008395081627720069e-01
4.995047390770421258e-01,5.539660387161754462e-01,5.595301851647116465e-01
5.167562916060581824e-01,4.949895504819012415e-01,4.301825939765007711e-01
4.883736371632246276e-01,5.239509208489124825e-01,4.033729484067942739e-01
4.452948931018315681e-01,4.743782004320676315e-01,4.616251348175831604e-01
5.212953858256881290e-01,5.103456405139322749e-01,5.396849146321955892e-01
4.418455241240119014e-01,5.210445686806350896e-01,5.384668410258659499e-01
4.506388196878421959e-01,4.598946296218102137e-01,4.704702498918312270e-01
5.547449925533188830e-01,4.428860030378647394e-01,4.834970709393523469e-01
5.319192187999530752e-01,4.747035020213007939e-01,4.432050213644763703e-01
4.727083423841558774e-01,4.839992459902711097e-01,5.561821382972245154e-01
5.158047983302082029e-01,3.946472273518984442e-01,4.264794160675801638e-01
5.033193637752516603e-01,5.536046394532853077e-01,4.917911498714747087e-01
4.862942880691547010e-01,5.208035226669271989e-01,5.397909772405696804e-01
4.669381956056596339e-01,4.935448758294188609e-01,4.783142835152288108e-01
4.411710028383389326e-01,4.278593212052293482e-01,4.846600374066971084e-01
5.178968560623069539e-01,5.107830989763560980e-01,4.753903378100552413e-01
5.054500546044392584e-01,4.853063086786317260e-01,5.001359615560045935e-01
5.092207878774289709e-01,5.075894735122837842e-01,5.122062276540267911e-01
5.371827771266323159e-01,4.938964809381697907e-01,4.491203976592721414e-01
5.437286126206328785e-01,5.507525676353395294e-01,4.616754321543067863e-01
5.086390910250963016e-01,5.126229211000539188e-01,4.455561473883558055e-01
4.925263606272710648e-01,5.508811201261900603e-01,5.934719647552969546e-01
5.385343163397455779e-01,5.563160713069945640e-01,5.812627590826906498e-01
5.400100854003920814e-01,5.116952540711635633e-01,4.660564302612393295e-01
5.503886223382143950e-01,4.299328480941734809e-01,5.485727082854636727e-01
5.241583587958474899e-01,5.167669258005880284e-01,4.760087059409939259e-01
5.057544242920640754e-01,5.620654328148447787e-01,5.435775555291284533e-01
5.615566750034506338e-01,4.688949190975545966e-01,4.492835732646293656e-01
6.012634890395055498e-01,5.577297374206556801e-01,4.417702207173490048e-01
5.065627370848344579e-01,4.949287288774983362e-01,4.970049821330471129e-01
4.676043242977996894e-01,5.461065794852374422e-01,4.788074005502913622e-01
5.418607374287651712e-01,5.124763465999576662e-01,5.440126176622326337e-01
5.437919145928782338e-01,5.422630162850313740e-01,5.730640265305834147e-01
5.018401258577501745e-01,5.465770613799501021e-01,4.881092184342279428e-01
5.605590077654767356e-01,5.048685748016396024e-01,5.289862261447491054e-01
4.770961858244618936e-01,4.705359304681622779e-01,4.714593694162617643e-01
4.764849441710951594e-01,5.170754923141175352e-01,5.491957356008110303e-01
5.300621890453758311e-01,4.352638683153861043e-01,5.273881852777334567e-01
5.469589546704316518e-01,4.810861364494948833e-01,5.029363899285201889e-01
4.781191276878996033e-01,4.561924764126316645e-01,4.774438517291377804e-01
4.557558223813785725e-01,4.673446915616458197e-01,4.527296234524394447e-01
5.150903739775923862e-01,4.974974284358871790e-01,4.967085354340609049e-01
4.378023592773407913e-01,4.539082602236783059e-01,4.848162673800087141e-01
5.323997184679464256e-01,4.869122858560863132e-01,4.897237602339593598e-01
4.968128133208209452e-01,5.008347271463894357e-01,4.411216468416756520e-01
4.178372638821955531e-01,4.644692758915600073e-01,5.307669458225833248e-01
4.829172977984340087e-01,5.580111606418101111e-01,5.309402614632497963e-01
4.674278864667289479e-01,4.978223071984694270e-01,3.753493460656798231e-01
5.671176158584561033e-01,5.161959340344403069e-01,4.668980125285566163e-01
5.647612068904576121e-01,4.699274106051135602e-01,4.506606426568878776e-01
4.642280883557159399e-01,4.683833610218621768e-01,4.901897852800532474e-01
5.011910853357188778e-01,4.434219729148823341e-01,5.583989946514873459e-01
5.460580141729071135e-01,5.607737458555394072e-01,5.119163554667018889e-01
4.243625129941288598e-01,4.688086355994822152e-01,4.783881726720475291e-01
5.094257848455450155e-01,5.236952349009691421e-01,5.657639928860511702e-01
5.158107500779149923e-01,4.370518136906456075e-01,4.676037895351983220e-01
5.218122567099882092e-01,5.498632476094509336e-01,5.288725275244159363e-01
5.037647247623940894e-01,5.052833166016857946e-01,4.335878368169054919e-01
4.573902148031244730e-01,4.844041182606168561e-01,5.508252844432569573e-01
4.515403229557816700e-01,4.412432303764121655e-01,4.863114174836401515e-01
4.955379547292968478e-01,5.502955534889587552e-01,5.338452995132546564e-01
4.720901099030464509e-01,4.937535028036770801e-01,5.047671903829173967e-01
4.910015756204612614e-01,4.143527222442647262e-01,5.091166537093320121e-01
5.591801305411743250e-01,5.318147908462556028e-01,4.313588093578770710e-01
5.200118853614298375e-01,5.278236677594305704e-01,4.978211665499431282e-01
5.638373149005067031e-01,4.824679562128763033e-01,5.459490885524145298e-01
5.193378657651088748e-01,4.965232173467249988e-01,4.916726813170262389e-01
4.564798143391514684e-01,5.341850586718202010e-01,4.866456203011927939e-01
4.902826016705907342e-01,5.415975965519659319e-01,5.240865367256055674e-01
4.892596646785326575e-01,5.282708690127058127e-01,5.254554687111836486e-01
4.892418800351743813e-01,5.098668706096108894e-01,4.714508875653671272e-01
6.137453935963174123e-01,5.068244664507385311e-01,4.960115119516508853e-01
5.193274694768782451e-01,4.454099677030164406e-01,3.877283514173415213e-01
5.533304941138211808e-01,5.872601217696856724e-01,4.675893735592080436e-01
4.370832504711443245e-01,5.162897603950603598e-01,4.730743188289649459e-01
4.912436783453209554e-01,4.661978717470208755e-01,5.038533871217751869e-01
5.252627115180449335e-01,5.290581706018644415e-01,6.167563368750024200e-01
4.682855368691568598e-01,5.176567155677702647e-01,4.930260631274566152e-01
4.861678275728851806e-01,5.329290683908142201e-01,4.942936274291637733e-01
5.619225583590458095e-01,5.753054458407007576e-01,4.809965765331201681e-01
5.603177468962589058e-01,5.056270416275951973e-01,5.026515898985461916e-01
4.655448536692883832e-01,5.681815804886469756e-01,4.657330987824115365e-01
4.841743189282847748e-01,4.987338344394236511e-01,5.201580125149847245e-01
4.542253415969355612e-01,4.980293540728757407e-01,5.670202572889946335e-01
5.375528570970192765e-01,5.173990052804033901e-01,5.169334060830425015e-01
5.073654472111110980e-01,4.953448746378469325e-01,4.542924053154226427e-01
5.225819859272431422e-01,4.641423911090313270e-01,4.626624931146751107e-01
5.012781941193279467e-01,4.961267355914105726e-01,3.838035493581961055e-01
5.048667070834348403e-01,4.708301198768117812e-01,4.878134862312503151e-01
4.518953951374571343e-01,4.753504155397242914e-01,4.323909633713756695e-01
4.149570076613571801e-01,4.610102336331901030e-01,5.498000918293226569e-01
4.291929545867231299e-01,5.142060422828618194e-01,5.126829619140751415e-01
4.732289095590557215e-01,4.365167882674849120e-01,4.969105049313100042e-01
5.627219091737386547e-01,5.357542186703935227e-01,5.864040707512333528e-01
5.287778300490365568e-01,5.037983866214812423e-01,4.794359101644942167e-01
5.316935307620211937e-01,5.296641062712283965e-01,5.146075109381301749e-01
4.797547905269431423e-01,5.102943425303165803e-01,4.895302882440474845e-01
5.441629269818835102e-01,5.010376104102505224e-01,5.307766707340578760e-01
5.126883526504176780e-01,4.983932661282935994e-01,5.727316366764761968e-01
5.292288207902582364e-01,6.034349601567932098e-01,4.909424005590821150e-01
4.876795719672977203e-01,5.654470700460733079e-01,5.204344348395347764e-01
4.427534519244489264e-01,4.214348977911203664e-01,4.580855218109457505e-01
5.002531127821144841e-01,5.097931713818202315e-01,5.214151159293448634e-01
5.311440642481901619e-01,4.726110876546896766e-01,4.577118668012868374e-01
5.015091653464498478e-01,5.891868650123217588e-01,5.584953082992527573e-01
4.436318226610990734e-01,5.615946817391449519e-01,5.356353678012043540e-01
4.268410902581649125e-01,5.027880039681568158e-01,4.665092035522337421e-01
5.412113996655534276e-01,5.054219521875061849e-01,4.734710961697895515e-01
4.890337339713445308e-01,4.608103874641464870e-01,5.516174959699942093e-01
4.775276479776836558e-01,5.142888461872332506e-01,5.945104318280525213e-01
4.683738100910382895e-01,5.573928777052189476e-01,5.285603577091050331e-01
5.295235835495341048e-01,5.371795736337339200e-01,5.034462714649170501e-01
6.312426006798693701e-01,4.961736899724183414e-01,5.085020319353884544e-01
4.342484024924007091e-01,3.635744166759042884e-01,5.062826941681027870e-01
5.247423418449663757e-01,4.850510053137613853e-01,5.064400551480856549e-01
5.109761280292549612e-01,4.770609407038828853e-01,5.629340994406752952e-01
4.711939180573457286e-01,5.668736095241649897e-01,5.728398198449077272e-01
5.498280323198694308e-01,4.963903232216985706e-01,4.798562645392779880e-01
5.355169292007638804e-01,5.014540752275694624e-01,5.228628600132066984e-01
5.498254622434847194e-01,5.506074920687236141e-01,4.970340637810762296e-01
4.390207117393377101e-01,5.632821151917444258e-01,4.927934777622693385e-01
4.257229704551528382e-01,5.418528043117322168e-01,4.390248481308588469e-01
4.604118360069833771e-01,4.774136261693441297e-01,5.314586054870980014e-01
5.118875184783936438e-01,4.454641118505159869e-01,4.839094280201188258e-01
5.456541252566934341e-01,4.770896889649035577e-01,5.740445636518414219e-01
4.763340159045337252e-01,4.887703022336593039e-01,4.809009941530311694e-01
5.136452555009524135e-01,4.646283210621034443e-01,4.401462170375096683e-01
4.887263661749534083e-01,4.720623380753679044e-01,5.096634821742086485e-01
4.854696607064897806e-01,5.817524299599333704e-01,4.981435379904269323e-01
5.198794457879062358e-01,5.366500725576472952e-01,4.918954137625096146e-01
5.622136023729902288e-01,5.166145885159921791e-01,4.489263400731456355e-01
5.359760136953658494e-01,4.696199442400875168e-01,5.135981948971483080e-01
4.916779983313170344e-01,4.957318332508328651e-01,5.143490242641010068e-01
4.549979424660310356e-01,4.481771471365292858e-01,4.983750194860287475e-01
4.464935263198046567e-01,5.246628513842396258e-01,5.297861089863192818e-01
5.182635007105129699e-01,5.137711135556759512e-01,4.242674662239960259e-01
4.986839002805114052e-01,4.550457767886694760e-01,5.161442442981453160e-01
5.169546739144451619e-01,5.163383876277589657e-01,5.919114766447850506e-01
5.872725618217989885e-01,4.679501189223331248e-01,4.442115744115227582e-01
5.424152566631716965e-01,5.642854217948600759e-01,4.189702771139904858e-01
5.666628604007027947e-01,4.826417191418393426e-01,4.948182240878509219e-01
5.158381428307595717e-01,4.843152032156845532e-01,5.436134500112433932e-01
5.104413160480686384e-01,4.502156613453021095e-01,5.597542041358072318e-01
5.460615625466144207e-01,4.847869094508965304e-01,5.406675914997294274e-01
5.350053962263867646e-01,4.454952292238338329e-01,4.375834251348995063e-01
5.092159929774244809e-01,5.099368452143414610e-01,5.786152725783710871e-01
4.794391692967031049e-01,4.719544100615457038e-01,4.206960820515742716e-01
4.695899159030471059e-01,5.804084954493902160e-01,5.222041731478600513e-01
5.393686492209212036e-01,4.552617145513368491e-01,5.056806581476612772e-01
4.731767557791637380e-01,4.918780250745228844e-01,5.859756842356141915e-01
5.812372605925066882e-01,4.946445650342952138e-01,5.491171496498344906e-01
5.784876157106504380e-01,4.734786027296254973e-01,5.103049644966018983e-01
5.185412176708071863e-01,4.439415112578622979e-01,5.169827722541406878e-01
4.760691470274972525e-01,5.558771091320883206e-01,5.026885360507015177e-01
5.465264301988669304e-01,4.789479316974812884e-01,5.110857233077171768e-01
5.523061190013650590e-01,4.675145857162653629e-01,4.543841540418763203e-01
5.032233670915048362e-01,4.266803108249694332e-01,4.385920329660367711e-01
4.639252366669441852e-01,3.975850800810777907e-01,4.327018956709319242e-01
5.234628225688456871e-01,5.431967658090535167e-01,4.489694023927020550e-01
4.893390843944590562e-01,4.873579919545719119e-01,4.370117605129618110e-01
4.688128364308166152e-01,4.621959208721612700e-01,4.233265227468027136e-01
4.722308121322995045e-01,5.948619066923030996e-01,4.562322887727817688e-01
5.304790937749173096e-01,4.653916845129548174e-01,4.556441313251982095e-01
5.798401078590971203e-01,4.566469742366504048e-01,4.451305106971368830e-01
5.312815228851046623e-01,4.886888965130361528e-01,5.509234756094193441e-01
5.221862248369092407e-01,5.504187907985694794e-01,5.295786747512428727e-01
4.557244953620929184e-01,4.484739249110809012e-01,4.922777301911280823e-01
4.852935657673962400e-01,5.357345714974471873e-01,5.290557764486747416e-01
4.176049865779731807e-01,5.015567111560034208e-01,4.910078452865576093e-01
4.878448186988137425e-01,5.169063217633008689e-01,4.870033895734137142e-01
5.052838389263415442e-01,6.061062403735825166e-01,5.354294788229916335e-01
4.625328362338725352e-01,4.817401736152737701e-01,4.742344320985358852e-01
4.474273217671436154e-01,4.136595690128877512e-01,4.740587611622561481e-01
4.460251238695762677e-01,5.439657345159145674e-01,4.928840026156336984e-01
4.936427059936163708e-01,5.675030526352119464e-01,5.253410397385526176e-01
4.419782951933172721e-01,5.459263391532550580e-01,5.356442802113310364e-01
4.847648255569003695e-01,5.210807054666130034e-01,4.775619917836295136e-01
4.654816825447298245e-01,4.785583003611239006e-01,5.709014557788024691e-01
5.108972894030084921e-01,5.004471030150667854e-01,4.891955268032963100e-01
5.129543581267241859e-01,5.231795438635838957e-01,4.893784967793068930e-01
4.639795326613467830e-01,4.503631610571162125e-01,5.433920457179621799e-01
4.715495568426968376e-01,5.423199266258952322e-01,4.795675541561548738e-01
4.782393230928779770e-01,5.283383497661279238e-01,4.750134544245730450e-01
5.668196049580811469e-01,4.407836039818575635e-01,4.795641267039573163e-01
4.467862753295746558e-01,4.339377963414947637e-01,5.063451069812321403e-01
3.971912497537265496e-01,4.978968580400840449e-01,5.188057600536818414e-01
5.093534565300780192e-01,5.112446242640372729e-01,5.402323528931433083e-01
4.964891000525957221e-01,5.521062724031308155e-01,5.323242917724290146e-01
5.132290533748627981e-01,4.902912783425293353e-01,4.617147013309171877e-01
5.131800651966464955e-01,4.697882294971583717e-01,5.447154281007499099e-01
5.657037470411661051e-01,5.302531570064784594e-01,5.286539978717481603e-01
5.863182080716780042e-01,4.847585765362297794e-01,5.309190350560279992e-01
5.272851772022992822e-01,5.324985844580827354e-01,5.426901602531432056e-01
4.506867432133054296e-01,4.807806666826101027e-01,4.932446458484814888e-01
5.093361269099421218e-01,5.001153432388436570e-01,5.182591399901147478e-01
4.547961618540111162e-01,4.796081650727835877e-01,4.750299525204618734e-01
5.275804146114994042e-01,4.679994492648837934e-01,4.846874338610595023e-01
5.340886633250579996e-01,4.468874585274045241e-01,4.888565769372054670e-01
5.109081770327095207e-01,5.028267436114023381e-01,4.880145404936605535e-01
4.710144336523646169e-01,4.457272236768253237e-01,5.002192577852738742e-01
5.012899838816671227e-01,5.439154411687064927e-01,5.808813107451605839e-01
4.850019969042395074e-01,4.050206761275857992e-01,5.063378189822902442e-01
4.438766825261096782e-01,5.239254733127887143e-01,4.537357579886853731e-01
5.870518467565204457e-01,4.746570348347587398e-01,5.085138886225319954e-01
5.077009783156838374e-01,4.986564282273526216e-01,4.651517676593784345e-01
5.479699001957304416e-01,5.788434479915347541e-01,4.757074214327904893e-01
5.058058767919116905e-01,5.253475698883813827e-01,4.457815032308328207e-01
4.958580255705788420e-01,4.822591197760487391e-01,5.254878362446896434e-01
5.785628334065113787e-01,5.822728539576823570e-01,4.849257885333701501e-01
4.987041589808052788e-01,4.789320068904311389e-01,4.432196114996509451e-01
4.332663028779549230e-01,4.670660791027386183e-01,4.494607012312930028e-01
4.568629467513412590e-01,5.570822051290671428e-01,5.218806928533215039e-01
4.518831433126347941e-01,5.027814407503446992e-01,5.295303311102285138e-01
5.448637378183971425e-01,5.012587481972879955e-01,5.279951313891924070e-01
4.694721293478065216e-01,4.746781980595731754e-01,5.183022347707214594e-01
4.746047482856646238e-01,4.789285546005057070e-01,4.353417011421381044e-01
5.253258706300004688e-01,4.912287036142164443e-01,5.414869720037216450e-01
4.167084215298577088e-01,5.371820118433970892e-01,4.722315375292626682e-01
4.513006631392227352e-01,4.666311372300417926e-01,4.700415307384767649e-01
4.424947253887346887e-01,4.399032361967147864e-01,4.918233950150380229e-01
4.954224673903318554e-01,6.084589767727811571e-01,4.741461931255820939e-01
5.290314354270385655e-01,5.061040890021630823e-01,4.834468745755504671e-01
4.832807054324699259e-01,4.789201997207024886e-01,5.069375766056354315e-01
5.246254370634777509e-01,5.071503969051031069e-01,4.420560043797654437e-01
4.595629994913121852e-01,5.089140321347853657e-01,5.505435638065681037e-01
4.961895018930261303e-01,4.939121945526440682e-01,5.187838885321176541e-01
4.985587112779026331e-01,5.299348014269105178e-01,4.393822137936930217e-01
5.301511255986574023e-01,5.318257310935384785e-01,4.428093409705397554e-01
5.648169995878069560e-01,4.325406070075893394e-01,5.478823208241733189e-01
4.983256756820799716e-01,4.782551211693883975e-01,5.038330038388226795e-01
4.676920749415912071e-01,5.388187543482132469e-01,5.533097822136272548e-01
4.534018332086640624e-01,4.979350403179472750e-01,4.642144480592124145e-01
4.843754663788548132e-01,4.907226692644844346e-01,4.873267069733943080e-01
5.734476139710731335e-01,4.795873795048885002e-01,4.996208279438304478e-01
5.170147649048549843e-01,4.623923442568077524e-01,4.892244250174964115e-01
5.666850110001849794e-01,4.664412412246199957e-01,5.320175863794693871e-01
5.712028649711200501e-01,5.005185229007241832e-01,4.277101023536145630e-01
5.760575361822580787e-01,4.717741723756559424e-01,4.691320900316241493e-01
5.128145955460978733e-01,5.356942606030505871e-01,4.485281740789687777e-01
5.744821849981976980e-01,5.227399177976872480e-01,5.127428165202291277e-01
4.186484619978481092e-01,5.255944590299643782e-01,5.092736482566382339e-01
5.494891891379307669e-01,4.938232664735002775e-01,5.094560512843129274e-01
5.309484612503710954e-01,5.525094673288781788e-01,5.453824398103945814e-01
4.627046115936551685e-01,4.874608094414540904e-01,5.629154191317669031e-01
4.442198938398942976e-01,4.497649208771322127e-01,4.916014614351697509e-01
4.552682635051524818e-01,4.817003194926685605e-01,4.864895450117227571e-01
4.821656236034940757e-01,4.788998213550488825e-01,5.111834775253755181e-01
4.577598895953050029e-01,5.417820713611157801e-01,5.143877148288705792e-01
5.329924248188072644e-01,4.979648425862007732e-01,5.098566439293777952e-01
4.680620778951000704e-01,6.105164181434641346e-01,4.648949777694828533e-01
5.447222385667610522e-01,4.993116868008750098e-01,5.293684980799946427e-01
4.219218771976402382e-01,4.821144615896422736e-01,5.173013125496715992e-01
5.062493175918644228e-01,5.222533408771943275e-01,5.310609103286531019e-01
4.529967678782160778e-01,4.696783275854925499e-01,4.873000638875081281e-01
4.472433308615928471e-01,5.226662185708692565e-01,5.153352073517248888e-01
5.057475123378527559e-01,4.320199838778181478e-01,4.727941155106900051e-01
5.719527465595902749e-01,5.317020871339817045e-01,5.208427783060700644e-01
5.599586781917492706e-01,4.465261515896973843e-01,4.852047723784846944e-01
5.118201373096498141e-01,5.304280021639986575e-01,4.814362063420555282e-01
4.674374195376883034e-01,5.088227951132786586e-01,5.743612266938336042e-01
4.346657692042684151e-01,6.005825876979864475e-01,4.840232141916192554e-01
4.821887169112598071e-01,5.595619789862640303e-01,5.152853379298509839e-01
4.871912472800280502e-01,5.645544078434718838e-01,4.953459875168181314e-01
4.916718248262019197e-01,4.453897683011915909e-01,5.411159139103766114e-01
4.845331582618554456e-01,4.950808708507710709e-01,5.370703427948725350e-01
5.696331442944319035e-01,4.717334694365971082e-01,5.271423038920715065e-01
4.573778027629104570e-01,4.390731597903977379e-01,5.479625117558666325e-01
5.254147843263574646e-01,5.639558401363168327e-01,5.004348994196411438e-01
5.692877437812320363e-01,4.300761559710469806e-01,5.503564125694031528e-01
4.986202100247681401e-01,5.210100634040464307e-01,5.283409928235336395e-01
4.550801630635320505e-01,4.730083300556720549e-01,5.479360112431881369e-01
4.788428877032668285e-01,5.513445187023441330e-01,4.828219466138315430e-01
5.352779312718251026e-01,4.775859794967980965e-01,5.268947350316947054e-01
4.858108918761651074e-01,4.959236684680965457e-01,5.759811276156433513e-01
5.404217535601788525e-01,4.837964695929873327e-01,4.917464918854633771e-01
5.430279870139088638e-01,4.998027458907406406e-01,4.578144226417895646e-01
5.320185715453841224e-01,5.245913863124244125e-01,5.495636917827685375e-01
4.657343655090222523e-01,5.336281868346924862e-01,5.016997245066581179e-01
5.036521974711568594e-01,4.973061875329081727e-01,5.004695315979437176e-01
4.586531631843704937e-01,4.982697107091825783e-01,4.546512033207192327e-01
5.285746376398650082e-01,5.154495664032121560e-01,4.511842863234403755e-01
4.631306550017600387e-01,4.293676890255402889e-01,5.337265509118598317e-01
5.545097462844605918e-01,5.628116900261002087e-01,4.980485191371007425e-01
5.278939784565132021e-01,4.692118325189735817e-01,5.169494257120946790e-01
4.599049291824117147e-01,4.835920722200622857e-01,4.780235681446026730e-01
5.284250836027230003e-01,4.650151583928834875e-01,4.881147700975947412e-01
5.173548313354299211e-01,4.160244583586757972e-01,5.033733171647035709e-01
4.637941054843738309e-01,5.116255638779879655e-01,4.009357267592336682e-01
4.787260540649908025e-01,4.743121238650899185e-01,5.413761146915090361e-01
5.215682556268405046e-01,4.893233477662192743e-01,4.598568958558229003e-01
5.640090704120612752e-01,5.513844027756698019e-01,5.159209469501888634e-01
4.650116366607603413e-01,4.964645869812978063e-01,5.399132417265664063e-01
5.978105163708625769e-01,4.532015446131874570e-01,5.149029265452437221e-01
4.642564514840932244e-01,5.213377621692580899e-01,5.310139363374912769e-01
3.910912637445380091e-01,5.165808222777216185e-01,4.523462978236781895e-01
4.613266732610301069e-01,5.110664082178718592e-01,4.817202324475569064e-01
4.961351926329508055e-01,4.819043817405673225e-01,5.204688978905979146e-01
4.779613794181180042e-01,4.863483693109646455e-01,5.381558620272726134e-01
4.265049350698354447e-01,5.649328718195304466e-01,4.945844632305020361e-01
4.407056386452671282e-01,4.887044616547526199e-01,4.351550413854057830e-01
4.746454187784840961e-01,4.322735539237799740e-01,4.361624914083980231e-01
5.264730211529842219e-01,4.463276131195677010e-01,5.309526612285240255e-01
4.799818659054492231e-01,5.112168459324463177e-01,5.495424594931727080e-01
4.154539361296974431e-01,5.131047865504186900e-01,5.169250995979050023e-01
5.641834283016436968e-01,4.843556153163170452e-01,5.220767259035685726e-01
5.068876346187468629e-01,5.284313877657250691e-01,5.558978516412530491e-01
4.915454084929594125e-01,5.017997422197747470e-01,4.843344149222755246e-01
4.764485123834265035e-01,5.078316266456209815e-01,4.593375789831979361e-01
4.519296177766758960e-01,4.891133183427757714e-01,4.731267650632569044e-01
4.869748515654473420e-01,5.131316828433649668e-01,4.754054598516788688e-01
5.263068644512772787e-01,4.770519808418661745e-01,5.100543936036769921e-01
5.359490917417086830e-01,5.500816964344208415e-01,4.712108585216682188e-01
5.335860940457409773e-01,4.735548620428828848e-01,5.246114613992283182e-01
5.353761570641686340e-01,5.263002458312523446e-01,4.518318810803546026e-01
4.697819541689024492e-01,4.764275677449568702e-01,5.138863607325296901e-01
4.547893619523050157e-01,5.089379923016549290e-01,5.438132281528889056e-01
5.430910964736055391e-01,4.461248228970456919e-01,4.862282921449345707e-01
5.518747154532003263e-01,5.152079585320977761e-01,5.239969674057781690e-01
4.674759820153229217e-01,4.583350557363391475e-01,5.350561122581826146e-01
4.706136473734381376e-01,4.546659463092631581e-01,5.347950790388105169e-01
5.192210863523444297e-01,4.951485059246871212e-01,5.271344197591877334e-01
5.100937075280319588e-01,5.691518370898087653e-01,5.674863655128469242e-01
5.380295179259377836e-01,4.320987626690279138e-01,5.346660554438963375e-01
5.158557905393881260e-01,5.239421610827709186e-01,3.968241238165484686e-01
4.568278447118203078e-01,4.967905481727690198e-01,5.104190967088202413e-01
4.929661991113071795e-01,4.758266653014464054e-01,5.063901169218077980e-01
5.271147629587402683e-01,4.433640557036305219e-01,5.375465844281942518e-01
5.049612979756423758e-01,5.892462292227318432e-01,4.569942734436218679e-01
5.481529269494721524e-01,4.755797850987363851e-01,4.502410433799893252e-01
4.117919419052510910e-01,5.232682316997082639e-01,5.315444874118682161e-01
4.955984940711975484e-01,4.378377763482299567e-01,5.164038939706877551e-01
4.689381271832672726e-01,5.220113123215160966e-01,5.298411500167486965e-01
4.557753243475871074e-01,4.820420357799152788e-01,5.140673811195985987e-01
4.989807978358932194e-01,5.287458108355285180e-01,5.873946426543860122e-01
5.448858391163891035e-01,5.470927018041844558e-01,5.561648635403454444e-01
5.158947250210446089e-01,5.083896361502665551e-01,4.381022381543683841e-01
5.178549212539891311e-01,4.989065914210135122e-01,4.092399449095874275e-01
4.627372019207987575e-01,4.867972126239274444e-01,4.884351994743343917e-01
4.688323867212034202e-01,4.350323691705269002e-01,5.384182591653178251e-01
5.466783703494587643e-01,5.142465660754241830e-01,4.981242079343640161e-01
3.997384030455725101e-01,5.456457162907450975e-01,4.449197912356440132e-01
5.054215487940135754e-01,4.733234216804333983e-01,5.424778263680755108e-01
4.841479762103699791e-01,5.673311325818872763e-01,5.183354069229925143e-01
4.220116603078249429e-01,5.423826752328196887e-01,5.554482445188618778e-01
4.182066786271567693e-01,4.369601132777007346e-01,5.697089950540513703e-01
3.765102815336889841e-01,5.553580756769894711e-01,4.894071524257939676e-01
4.595484926950316740e-01,4.806458131847014537e-01,4.531206512630324701e-01
4.971176541834470552e-01,4.889777558663058188e-01,3.803767905818866701e-01
3.980362199288260960e-01,5.366301819088145075e-01,4.510248831811108916e-01
5.552669188946182111e-01,5.004867487711683882e-01,5.301015019507108184e-01
4.684768320509992146e-01,5.082452056485357028e-01,5.016206458002403501e-01
5.219951261032467205e-01,4.502682159421714236e-01,5.064069571796512292e-01
4.832946877817182463e-01,4.638720174852462019e-01,5.186979358969157072e-01
4.573352996436965689e-01,4.371893096298214432e-01,4.610637555309303193e-01
4.636237141196012934e-01,4.637575189146701526e-01,4.703541399914802357e-01
5.080829192056912635e-01,5.171267224901917592e-01,4.968165740844384115e-01
4.916130069147451875e-01,4.755077904160708857e-01,5.627293946802409685e-01
5.241582853009288945e-01,4.094911173465552445e-01,4.838225176805094896e-01
5.065478460555900009e-01,4.816643493322908531e-01,4.745644004925898551e-01
5.461986037907993197e-01,5.092749567463341620e-01,4.702412830323362547e-01
5.152751079181151495e-01,5.308040015062166495e-01,5.411035237029240275e-01
4.797700839051354249e-01,5.035342532665362247e-01,5.504803095378901778e-01
4.783314641997037375e-01,4.601907472985451442e-01,5.510686956705683759e-01
4.829014497471451062e-01,4.749024464956083658e-01,3.965641982983946212e-01
4.981704180002211046e-01,5.010145592059986885e-01,4.686169226805281252e-01
4.883633998249372055e-01,5.683242643293762164e-01,5.536468297325290999e-01
4.540303301146109693e-01,5.284075261599655571e-01,4.819398700897041810e-01
5.715901746415887885e-01,4.501742859143420539e-01,4.439038896004963708e-01
4.844452856511878291e-01,5.408773421221113598e-01,4.883138908464582650e-01
4.659475167611473734e-01,4.653743863052333674e-01,5.096392425918091496e-01
5.665724016613415959e-01,5.344775103033533314e-01,4.737319069351962342e-01
5.196162905011877386e-01,5.137390300796081943e-01,5.198506404243647960e-01
5.334751296179549573e-01,4.744147467523440187e-01,5.560309155324212327e-01
5.171865757196897340e-01,5.131486786401526778e-01,4.835178918295781059e-01
5.328602514354583430e-01,5.238659677830541650e-01,4.218783213287102263e-01
4.044290818875311277e-01,4.817570636288019958e-01,4.408061669913289071e-01
4.374790170678083956e-01,5.607717691772424740e-01,5.264211913206792159e-01
5.799930962603953022e-01,4.500256217454021712e-01,5.832302678692370401e-01
5.228512996724349327e-01,4.705413068764163764e-01,4.712536626223563507e-01
5.354439533229743420e-01,5.085300193449440176e-01,5.340287592454021626e-01
4.587588516626839863e-01,4.404523363054218543e-01,4.628581938477665525e-01
5.306428612831256553e-01,5.064043789875970480e-01,5.256240101871095804e-01
4.987298848344342561e-01,4.655028651734299250e-01,5.414163415222994491e-01
4.720004528299239777e-01,5.150095529902085634e-01,5.377817625351978270e-01
5.245148656880922466e-01,4.370080017551737916e-01,5.293105849398349605e-01
5.512457551137402989e-01,4.769617023761679175e-01,5.112867644372630638e-01
4.480166337842334534e-01,5.531336635798536072e-01,5.392963772862328087e-01
4.905385674611695834e-01,5.399718388643839351e-01,5.775612257269192584e-01
5.367414468596003463e-01,5.260041555187374707e-01,4.987493694866293459e-01
5.021230981993424214e-01,4.687261245550358169e-01,4.946790622352133515e-01
4.887996549084552278e-01,5.013139272963318405e-01,5.125467744492594457e-01
5.265441466684990246e-01,4.882872519299150671e-01,4.714717866529707369e-01
4.807205895820947927e-01,5.066837081424050426e-01,4.818720458063212031e-01
5.066425455189458305e-01,4.696440325011804751e-01,5.585192148973595616e-01
4.903057194773318694e-01,5.589952998014063867e-01,4.933463042855946168e-01
5.523526918142294129e-01,4.856595792392830457e-01,5.225110966400562384e-01
5.070480293544594730e-01,5.957998941522483216e-01,4.476170671561502945e-01
4.791689530509518069e-01,5.027247992741489258e-01,4.798393877600300450e-01
4.822115784747524891e-01,5.480585317319520700e-01,5.500809177763571478e-01
5.008153528499101892e-01,4.403201294175413949e-01,4.493828991736534828e-01
4.949802367938340719e-01,5.271182078059699627e-01,5.234216244479330538e-01
5.162320051620453709e-01,5.659526708661696270e-01,5.161350085595531878e-01
4.689670295669159383e-01,5.159798373537307636e-01,5.153909453884369940e-01
5.499027031889617279e-01,4.975788636188872571e-01,4.692652630491382371e-01
4.693671926024537977e-01,5.833219077737056280e-01,4.469868186249107977e-01
5.710737395404837935e-01,4.704618089122610258e-01,4.611346454461583422e-01
5.798825139756200731e-01,4.819243413628767625e-01,5.025074733336106769e-01
4.494034894083803189e-01,5.500957328101163668e-01,4.397212776302913961e-01
4.540834895054786657e-01,5.420399573504744994e-01,4.957182127551915674e-01
5.227265804938215910e-01,4.828483165735578675e-01,4.537757749602698287e-01
4.736115695039594953e-01,5.003293868734504102e-01,4.811932581694082778e-01
5.479019766191812746e-01,5.076403171101112610e-01,4.550064973495157594e-01
5.405370635319624029e-01,4.796915686689657288e-01,4.706578856151139023e-01
5.009404691892267447e-01,4.692808266859971877e-01,4.271220745032256461e-01
5.523708687875924506e-01,4.631016649187497114e-01,4.606279169480748115e-01
4.693251011773472703e-01,5.576568896570079925e-01,4.934847439968894633e-01
4.450752758107305862e-01,5.068321580430317219e-01,5.381629313164048023e-01
4.836897361144260610e-01,4.594043928666970422e-01,5.480975990426043554e-01
4.917856962115264574e-01,4.836783920237257006e-01,5.781954258541622815e-01
4.927466785366786950e-01,4.934270422725554051e-01,4.649842847529205847e-01
4.726555421252193745e-01,4.981256983444635189e-01,4.692868471615365134e-01
5.018960776464440610e-01,5.246391293287567814e-01,4.580798183468726692e-01
5.030484141851396807e-01,4.892134238693712778e-01,4.987949386213643699e-01
4.732780888692881827e-01,5.247140736222205559e-01,5.058513590618747280e-01
5.531453920964208848e-01,4.946503185760648957e-01,5.483396892794418775e-01
5.431193430357218466e-01,5.077719620973994985e-01,5.249858223676726610e-01
4.991603222138319418e-01,3.866911388224118507e-01,4.898258921298770385e-01
5.867285468042879870e-01,5.275433333224326393e-01,6.047650029492969148e-01
4.749221240822226742e-01,4.479223594113542761e-01,5.498419287026042879e-01
5.100024612348595943e-01,5.381657898404590412e-01,4.925192294632312340e-01
4.727089646505768794e-01,5.076883831573810735e-01,5.062474887939203416e-01
5.175341619579022501e-01,5.281555427760930010e-01,5.352967090288218710e-01
4.774515732601840590e-01,4.812592155980348063e-01,5.060628605090865539e-01
5.745346209987635122e-01,5.231894072643096250e-01,4.563808044839288147e-01
4.893129327806532980e-01,5.316673292581034493e-01,4.812799447381733153e-01
5.052837467462435450e-01,5.006786342530632483e-01,4.707763927394636450e-01
4.843305317761257278e-01,5.298290186403665780e-01,5.358515550854601184e-01
5.983532114850794725e-01,5.431572448902620698e-01,4.992559074916397277e-01
4.392965653637239676e-01,5.608342246767850092e-01,4.485804892170868197e-01
4.541826860855625037e-01,4.239975873976413179e-01,5.628240527759816869e-01
5.243317342802333858e-01,5.241349081630516382e-01,5.119613064851741280e-01
4.943097949026134530e-01,6.008443741894249346e-01,5.289184644469199226e-01
3.918032924772804626e-01,4.720899259755285127e-01,5.450869781484417587e-01
4.859780969310069088e-01,4.584666400885469839e-01,4.931711985652423302e-01
4.716446041063993011e-01,5.148722055863340641e-01,5.477904108293154550e-01
4.508021379359169467e-01,4.570530749506567791e-01,4.273820554432698482e-01
5.283931975630006272e-01,5.199319899554741831e-01,4.665550725735213011e-01
5.365037344646582662e-01,4.980183862605038203e-01,4.549609116326164826e-01
5.490743828556716721e-01,5.334601705142825168e-01,4.615859848364105567e-01
4.743883083236520859e-01,5.622926748158219024e-01,5.161986790634005562e-01
5.652579123316650023e-01,5.580338318670180486e-01,4.668647527628067007e-01
4.642157117596036886e-01,5.299923421224317366e-01,4.878842631272843344e-01
4.857115403965746037e-01,5.240263010881537342e-01,5.482469297780778739e-01
4.981886424600794894e-01,4.781624326340118691e-01,4.877365268963878009e-01
5.015291308549759686e-01,5.318357452768756044e-01,5.485762554856460360e-01
5.413400577189180218e-01,4.820600674299128641e-01,5.336503232365318317e-01
4.776358306343307936e-01,5.165075281603498381e-01,5.085704613639371319e-01
4.197395475319892766e-01,4.362930463809771564e-01,4.327132923831225608e-01
4.233792249304088040e-01,4.691508454031166342e-01,5.246599981792458012e-01
5.638512473622941945e-01,4.991973815137477621e-01,5.308471823620672936e-01
5.342307133229624583e-01,5.135269278786528391e-01,5.287075466299021587e-01
5.182030927006582299e-01,5.190987617888519479e-01,5.201872431452185808e-01
4.960238327488612486e-01,5.516751635127793429e-01,5.191164047396156223e-01
4.785341497951157153e-01,5.104505200141661314e-01,4.777298357131877227e-01
4.370225861392630917e-01,4.705502299029812319e-01,4.853384855226935968e-01
4.610836292037927553e-01,5.341978531878399661e-01,4.833813272285967244e-01
4.438889217699797940e-01,5.096766252499854710e-01,4.776358969826167145e-01
5.288422552918266017e-01,4.991406031694040624e-01,4.892972680594556145e-01
4.862174581034139909e-01,4.650153564337258238e-01,4.149193056886828490e-01
4.887871744596005152e-01,5.119788390054611504e-01,5.440706974719047295e-01
5.372023500256359885e-01,4.979576905602821069e-01,4.012723850363287825e-01
4.558882902339949084e-01,5.088637843541790051e-01,5.522889242296000756e-01
5.359049776433290058e-01,4.763782543463839225e-01,4.358959347743652235e-01
5.498636449405028825e-01,5.628012191689388821e-01,4.491013414367843737e-01
4.720218594271355372e-01,5.042949059412017432e-01,5.293495559096695890e-01
4.986494496311735247e-01,4.177269438112230504e-01,5.080030747119576029e-01
5.180915268160182219e-01,4.701610337098842129e-01,5.248005318194202129e-01
4.971784585764701947e-01,5.174603910761860215e-01,5.132372099189521641e-01
5.264812473730597908e-01,5.231999261084310238e-01,5.317146137953371321e-01
5.565129591557500532e-01,4.880639130912665657e-01,4.738583131419775163e-01
4.642716356877761297e-01,4.761846028713493939e-01,4.044566759963734714e-01
5.924030595232855356e-01,5.009577445348308844e-01,4.407542751643728773e-01
5.063520123063031120e-01,5.475275199657153591e-01,4.508703046158268335e-01
4.223489917081229006e-01,5.021550013059060680e-01,4.723758993548726748e-01
4.652269036787742840e-01,5.348398482517863206e-01,5.017839750290654655e-01
5.167989203166029055e-01,4.978834596643935684e-01,4.561324383403058125e-01
5.667107028529053681e-01,4.067809757780198598e-01,4.914383587704572176e-01
5.279669432962930120e-01,5.004405830015902223e-01,3.941930156554476761e-01
5.221556053579483603e-01,5.512826719047150270e-01,4.849027894295850349e-01
4.937455930622202116e-01,4.879348888961704267e-01,5.313131281271090689e-01
5.167431238604971444e-01,4.518711762527256037e-01,5.244456662601358898e-01
4.874065386212124151e-01,5.060214233987900823e-01,5.345293170451029807e-01
4.976585972336680097e-01,5.304653227103227620e-01,4.854996226499446177e-01
5.550794211899762187e-01,4.929837452384377983e-01,4.820154009409845508e-01
5.510818905140144608e-01,4.498598752825656577e-01,4.544696100328298738e-01
4.391294127518083346e-01,4.779408943756781047e-01,5.345031586045733141e-01
5.098783220670449756e-01,4.573908509677003242e-01,4.460352780368444514e-01
5.271185031749604510e-01,5.594741119284206698e-01,5.216894510276991470e-01
5.300856080955000937e-01,4.103250009256718123e-01,4.880267809066990981e-01
4.479426617326044413e-01,5.409165038902141731e-01,5.051200489697224016e-01
4.659863119847173496e-01,5.262183935990815131e-01,5.138568184462244393e-01
4.846029960264519598e-01,4.619401266070263246e-01,5.347468698375226204e-01
5.187262400979089083e-01,4.427879375795714667e-01,4.303341753688902371e-01
5.295107957542929400e-01,5.524202538537760221e-01,5.525245481329945640e-01
5.341222915172192387e-01,4.631190109440447844e-01,5.211905953023774352e-01
5.242357678495427331e-01,4.417891797901924433e-01,5.404877979530989807e-01
4.685867108130808423e-01,5.661835509468866601e-01,4.824412384939238962e-01
3.985425030018228121e-01,5.139203882498286635e-01,5.004834035557742533e-01
4.702433376287925570e-01,4.397011919934396551e-01,5.451760159227856395e-01
5.712807575283281869e-01,4.982722243918325522e-01,5.090970180363491027e-01
4.195015727694172414e-01,5.092085997019099031e-01,4.991064568252396305e-01
4.582323884628165533e-01,5.186435689183380715e-01,4.889300858852613785e-01
4.622923042094694845e-01,4.892451079688324711e-01,4.502501425760885301e-01
4.799493928430393352e-01,5.308810271941023506e-01,5.566975526838878752e-01
4.971614639188096096e-01,4.509154758185895950e-01,4.873014362208109018e-01
4.858356828799280103e-01,5.286361199590349225e-01,5.063204095350409828e-01
4.288390057665762423e-01,5.233319674295997537e-01,4.548769475927383343e-01
4.873171128953460718e-01,4.647977177352659583e-01,5.441094421279976112e-01
4.984428036720379707e-01,5.529445028983003274e-01,4.283125852799236633e-01
4.955543605239811078e-01,5.333129606732495143e-01,5.615160071118496798e-01
4.814375012320427083e-01,4.784452055356392952e-01,4.577629943359811659e-01
5.198310773896579473e-01,4.916674002779390373e-01,4.947315277951561674e-01
4.283559904711188859e-01,5.207044598904703170e-01,5.353574016554950576e-01
4.301794547048946593e-01,4.746520034643442187e-01,4.926503591860631470e-01
4.250433998393095547e-01,5.254678914080771479e-01,5.402864194642521545e-01
5.404620781166138421e-01,4.141366456930574702e-01,4.694654513435487231e-01
4.744510805369167583e-01,5.170459107388308828e-01,5.057672991955675101e-01
5.582795877999177092e-01,5.300243825806610909e-01,4.997200736290258738e-01
4.578660650122530762e-01,5.839107838867569900e-01,6.370927988245224105e-01
4.999511560761955020e-01,4.684416736337762566e-01,4.956228836606769717e-01
5.323936610089080590e-01,4.888891128946848963e-01,5.008761750773716992e-01
5.410231365433328943e-01,5.125612040330194130e-01,4.408083163948584571e-01
4.405749987379205534e-01,5.639125537329446880e-01,5.131718242596990942e-01
5.084804911625430135e-01,5.927470229390821022e-01,5.113560546227859938e-01
5.236529271623097115e-01,4.817006700699946187e-01,4.877064935839813264e-01
4.157802112775433878e-01,4.509893314971029632e-01,5.656808664429980871e-01
5.069478111152529998e-01,5.702885932891008647e-01,5.160765448657173016e-01
4.647058437413112975e-01,5.849181681726075555e-01,4.669296945589430647e-01
5.518888036587665802e-01,4.060768047273924375e-01,4.892926279705423487e-01
5.532908698294499716e-01,4.499173064085162932e-01,4.735813102460365021e-01
5.131113544904151169e-01,4.196778598879078448e-01,5.508757035371025790e-01
5.278871911471776368e-01,4.786911190911161129e-01,5.171653560905087321e-01
4.801713491606204864e-01,5.058137534744062691e-01,5.231532220973754699e-01
6.142844191412950572e-01,4.705992040636230445e-01,4.842421608796179111e-01
4.790382316033134358e-01,4.585563234803348709e-01,5.498781963443573062e-01
4.784620172671464333e-01,4.414104082779848337e-01,5.069364979892163614e-01
5.658792404134015408e-01,4.780212616465121522e-01,5.050718397819735639e-01
4.934212644145575810e-01,4.524570349654054580e-01,5.398955021649195496e-01
4.826007298230586828e-01,4.374105880449453143e-01,5.922204826927121024e-01
4.371176261568894827e-01,4.207363037844222275e-01,5.627162608401428123e-01
4.766733107186487683e-01,4.899951064326485417e-01,4.768178537510422976e-01
5.391885043290756130e-01,5.622648188075941578e-01,5.203009088523666836e-01
5.049181274654179763e-01,4.589911332082037831e-01,4.698170448184555981e-01
4.948233322485546259e-01,4.513127025897203937e-01,5.368122632643363978e-01
4.176598022577193703e-01,5.002598209249221606e-01,5.454433504074294170e-01
5.473417303092539266e-01,4.504901250442724936e-01,4.971876068887134403e-01
5.707155986026236638e-01,4.877487936185492812e-01,5.315667762220975812e-01
4.491325066492048435e-01,5.708210024161689544e-01,4.909958520329195664e-01
4.799604571728287583e-01,4.906572315755062252e-01,4.633858630290484948e-01
3.892350485990390685e-01,5.009664817145121907e-01,4.930792933859061700e-01
5.270786544314939315e-01,4.722313006574937466e-01,4.556500532389670122e-01
5.434875562348949751e-01,5.319345264539613316e-01,5.058455346317461965e-01
4.693100535733890077e-01,6.077936906533760730e-01,4.306559473152482553e-01
5.593781167662111864e-01,5.703957302305395771e-01,5.949457717909329979e-01
4.209249644808754631e-01,5.290195574080649443e-01,4.680661107346378302e-01
5.011150875940970639e-01,4.549756084662199274e-01,5.068127006955696068e-01
4.954869583094162477e-01,4.870618203086435338e-01,5.913805680327176573e-01
4.351684506525016483e-01,4.361142223103330329e-01,5.203752933110347145e-01
5.117929822454272415e-01,5.328319990786676286e-01,4.750993367990220539e-01
5.148293204360784303e-01,5.379222597097198522e-01,4.708980718453665837e-01
4.943323972962241353e-01,5.054784178555113971e-01,5.062120446933183748e-01
5.426177762972455021e-01,4.276022313880306069e-01,5.465386200185176069e-01
4.749827716775804620e-01,4.678293657542628714e-01,4.914732822295763692e-01
4.837590570077013874e-01,4.716676891473516320e-01,4.927117473547820148e-01
5.006220338873982323e-01,5.863214178793353382e-01,5.016538364691082164e-01
5.489257178679504134e-01,5.070119539073286719e-01,4.576703065206963461e-01
4.433255143740281734e-01,4.975264608957204460e-01,5.158619809825816249e-01
5.290539430164808987e-01,5.196258552102733796e-01,4.734603634234865188e-01
4.771704374885378241e-01,4.530247458534584215e-01,4.053801614324086255e-01
5.617951670333001246e-01,5.074999781217046646e-01,4.639813708198389786e-01
5.656986764488884933e-01,4.243280150379018512e-01,5.379735278839625767e-01
4.283477664510086935e-01,5.257546020261635311e-01,4.679598954990261683e-01
4.837310009945255951e-01,5.187010439430688180e-01,5.251134993175370358e-01
4.836069926684838927e-01,5.519090471108593077e-01,5.297602476549472250e-01
5.493725442494089561e-01,5.259681850358201016e-01,4.442968041503461141e-01
4.773023076873179060e-01,4.457964486925803382e-01,5.286006185193257156e-01
5.000762443566473259e-01,5.045988299802096622e-01,4.735511368827660661e-01
4.431220329173208294e-01,4.038034283990689088e-01,5.170086704226245500e-01
4.363318314530698072e-01,4.897360162668820127e-01,5.493142783261878437e-01
5.423816476977796341e-01,4.550753371251946566e-01,4.875991197327266824e-01
5.009730116707719061e-01,4.848868326463717793e-01,4.793289324890466774e-01
5.754214229618340726e-01,5.157452454561579636e-01,5.558176894936526224e-01
4.835040880185921264e-01,4.954026539678944019e-01,4.971640784150975212e-01
4.803180482306393939e-01,5.070045921276551404e-01,5.419899967368212446e-01
5.344793386661562673e-01,5.765960436525718880e-01,4.878366599009519300e-01
4.610216372141077157e-01,5.066149263544050818e-01,5.592521160525013579e-01
5.158297037710075639e-01,4.717381981527423163e-01,5.130618109028369789e-01
5.454442651225525074e-01,5.297129880897130105e-01,4.892050831803556044e-01
4.034439530367279203e-01,5.394132930976300866e-01,6.529904287463785817e-01
4.915804196118605529e-01,5.293379450205164538e-01,4.911144556446238041e-01
5.481322407601234570e-01,4.949001049601437496e-01,5.706600579281724261e-01
5.381572010445164755e-01,5.372001376288585428e-01,5.399846047713844355e-01
4.781797628484688589e-01,4.297599213872540513e-01,5.348071580080602239e-01
5.319783193272537014e-01,5.029057425553430383e-01,4.761717088377335205e-01
5.843468225789194559e-01,4.111224951711848208e-01,4.493491204208810985e-01
5.317769147783346639e-01,4.809793146144319964e-01,4.884565165573723222e-01
4.604083227250718724e-01,5.280498772137416363e-01,4.421033184911332126e-01
4.863501001789371503e-01,5.401167230083913084e-01,5.085975554115492736e-01
5.137460475063851950e-01,4.927358268179220513e-01,5.097293824493194236e-01
5.061731326023215516e-01,4.966235061631770753e-01,4.580334899896906786e-01
5.133078221744433733e-01,5.537127000063771787e-01,6.012601461066947595e-01
4.851024562912818472e-01,5.273552429021284293e-01,5.666814245240276993e-01
5.247662437550466574e-01,5.005531184360259012e-01,5.090096123169751685e-01
4.617217138682301325e-01,5.774756404182270764e-01,5.182557531698422926e-01
5.208599517434864268e-01,4.744197783309534455e-01,5.223136938740190471e-01
4.910654601132554142e-01,4.926957204165233750e-01,5.578870346127869917e-01
4.885687595363871760e-01,4.684608239038003941e-01,5.342092907655752176e-01
4.985586034877358408e-01,4.786875430124711839e-01,5.225294651831379200e-01
5.607240277993497113e-01,4.924969473325221947e-01,5.623455842606389643e-01
4.158473715669495085e-01,4.937943447340603642e-01,4.833160672726481422e-01
5.516086226919927338e-01,4.707122201155097274e-01,5.331342950986529550e-01
4.897967553053017564e-01,3.652800790367389805e-01,4.923774247233442813e-01
5.666719203902502722e-01,4.707551627627599156e-01,4.987273594675704635e-01
4.525432480065894048e-01,4.789805626899016344e-01,4.492551187220819031e-01
4.875163651391835051e-01,5.674967546953495479e-01,4.795840924482465684e-01
4.834674338299520535e-01,5.299900569398884320e-01,4.409414930787791675e-01
4.590143641109556971e-01,4.977185821736620497e-01,5.756750455717771775e-01
5.247955040952162475e-01,5.052635309885684656e-01,5.168371428995595096e-01
4.774013457505314473e-01,4.517593814042772937e-01,4.463562999148681931e-01
5.044325992435867434e-01,5.028093534058856173e-01,4.887499776537122531e-01
4.890702389835651642e-01,4.429772940614385424e-01,4.960580466249823739e-01
5.106043892158645958e-01,4.740812682937203260e-01,5.174620160287891624e-01
5.487067812592797411e-01,5.236321743631148218e-01,6.025846104993818342e-01
5.557505543107619239e-01,5.192270556336162635e-01,5.252240582607464736e-01
5.198175513798776182e-01,5.628938629735911192e-01,4.643328636497969786e-01
4.924737429679351686e-01,4.740843757845573103e-01,5.020132937550429997e-01
5.122283573245873800e-01,5.122071969964829830e-01,4.345553318461108927e-01
4.700292087460707924e-01,4.722128743649051663e-01,4.831556168551859876e-01
5.439294897448875288e-01,5.326643546766385295e-01,4.975978105043772359e-01
4.991348134232773681e-01,5.021597312750679665e-01,4.486505242520050230e-01
5.155289520845046658e-01,4.392870942925463096e-01,5.025322542101929857e-01
5.057298997477701619e-01,5.598850213794701602e-01,4.714233997107485363e-01
5.002574647030779698e-01,4.579340095654764742e-01,5.621874496605856475e-01
4.472942322665299786e-01,4.859988524725428194e-01,4.733110527806101975e-01
4.441253246914491637e-01,4.802207710053574274e-01,4.865486255822724648e-01
5.019464108524398505e-01,5.265851997301674858e-01,5.207380138262074354e-01
5.401944265607975248e-01,5.312059839749116996e-01,4.672504420704007844e-01
5.782266093991116351e-01,4.199098907306272888e-01,5.542220976914269404e-01
5.373217790153975715e-01,4.780238645939440811e-01,5.150163810655604690e-01
5.086478115910365583e-01,4.660427973796266166e-01,5.099921972317063013e-01
5.189218754509447029e-01,4.965472436906724352e-01,5.019624149408682401e-01
4.709614843317930788e-01,4.611895365057974150e-01,4.475386968517280351e-01
5.313511444473886236e-01,4.289179056045534510e-01,4.907345546326175589e-01
4.269692337055269737e-01,4.869153603019891752e-01,5.000170323271073691e-01
5.139314014721861890e-01,4.017270884029960354e-01,5.051165779482731377e-01
5.170670211907324454e-01,5.500823712056986947e-01,5.173410272075867899e-01
4.648048524485017263e-01,5.357796950802159452e-01,5.571390148514320240e-01
5.159415503761007882e-01,4.888408603229234539e-01,5.240286071767648046e-01
4.668839407475536829e-01,5.667174792257838600e-01,5.504811233685480421e-01
5.228541820705879806e-01,4.583938491150097438e-01,4.626954605344270610e-01
4.487636723245161385e-01,4.591251232864316245e-01,5.239662794618316077e-01
4.874635322710020868e-01,6.053720728215896685e-01,4.761796187345366804e-01
5.287294811106069137e-01,4.771107224497486143e-01,4.499804171828747368e-01
5.802254189083746461e-01,4.242627312525859562e-01,5.532723162116629512e-01
4.759853738002469137e-01,4.931723854299734922e-01,4.937278978215624003e-01
5.178998861220482919e-01,5.297396183319896812e-01,5.529467114732266042e-01
5.458266588989059143e-01,5.175745304732477514e-01,4.478719149139147593e-01
5.723123385422667075e-01,4.871009797917640882e-01,5.207187014886217602e-01
5.383596924744660228e-01,5.174629464449362892e-01,4.656056551831531110e-01
5.330299172600300173e-01,4.847463390137657924e-01,5.351146926686223271e-01
5.271265822486121966e-01,4.881024034785109156e-01,4.590051504642688185e-01
5.734569282179690086e-01,4.532297221180824898e-01,5.609263994874570392e-01
4.409524487089594991e-01,4.347328447360169767e-01,5.160772925548475776e-01
5.105032694950861760e-01,5.758484325787105451e-01,5.417674668637824098e-01
5.452209678351009892e-01,5.130601110487367222e-01,4.873085358576131898e-01
5.286634399633611814e-01,5.014062702928515636e-01,5.419157052142818953e-01
4.709201752363538773e-01,5.221501951092353266e-01,5.073899148360905276e-01
5.590146890435735427e-01,5.291218630476273166e-01,5.410800064542270471e-01
4.435887845930654438e-01,4.645550482477647791e-01,5.295107700402292839e-01
5.258478385735428917e-01,5.983739816191303573e-01,4.921097732899979982e-01
4.924493963442607702e-01,4.805216775566743537e-01,4.800401875402051100e-01
5.703014188958910324e-01,5.008635200208307880e-01,5.243344481713426708e-01
4.977655386598207055e-01,5.032316703431669591e-01,4.413763773610056562e-01
5.610213249329742968e-01,4.798536247384741493e-01,4.451094892544323334e-01
5.617895383241856555e-01,4.554631182005440260e-01,5.036932804825672294e-01
4.372310143603702626e-01,4.823599531218573100e-01,5.268627836816298649e-01
5.863786489306240801e-01,5.269087259803819645e-01,5.308928539883704945e-01
4.481787329979041168e-01,4.676559209580101184e-01,5.502870694133469298e-01
5.830829748189355621e-01,5.045799907028731823e-01,4.801281241360720320e-01
4.910838979681638183e-01,6.232211121095213580e-01,5.204391723838136530e-01
4.583283951556156866e-01,4.752380286861917491e-01,5.444166707031193875e-01
4.785593668999308381e-01,4.432689693706993173e-01,5.292819544096348805e-01
4.648503384640321756e-01,5.317168327829970842e-01,5.236079526063917022e-01
5.416204420125627639e-01,4.579672977236901033e-01,4.270298534385387756e-01
5.328237227886126748e-01,4.664348614076797017e-01,5.037589824772211733e-01
5.950480696135002079e-01,5.719325397149153112e-01,4.586491973157953983e-01
4.530813161303549053e-01,5.502766642255416674e-01,5.603334125014118872e-01
5.601358166768094504e-01,5.555590404721910680e-01,5.171870026578619939e-01
4.724311209462135341e-01,5.663402509628566728e-01,6.093379430021386156e-01
4.800959626460390983e-01,4.744396840587281616e-01,4.621771262636340527e-01
4.963512843200217350e-01,4.993068370835448966e-01,5.275662396457030390e-01
5.430721682326583588e-01,4.684837429513797336e-01,4.571770752987834863e-01
4.874824996374770847e-01,5.072727410420430072e-01,4.588922338011110491e-01
4.641633013694591581e-01,5.315163906426459972e-01,4.375431530275641911e-01
4.940246147727329062e-01,5.116018084958687817e-01,5.241068149206594695e-01
5.014115586874111630e-01,5.005582084506425833e-01,4.758524710465082963e-01
3.925900477858236259e-01,4.979084657099879796e-01,5.497201897851833330e-01
4.773066522298676784e-01,5.099053538596043378e-01,4.659794849561728625e-01
5.516296787815014868e-01,4.813817234747794771e-01,5.593915439162492342e-01
4.587765957294797081e-01,4.987241239058865516e-01,4.853306796732979045e-01
4.858159075023442686e-01,5.146486606217545168e-01,4.811274788253624424e-01
5.564046184043365262e-01,4.763155692340652059e-01,4.825357101472747545e-01
4.039298671768629112e-01,4.706160436070022657e-01,5.474686905886525512e-01
5.923065373738686246e-01,5.439722457558557878e-01,4.919612934060328402e-01
5.047064611360055908e-01,4.873537522033140057e-01,5.692623393465633397e-01
4.680090550078346845e-01,4.568453179364143635e-01,4.792207948784975025e-01
5.587707154164209822e-01,4.639267998749955768e-01,4.784183040413098054e-01
5.081512319074885653e-01,4.914742406655005502e-01,4.620992590316599369e-01
5.078216520032576842e-01,4.669423775646802111e-01,5.052961988354532918e-01
4.445073745053265690e-01,4.936575882257860926e-01,4.845970995980724005e-01
4.556508984499396675e-01,5.157718595512021942e-01,5.052100369917853495e-01
4.906857413907940724e-01,4.775644698484989847e-01,5.094493220547988699e-01
5.108781253019479829e-01,5.276282444777672387e-01,5.261258872457234004e-01
5.125720474827692996e-01,5.119210811836931718e-01,4.439639468983272441e-01
4.405242520249429972e-01,4.586917309487382188e-01,5.225722652570208293e-01
4.850302142986788190e-01,5.150365786710172644e-01,5.225892944971926024e-01
5.004918039835013488e-01,4.676545817755077827e-01,5.426674968358080609e-01
5.077539744098361618e-01,5.303643995152180768e-01,4.561253624684648567e-01
4.863029057347800221e-01,4.973054374905450659e-01,5.124275791663792656e-01
4.932916675072089308e-01,5.516783265885242260e-01,4.840354132583515878e-01
4.953521814930597067e-01,5.261871921049678935e-01,5.032191913716227427e-01
5.190604936475003983e-01,4.195174058236565418e-01,4.819348639531254586e-01
4.608946985809145858e-01,4.956717591496094810e-01,5.443633918361620028e-01
4.360188049963260037e-01,4.325894915972422483e-01,4.472854314030556000e-01
4.889428599753115612e-01,5.584788310017139157e-01,5.245378979125501218e-01
5.050198596282630126e-01,4.821237747973148302e-01,4.599042100219615792e-01
4.168212190690177565e-01,4.573079003071944815e-01,5.104853101837574236e-01
4.472983247613402380e-01,4.724715494268307281e-01,3.911745090652211654e-01
5.039762856963491133e-01,4.678607818564057275e-01,5.370497691823736819e-01
5.036707485266608275e-01,5.066959916773297046e-01,4.733259953748725768e-01
5.387353437452063742e-01,5.865650224301958149e-01,4.133690638861895472e-01
5.921076679051122671e-01,5.649121847441768152e-01,5.177720162656863634e-01
4.323443940529262397e-01,5.629791709124548627e-01,4.893576423467559944e-01
5.600291064317435286e-01,5.258888506192143097e-01,4.820631464656459642e-01
4.756295017094281374e-01,4.974118807711425116e-01,4.864574960965372674e-01
3.951982984333687887e-01,5.354852348187231215e-01,4.816371708675857843e-01
5.413995937867769337e-01,5.072780140382165959e-01,5.669774142150616481e-01
5.152975625543794180e-01,5.418654150153089377e-01,5.486365400595383246e-01
5.113922483145717512e-01,4.818926751834427535e-01,5.054089008852753473e-01
4.682509573821483362e-01,4.968484891588927921e-01,4.852071779515286232e-01
4.807731659682942804e-01,4.593757702158909328e-01,4.505950014975628193e-01
4.978932561912529087e-01,4.944463580133296454e-01,5.269028521960069655e-01
4.495381190439446395e-01,5.066641941397932447e-01,4.534136787197027840e-01
5.771165138678332474e-01,5.390130155286460001e-01,4.700485205137017730e-01
5.044369216564056346e-01,4.886924602828013331e-01,4.339689107108883337e-01
4.462443842916624104e-01,5.397489975706485366e-01,4.450324562058508571e-01
5.236308520262560329e-01,5.957901091400873428e-01,5.551954570043514670e-01
4.852829100171849319e-01,5.367523065698163176e-01,4.996583344854062525e-01
5.046173201530538277e-01,5.073191088849464681e-01,5.050015609355431589e-01
5.008710571413200752e-01,4.905016305904542073e-01,5.560202992573648473e-01
4.742426239886286532e-01,4.792885913172006407e-01,5.195203101176640859e-01
4.771522541073713874e-01,5.278949913982129427e-01,4.763066446887580518e-01
5.579522544604080814e-01,5.334333137117626134e-01,4.993186672867413467e-01
4.403454908548799507e-01,5.127887518324693028e-01,4.465838669792901450e-01
5.399554759378316637e-01,4.300965476813874422e-01,5.334241530189233194e-01
5.290568779771962493e-01,5.188055538935029132e-01,4.916028092769153535e-01
5.116759995846531517e-01,4.747984164789464390e-01,4.955280744760752754e-01
5.482805850436294204e-01,4.747940692502693460e-01,5.485323224671503350e-01
5.669332641284552388e-01,5.902893878918573645e-01,4.480885885120137191e-01
4.806379046830411839e-01,4.612755728080307205e-01,4.273911968225057589e-01
5.165011348189654239e-01,4.237479776929969910e-01,5.212963132256094312e-01
5.392147521797530096e-01,5.092195224080990901e-01,4.639905937567786465e-01
5.200298507006170246e-01,5.781055270397524870e-01,5.586838553275000896e-01
5.097148294376807609e-01,4.881020285770522604e-01,4.813946442437970208e-01
5.574488412229764434e-01,5.656809537297295964e-01,5.614087674772254566e-01
5.190005790841863975e-01,4.949309641783297686e-01,5.258999384915516995e-01
5.105069146352091414e-01,4.471922739527420809e-01,5.509507503998872791e-01
4.297705011657314556e-01,5.873827440140348966e-01,4.584584825062698599e-01
4.494067899919156894e-01,5.523828197043990640e-01,4.898166425921302580e-01
4.750440483887489185e-01,4.964037239948177471e-01,5.549374512948124227e-01
