accel_x (m/s^2),accel_y (m/s^2),accel_z (m/s^2)
2.187384735677383712e-03,6.775281363067332027e-04,-9.783930171531180164e+00
1.398222430487927083e-02,1.847299572358779242e-03,-9.789816983241504289e+00
2.071353563400792769e-03,6.713023275838581397e-03,-9.793362065490207158e+00
-6.988178292848101075e-04,3.719139379469234459e-04,-9.800237169235039403e+00
-4.411915889429051437e-04,9.040706346796694576e-03,-9.788894248338573689e+00
-1.153604577057321112e-02,3.881197406722527478e-03,-9.786497400842229411e+00
2.278166376084168453e-03,6.109520282480071680e-03,-9.800165753415155834e+00
-4.302005334321175149e-03,1.392153129009067458e-02,-9.801092027065797296e+00
4.980754958957647228e-03,1.121553815564071098e-02,-9.796933210725129015e+00
4.954689524560532132e-03,2.345814063967441299e-02,-9.798700720634673900e+00
4.096075785161882796e-03,3.493671352204403419e-02,-9.796153847915306301e+00
5.307320727864517709e-03,2.994377346203400472e-02,-9.792508703171016293e+00
-3.508018931085380571e-03,3.933898899950460937e-02,-9.784713401204070848e+00
1.869238113040557446e-03,3.990679572985634388e-02,-9.791890319910885765e+00
2.705073578460895291e-04,4.831228250653419459e-02,-9.796767817706500736e+00
3.926328900296858528e-03,5.075351697518577093e-02,-9.785104183880545037e+00
-1.282144159445870388e-03,7.544614091139813239e-02,-9.798451344393873441e+00
1.115095694293169806e-03,7.654485610800804141e-02,-9.792643970281044830e+00
-4.470254777905923599e-03,7.853829550778985980e-02,-9.799489797156304860e+00
1.040413056275565733e-02,9.269336554908452763e-02,-9.792907627614152233e+00
2.995496337212111152e-04,1.111775994919270982e-01,-9.781274697748594704e+00
-8.031108952853220281e-03,1.133480947745968276e-01,-9.792820142091599678e+00
-3.491311802875604088e-03,1.209150599440790425e-01,-9.797185129597060893e+00
8.781113298222040925e-03,1.401772192239116033e-01,-9.784456647494979009e+00
2.390367092127162248e-03,1.455629668544649036e-01,-9.797189474097791617e+00
-1.427876856349432570e-03,1.619460808918280759e-01,-9.791129377288536162e+00
-4.773075313219500571e-03,1.732246694747713867e-01,-9.791486533103793022e+00
8.167254406454722837e-03,1.909104541310643333e-01,-9.787749480774136757e+00
-3.515217408503862415e-03,2.002299178770113042e-01,-9.792370627129175276e+00
3.952933755195466546e-03,2.098008165785733292e-01,-9.796804533661980230e+00
-3.177676814452579102e-04,2.280556424919152336e-01,-9.796619977806050983e+00
-7.880080665000385731e-03,2.409719655978053710e-01,-9.802189417159539175e+00
5.059469414214711608e-03,2.527064089700120086e-01,-9.780873430435050864e+00
1.024697153563406890e-02,2.844612964810462330e-01,-9.790085847806798469e+00
-6.405498649494581302e-03,2.925815998424950992e-01,-9.790696028081761426e+00
5.834102396028302898e-03,3.070722813927007633e-01,-9.781053983583730016e+00
-7.451459837842957026e-03,3.277196965242731852e-01,-9.793003721322030231e+00
-9.029468342202171677e-04,3.461074779021931502e-01,-9.789763510668285207e+00
-5.641885916748137601e-03,3.717229460238288818e-01,-9.792098478385323546e+00
7.844982466088928214e-03,3.798623690292100008e-01,-9.790035515579537773e+00
3.492939150489312878e-03,4.008254307149802242e-01,-9.795326584447948903e+00
3.119581247856329821e-03,4.268115461410421640e-01,-9.777625116750209955e+00
1.286033561690054505e-03,4.464017978711375401e-01,-9.780341662560219973e+00
3.903447665496085316e-03,4.548675172801391886e-01,-9.777563804331382613e+00
4.307815535512131595e-03,4.870899142635806700e-01,-9.786528314800017725e+00
2.924911039755604715e-03,5.135720145286331029e-01,-9.783567913325383003e+00
4.888543166009378521e-03,5.302749811191862506e-01,-9.783381261776213478e+00
-9.396018518168073892e-04,5.512108450174921792e-01,-9.780896178832795940e+00
-5.696716664071331884e-03,5.793046089882890604e-01,-9.767962095581113502e+00
1.900347332921388955e-03,5.921980439830795140e-01,-9.778151378182599274e+00
-3.037207514647246361e-03,6.260721556458737069e-01,-9.778818010939902550e+00
-4.361165927863123971e-04,6.538549739897948632e-01,-9.771223694533452075e+00
-2.278025460521570025e-03,6.797092850468356984e-01,-9.768442146670107462e+00
-8.878060140622799981e-03,6.981288649166369487e-01,-9.773151639915967692e+00
-4.154877104409799779e-03,7.235579073885953783e-01,-9.768941915649982377e+00
4.566172589074187285e-03,7.523831138865798573e-01,-9.763317636472962135e+00
5.041299491643374403e-03,7.726292192344652587e-01,-9.762497869843866027e+00
-3.368593206706132267e-05,8.120535901893153330e-01,-9.762649937707243097e+00
-7.274952818936814523e-03,8.305971210115642434e-01,-9.764425952804758779e+00
2.269833447115640265e-03,8.675835228175484692e-01,-9.765454787073366560e+00
-2.643820082999296522e-03,8.977269753201809754e-01,-9.755846485499436227e+00
3.239570967366431527e-03,9.326310253811521678e-01,-9.751334556507091023e+00
-7.512551025285212417e-03,9.584951900176826856e-01,-9.753235718604660320e+00
7.016653326745557993e-03,9.985880072508619421e-01,-9.743104429038602632e+00
7.079712846575092087e-04,1.018271910144721515e+00,-9.746034767718388281e+00
-7.056422779641600106e-03,1.051066540964599838e+00,-9.732605775860523778e+00
9.884436341723710009e-03,1.083953957169111026e+00,-9.733595056467072126e+00
-1.413913721507500162e-03,1.107992437485006088e+00,-9.735609580827912168e+00
-8.830646026754949973e-03,1.150974940234722466e+00,-9.731164879979317561e+00
5.135664636356487324e-03,1.182212045028220970e+00,-9.714285294058322862e+00
-1.181055347277479642e-03,1.213299936051324135e+00,-9.710078898636361089e+00
9.814297335744969625e-04,1.247934967943955309e+00,-9.713129916024698218e+00
-6.676693716830607063e-04,1.291701081670752371e+00,-9.703087638214402233e+00
7.852055106463324413e-03,1.327828883199081433e+00,-9.708036919830911771e+00
5.437442662470817582e-03,1.363696929449887074e+00,-9.696907771038727475e+00
5.755756264807308353e-04,1.397199806699245039e+00,-9.687042371237678751e+00
-6.722609343265623441e-03,1.429341356466753421e+00,-9.690016399931861812e+00
-1.900828858516396018e-04,1.464023627016018736e+00,-9.690128168425991007e+00
-7.324609595973651010e-04,1.507489798365052147e+00,-9.678296856301672690e+00
5.194654183255147106e-03,1.542015674978026496e+00,-9.675486803616006881e+00
8.473615776571224306e-03,1.570779440650043046e+00,-9.664807021520966046e+00
4.884284162118559050e-03,1.614013156400375459e+00,-9.646259618821442672e+00
2.620680736849863041e-03,1.662945935768548100e+00,-9.648982914180212589e+00
-7.160141575402241988e-04,1.701945379620374066e+00,-9.655127040886883449e+00
-1.250892632242189134e-03,1.741800056878090697e+00,-9.638414949445914814e+00
2.261039355803243266e-04,1.772935095991091003e+00,-9.627711755924698522e+00
-8.436708002665041159e-03,1.828111551943126578e+00,-9.620193287997190978e+00
5.677248278248616178e-03,1.865538870220950995e+00,-9.616146012158905521e+00
1.317319213766020899e-03,1.908852254622894318e+00,-9.606025022995225982e+00
-4.036874812906213021e-03,1.951719217164489484e+00,-9.606977630716993843e+00
-6.575238337451689598e-03,1.984554574606809396e+00,-9.591421390185674412e+00
8.267553114131694298e-04,2.029906812657859660e+00,-9.582417394371738339e+00
-5.617888321112059387e-03,2.080827397674239965e+00,-9.565719946568567167e+00
6.105136111163430614e-03,2.123489410879709549e+00,-9.569076408570305503e+00
-7.852154643905746509e-03,2.164377356838860234e+00,-9.548090577869986717e+00
-1.485735057688164322e-03,2.221362696098781786e+00,-9.540092607411013503e+00
-3.010133454903679735e-03,2.268583777618524255e+00,-9.519415922845544387e+00
-4.940783213301959235e-03,2.309230187793705369e+00,-9.530711774717888218e+00
8.836146851343863046e-03,2.354372147116458258e+00,-9.515102104291102592e+00
3.532983923370857163e-03,2.403628664598485454e+00,-9.498657903994839558e+00
3.422769352112991961e-03,2.448579807725228985e+00,-9.479542480360169776e+00
-3.490660634263871055e-03,2.500518310936340249e+00,-9.472281720354606804e+00
-3.289953437000754134e-03,2.546977775450236070e+00,-9.457793833040426534e+00
-9.266581694750244177e-04,2.600009436451896860e+00,-9.446208703324977307e+00
-1.901301611277910440e-03,2.643175124501663920e+00,-9.430254839933915889e+00
3.176488584825888552e-05,2.697308158105940823e+00,-9.412315768303997743e+00
-8.962793176254969102e-03,2.743836557486397876e+00,-9.389150410717332917e+00
9.833774629837714956e-03,2.791860094166442874e+00,-9.388075676030121386e+00
-2.312310563255059927e-03,2.849192869651254068e+00,-9.370269604548775888e+00
-2.055396344084567395e-03,2.889001212571656652e+00,-9.358576240459544948e+00
-6.144254507867670696e-03,2.955982976744370827e+00,-9.340917561090977372e+00
-2.476414737146285551e-03,3.000234320058137172e+00,-9.326133349871087219e+00
-4.128620420559690751e-03,3.043051634427831331e+00,-9.311916114315009096e+00
-7.516806220838448231e-03,3.104827366172158598e+00,-9.295364899130502678e+00
-6.511824637107614319e-03,3.153670372076965212e+00,-9.280152742331699400e+00
-4.725393365551125435e-03,3.200734096204274071e+00,-9.259225730010763655e+00
3.385430406448848139e-03,3.260295249231432990e+00,-9.239479407324173721e+00
-2.723006012451164269e-03,3.312487167406590327e+00,-9.217370010642220279e+00
-2.591427706187432196e-03,3.378613555627678178e+00,-9.197985673209640112e+00
-4.971938832119018187e-03,3.420435707037439599e+00,-9.183970801360098690e+00
1.797322033662886133e-03,3.466086982795006488e+00,-9.151813749405642184e+00
6.982616441416936506e-03,3.530868795490575529e+00,-9.134989831997774701e+00
-1.053215406718224778e-03,3.583683839120277437e+00,-9.110055777043273295e+00
-1.241934068629177955e-03,3.644665534360007619e+00,-9.088900431846584027e+00
-8.012095631010891436e-03,3.694397359149076632e+00,-9.065180119829205907e+00
-6.410153391471936496e-03,3.749588411120784670e+00,-9.049983794419992122e+00
4.110071845616283456e-03,3.806744125291782410e+00,-9.030648549967045469e+00
3.008961231978097423e-03,3.862390697385527982e+00,-9.010620641819540921e+00
8.493099112873705656e-04,3.906592976360761416e+00,-8.977471205086375861e+00
1.055681101687878758e-03,3.962202782809657542e+00,-8.959846608020384906e+00
-4.265809693900705739e-03,4.006866904357255343e+00,-8.933506371233846721e+00
-1.320160147751221758e-02,4.052809384025983341e+00,-8.915213369265263310e+00
1.736026574174074927e-03,4.114111070215306754e+00,-8.889352070291781871e+00
-8.145538152841023602e-03,4.175943096595304382e+00,-8.874991769273195885e+00
-1.980454362298389188e-04,4.224899782374928137e+00,-8.842106495215571016e+00
1.926642243617714438e-03,4.280140138754553014e+00,-8.816162181611208126e+00
3.205591991914621009e-03,4.318948963140794461e+00,-8.792784366660720607e+00
4.500277075248589054e-03,4.380617282271774826e+00,-8.748299998593132898e+00
-6.746626804626666869e-03,4.421650464576066142e+00,-8.732878173718180648e+00
3.760145188529390343e-03,4.480320164386424331e+00,-8.708128252393363411e+00
-2.180607428434202816e-03,4.527589450004354532e+00,-8.687338594900378297e+00
1.340418325804209904e-03,4.567669891921443792e+00,-8.654451152627011368e+00
-5.386604568221281357e-04,4.618982501778975625e+00,-8.630464213520342653e+00
-8.891711677733730307e-03,4.665271172073532036e+00,-8.605078150582018637e+00
1.118788695715908742e-02,4.717871651417940626e+00,-8.579814127818016445e+00
3.479821386161122306e-03,4.766299417793016246e+00,-8.556740015946312283e+00
1.009370788677638707e-02,4.810323309183520912e+00,-8.526247897603466797e+00
-1.879764486249925438e-03,4.862450074707421521e+00,-8.512861193497355927e+00
2.997363101050636892e-03,4.892457683732056140e+00,-8.485538509519201966e+00
5.840247565614665147e-03,4.955619499607103684e+00,-8.447691961944213901e+00
5.119374486039610789e-03,4.994683427815682641e+00,-8.428641027463429580e+00
1.332199943781951085e-02,5.049569271610446997e+00,-8.404685522607282522e+00
1.580739594048062927e-02,5.083213951409199183e+00,-8.370036905553957851e+00
-9.219267038353504140e-03,5.135647146989183121e+00,-8.336817593897961842e+00
-1.746058211898094108e-03,5.189139135070110598e+00,-8.323456143695809217e+00
5.731651752852080957e-03,5.223050042940394988e+00,-8.287615345945528844e+00
-3.357286621032605674e-03,5.267179721364785294e+00,-8.246707159297150369e+00
6.404404357707472843e-03,5.302973060138972627e+00,-8.235046681909969024e+00
2.081696160024799035e-03,5.357717184442670977e+00,-8.212703804549262188e+00
-1.537586188042213819e-03,5.390176118292481888e+00,-8.175151964553080575e+00
3.591218280576200916e-03,5.433316320009092593e+00,-8.151119130593810880e+00
-1.115670524178924254e-04,5.479254254949391445e+00,-8.114464037742411762e+00
-1.549323981270935621e-03,5.518910379886971640e+00,-8.089891563192939117e+00
2.166588159822106178e-03,5.567924161890331014e+00,-8.058015510588788288e+00
5.329807394649490812e-03,5.601167179431958409e+00,-8.045505732898151408e+00
1.253079959757632568e-03,5.643957535178685703e+00,-8.008849110108355873e+00
6.373958357943229625e-03,5.685436452050049105e+00,-7.971180134119649985e+00
3.024287347660039715e-03,5.712208968827289901e+00,-7.947674543334602326e+00
6.883457127617481630e-03,5.760028722167080062e+00,-7.927232333806505160e+00
1.906129367249253474e-03,5.805726695312554142e+00,-7.888795260728115544e+00
7.709783757502375280e-04,5.843754756073087364e+00,-7.863349152074690096e+00
-2.821780302578170280e-03,5.867634625083881339e+00,-7.829649235001051366e+00
5.548526428198004637e-03,5.917516672552619816e+00,-7.809928271416922918e+00
-8.737775508639038582e-03,5.951803645672555376e+00,-7.774574031506863214e+00
4.590582019909034660e-03,5.996889534678460976e+00,-7.744468144871659909e+00
-2.060135992942718330e-03,6.024545398326221601e+00,-7.711797963953587853e+00
9.425887566170262563e-04,6.057569711225216480e+00,-7.687414457628500841e+00
1.273512397057078964e-02,6.101777892048459329e+00,-7.663593774474132481e+00
-1.073352883629508613e-03,6.137940157412229425e+00,-7.629148993655908484e+00
-7.157597614214870722e-03,6.166879326221142321e+00,-7.611976747277199529e+00
-6.034016947549609641e-03,6.215648569617194141e+00,-7.579666727835025597e+00
-4.986323099329085726e-03,6.236015884049282754e+00,-7.552607407972079301e+00
-8.736385523627512167e-03,6.269517389204739111e+00,-7.522520375308188179e+00
-3.557573633068832671e-03,6.312448126702790319e+00,-7.497283449728438853e+00
-5.650849864084065040e-03,6.345598403570050117e+00,-7.467374401090246749e+00
-2.596836950759713082e-03,6.386060306989010726e+00,-7.422783600330346232e+00
-1.442310679414967028e-03,6.411691943971761454e+00,-7.402751755227822805e+00
5.990218110473167351e-03,6.438170239044030296e+00,-7.386290097061501747e+00
-1.272323810811701317e-03,6.471833348045535672e+00,-7.338665965532403135e+00
-1.501588941675649231e-03,6.514015253696462615e+00,-7.311987078501892334e+00
2.110149219694540303e-03,6.543711941474900762e+00,-7.296586509893123740e+00
5.706742213097848069e-04,6.572431467711579600e+00,-7.254957337414660756e+00
5.087452276493977139e-03,6.610433098025289667e+00,-7.227879105619954281e+00
4.969334056648501592e-03,6.639348480632835781e+00,-7.197941261158584680e+00
-5.132226433680113671e-03,6.673184865689502310e+00,-7.170776678118977010e+00
-4.942611587317037418e-03,6.706614208287824397e+00,-7.135686494927907297e+00
3.494443956673987713e-03,6.731926722218663173e+00,-7.113177625529554682e+00
-1.200284349563401258e-03,6.762347944380265652e+00,-7.089715333917280482e+00
4.048686330830770022e-03,6.786089767257504235e+00,-7.054448185774528923e+00
6.052550217071049794e-03,6.826394565389239055e+00,-7.023491947625156051e+00
8.408009414598054815e-03,6.851807388371439878e+00,-7.002352205299180454e+00
-7.348374727107394658e-03,6.886770960740047798e+00,-6.974313056165934555e+00
2.428164092463654480e-04,6.913548075802245840e+00,-6.945513506560725858e+00
-3.785993138770158209e-03,6.938421896657532173e+00,-6.916895935351266900e+00
-4.213297458418996735e-03,6.973516280397661582e+00,-6.884139001942022773e+00
6.176844393405805890e-04,6.995265876447553488e+00,-6.861857703907480399e+00
-3.640561927189575175e-04,7.028042670779707457e+00,-6.828332585271310151e+00
-1.526270524583490289e-03,7.054033212216952009e+00,-6.798070996859364001e+00
7.144377074274948537e-03,7.081669880150820440e+00,-6.763037288827669968e+00
1.159140163554735854e-03,7.109191603811315652e+00,-6.736601169904119502e+00
5.808124988432275711e-03,7.128976170298686021e+00,-6.714828274951165632e+00
-5.844070714046648886e-03,7.155190747021872077e+00,-6.693821352736664565e+00
-6.083645256222790752e-03,7.186844720041174917e+00,-6.654541767073142822e+00
2.544175392344373218e-03,7.213125500977614735e+00,-6.622332094213616571e+00
-6.728054227073550740e-03,7.233353343129089730e+00,-6.598785144453665374e+00
-9.668547024536517341e-04,7.269131013959929000e+00,-6.564003934422013131e+00
1.578885523779254810e-04,7.291063964814990861e+00,-6.542908957330134001e+00
3.118343724455250980e-03,7.319715032755454764e+00,-6.514642287542520727e+00
4.609132759696107397e-03,7.336928767996529821e+00,-6.487536931303039545e+00
-2.359996722520790215e-03,7.360046541195735870e+00,-6.458093752601771875e+00
-2.986749950931111980e-03,7.387471987936782725e+00,-6.429932260643576036e+00
2.046469306220578821e-03,7.409679268680047670e+00,-6.407007573237342157e+00
-1.023504136892632596e-04,7.438608315959671202e+00,-6.378538955219222650e+00
-6.431570800901238727e-03,7.467721719803402713e+00,-6.341762673250522120e+00
2.413748004760921106e-03,7.478481121265036613e+00,-6.311961738958151713e+00
1.655078647886294892e-03,7.500106292798590424e+00,-6.286841307289481762e+00
4.900929259151431266e-03,7.527808505923291982e+00,-6.272982322923247978e+00
-2.270273994392076012e-04,7.548243119302538773e+00,-6.233594355556746791e+00
-5.931787263310445493e-03,7.580483867617179072e+00,-6.216692540455530214e+00
-2.269728620608273476e-03,7.600759128201210579e+00,-6.176171898554761341e+00
8.175848998726937406e-03,7.612654592968358003e+00,-6.154042850649719121e+00
5.650436876416378706e-03,7.641927274792755576e+00,-6.123728602242726637e+00
7.962946669853044820e-03,7.658669499743600895e+00,-6.108104189292009600e+00
4.104281154627143109e-03,7.683524449753004859e+00,-6.077171079111709062e+00
2.649605390944424592e-03,7.706045600444134003e+00,-6.047942852285973281e+00
2.218943341590880712e-03,7.732806249123270526e+00,-6.027190690593968725e+00
4.203574443320048926e-03,7.748672246528654384e+00,-5.995583502962727351e+00
-9.930110582175571011e-04,7.766099385393599341e+00,-5.970027990066954615e+00
6.663548244356483005e-03,7.778875413140409201e+00,-5.924019238729265169e+00
4.179086542059087979e-03,7.798323084014564976e+00,-5.909461489481968144e+00
5.813558089459424164e-03,7.829409501503473479e+00,-5.884728995450230649e+00
3.442599193512105825e-03,7.847662579265738181e+00,-5.861469176590583530e+00
3.707580764813226890e-03,7.866932224679146657e+00,-5.837209461877488792e+00
-2.020983910382441809e-03,7.885800174391153661e+00,-5.807050341723853037e+00
2.012425051806584608e-03,7.909500629121226645e+00,-5.786282559370003575e+00
3.561267413252370163e-03,7.916735744970907263e+00,-5.747773835617760341e+00
7.758792551190076686e-04,7.941768239076280267e+00,-5.729376625350514729e+00
1.033855784466226196e-02,7.966927333960996727e+00,-5.701100672238254674e+00
-6.318256585576336945e-03,7.987418490493765511e+00,-5.671757471771848635e+00
-4.548464939097789442e-03,7.995993737050230088e+00,-5.652257888296003507e+00
1.395790987426370105e-03,8.009585178024282826e+00,-5.619693722579326867e+00
-9.109151760311275971e-04,8.045216050308948041e+00,-5.591920305834016780e+00
-3.925647575406849762e-03,8.055138722158535103e+00,-5.563199874145051460e+00
-4.090181474703908152e-03,8.070973986142739420e+00,-5.554122790175086699e+00
-6.872182991249835803e-03,8.096377374839303087e+00,-5.520073791187848578e+00
1.136188901780968430e-02,8.114075703597368516e+00,-5.499255531447823309e+00
-3.418736546056748340e-03,8.122804006845209202e+00,-5.472887855611875629e+00
-2.447440722055594514e-03,8.143928166231432897e+00,-5.444224917449844270e+00
8.381979181271162482e-03,8.166598935071252896e+00,-5.426073398447006646e+00
-2.911939595576043885e-03,8.170879112612817963e+00,-5.395688680608387244e+00
8.065219580731591495e-03,8.186164303400630615e+00,-5.374005002018244603e+00
5.403536127116085903e-04,8.214721247086499645e+00,-5.345691855469788756e+00
7.037119973247698461e-04,8.224045567912307675e+00,-5.313591836915628974e+00
-5.563433299324986245e-03,8.226848795780220769e+00,-5.295146902252948706e+00
1.027259514215191679e-03,8.255931924733841853e+00,-5.268742544256229010e+00
1.387284097297364523e-03,8.261400120322882401e+00,-5.243122446569532080e+00
6.272404154912266695e-03,8.286729872649338802e+00,-5.223658369532504508e+00
-8.650199511117553572e-03,8.301501027919531595e+00,-5.202035296801117426e+00
5.863784792615063350e-03,8.313917333984980118e+00,-5.186229355047559331e+00
4.736633626328745454e-03,8.334376342943160765e+00,-5.141276515303550454e+00
-1.786278420712217752e-04,8.338930885855038611e+00,-5.120375734955602276e+00
3.359379412014210087e-03,8.366152914211850700e+00,-5.093187503561594554e+00
9.215731744280357407e-03,8.365727444591609441e+00,-5.078437398316404838e+00
-5.177005360938435321e-04,8.395743849689134564e+00,-5.049533238875299368e+00
7.289960394136445546e-03,8.401819621190979248e+00,-5.028694999865175319e+00
-8.189766682759117705e-03,8.426357118645125155e+00,-5.005601152250632957e+00
-5.879783698332916638e-04,8.431969010727993208e+00,-4.981239418230070548e+00
1.147471971578782612e-02,8.449506963597775311e+00,-4.957957793608720465e+00
-1.666645502178537921e-03,8.457581093553704576e+00,-4.930950473901171804e+00
1.328932618318845243e-03,8.472314531037161700e+00,-4.919366688901877005e+00
4.933472379132244207e-03,8.494438078654322766e+00,-4.887219749706892991e+00
-7.673749346520119564e-04,8.508359017217212994e+00,-4.869168678258833260e+00
2.114446569455128312e-03,8.518917056337199867e+00,-4.838675176461292970e+00
2.418401872125981386e-03,8.527759803345423606e+00,-4.816833097726392232e+00
-2.711195450339433724e-03,8.548712548995297311e+00,-4.796323086622455101e+00
5.872340344762685613e-03,8.547614302300328148e+00,-4.772855369173290008e+00
1.628050808322080954e-03,8.573672730694047672e+00,-4.759515544454943736e+00
-1.772968626092661639e-03,8.581765663836945279e+00,-4.722475399496958381e+00
-5.550966551910068922e-03,8.591895688984307000e+00,-4.712203414475837349e+00
-2.881512782819028486e-03,8.615602466191976561e+00,-4.682509842306187053e+00
1.055980818542503075e-03,8.626910051334514051e+00,-4.660249110736090827e+00
-3.466295038790815058e-03,8.620921802707089299e+00,-4.636015371374773153e+00
-4.236848354913347499e-03,8.636528781393955967e+00,-4.614219161187234519e+00
2.602305964690273046e-03,8.659057398119903937e+00,-4.589632945189099367e+00
6.776795976841562888e-03,8.654205647611849628e+00,-4.576273343296574758e+00
-6.271455080768555471e-03,8.668358631460511887e+00,-4.547027860061929161e+00
7.021283702327895185e-03,8.685175255762919377e+00,-4.520740777749988837e+00
-5.102687421643007683e-03,8.696069350071025994e+00,-4.495944853389346463e+00
7.631049599341683046e-03,8.699684845479577433e+00,-4.477253951908615193e+00
-5.920464976233628940e-03,8.726801730388990208e+00,-4.455469030089221683e+00
1.019462583291141575e-03,8.734655256008961643e+00,-4.436310894440201658e+00
2.949302908794039155e-03,8.739777088918700088e+00,-4.411363550495853048e+00
-8.602426768150435443e-03,8.751121674805720119e+00,-4.389504770385651788e+00
1.147533272214858006e-02,8.768087917567530809e+00,-4.375830359841767603e+00
-2.448229506002542501e-03,8.780679386936085962e+00,-4.349321829283160135e+00
8.762401355491986066e-03,8.786974614659477822e+00,-4.337613228360329032e+00
-4.467135673937257028e-04,8.794716414251498193e+00,-4.301537344571055854e+00
-8.630740559235660844e-03,8.816942143801668408e+00,-4.285150607712610693e+00
-7.015825914260502214e-03,8.816995755672669688e+00,-4.273672081875083961e+00
1.656414014575806858e-03,8.830085028750144005e+00,-4.244022062963026087e+00
4.594485350357434619e-03,8.837592253487994043e+00,-4.226473850958314848e+00
-3.920458757074936525e-04,8.847331674520303224e+00,-4.210466196769175440e+00
8.749761346787145871e-03,8.862774258115148740e+00,-4.182437215336431535e+00
-4.480794502582848352e-03,8.857746700036988940e+00,-4.163643447630738237e+00
1.195585367056963477e-04,8.868917558743603990e+00,-4.139568258358476527e+00
-2.615212640055015070e-04,8.885063402795264409e+00,-4.131924283757562044e+00
3.747445124535297295e-03,8.895553789070071105e+00,-4.104118203222872019e+00
5.553651010443309138e-03,8.898224247924746422e+00,-4.083751704850200781e+00
7.067171161317439138e-03,8.912256480149899573e+00,-4.059030880278894138e+00
3.948622347990850268e-03,8.923036033917083998e+00,-4.036456117634500629e+00
-7.707442793672144611e-03,8.931831075250276086e+00,-4.029221804274852659e+00
-2.383051879982051816e-03,8.934355183850655635e+00,-4.002349179713264427e+00
-6.121017712485984572e-03,8.945220756387429972e+00,-3.981296198506230066e+00
-4.828912313304530197e-03,8.953164971061969624e+00,-3.962928271662918167e+00
4.294488834506223623e-03,8.969361359773250442e+00,-3.946502660374050730e+00
1.584698209193459700e-03,8.984739187694914975e+00,-3.926417120335002675e+00
1.057311830471588734e-02,8.980576916830896650e+00,-3.905230551860169541e+00
5.987199198739779314e-03,8.992242301814012961e+00,-3.883280643821410472e+00
-6.771423950368368359e-04,9.000525700874851154e+00,-3.873252766990552320e+00
-7.314800110620137824e-05,9.010000918218977972e+00,-3.851485438839341136e+00
-2.390016689420523290e-03,9.012711442921629512e+00,-3.829745656690261235e+00
1.308136847247715236e-03,9.026326099624425225e+00,-3.811103493080532978e+00
-6.299805874319233667e-03,9.027576438318943630e+00,-3.788428121637420709e+00
2.618739045688784923e-05,9.044670098479608455e+00,-3.771231172134116072e+00
5.820912392433891074e-03,9.042046860282676235e+00,-3.741857618280552078e+00
-6.655419884891520393e-03,9.053209852862050155e+00,-3.735389760795797542e+00
1.501634597187748643e-03,9.055957110881324823e+00,-3.716863126995279654e+00
-3.771549654306137825e-03,9.075318253373438893e+00,-3.692831726829805206e+00
1.730293210960046676e-03,9.071353335081097313e+00,-3.683743339862513011e+00
7.286477976980339048e-03,9.089300081532867281e+00,-3.659541581320895354e+00
1.974817952933331441e-03,9.091554834281028619e+00,-3.638531126646361802e+00
4.038168663379330600e-03,9.104943108015703501e+00,-3.624622187747145841e+00
8.964123793497933215e-03,9.108874711983608208e+00,-3.607209383823949178e+00
1.838034165924519459e-03,9.115329815826807902e+00,-3.591332137110901268e+00
9.231928532408012131e-03,9.126379452102236556e+00,-3.565619557211134882e+00
-4.688312999082507732e-03,9.126617121389852372e+00,-3.547436316521826782e+00
-1.109450826325255636e-02,9.136961222743288147e+00,-3.533423278435260162e+00
4.383682664230829917e-03,9.138539866620741137e+00,-3.518359631237130358e+00
2.136901905339291460e-03,9.148751996426533140e+00,-3.498534409675833512e+00
8.682363204045176822e-03,9.157149810140744250e+00,-3.483890102846939119e+00
-5.745003955252163223e-03,9.166187778893963412e+00,-3.460719827083533318e+00
-2.684712495810797489e-03,9.171791059114948297e+00,-3.447911513932169214e+00
-2.845323143502411639e-03,9.184364530644215208e+00,-3.426898296859388626e+00
1.212124076993856617e-02,9.180209303435182377e+00,-3.412526359830169387e+00
4.762775254849695508e-03,9.181910815976779716e+00,-3.388117405117086367e+00
7.030759539825929541e-04,9.193921309929674379e+00,-3.384502818332564722e+00
-1.145782807085750886e-02,9.201092966972417742e+00,-3.354525531312885889e+00
-5.321071692904083203e-03,9.215872338345153736e+00,-3.346083853552464404e+00
-2.208920561380491206e-03,9.212894223302315666e+00,-3.324550703093829274e+00
5.251935064934005332e-03,9.213234727704334048e+00,-3.319751378738784009e+00
5.193234068969250147e-03,9.225673810099872085e+00,-3.286555326434300373e+00
-5.836244855681123160e-03,9.233192556920169380e+00,-3.278866436952549979e+00
-6.235533452409731774e-03,9.245534666022635406e+00,-3.255539302807885615e+00
4.018752560499980957e-04,9.239923579212717897e+00,-3.247110004181596565e+00
-7.214343692968998821e-04,9.251929873209514099e+00,-3.229685714571562727e+00
9.770323696122218057e-03,9.252846982466392589e+00,-3.212126244192085256e+00
2.875711822565905993e-03,9.263212982590482980e+00,-3.193594340552121214e+00
-4.570353203182906136e-04,9.271256782948338326e+00,-3.176332691397113717e+00
6.698585741194034056e-03,9.266504729103944626e+00,-3.156533675056340638e+00
-1.794343544026337760e-04,9.266790919320763820e+00,-3.141617739697896372e+00
9.829412062560364052e-03,9.284172287024761161e+00,-3.121742340484437328e+00
-8.701193452606056228e-03,9.290229229222077834e+00,-3.119901291792381404e+00
8.773498874154729522e-04,9.299704490814388436e+00,-3.103822834257275343e+00
2.428197632093708532e-03,9.286579871491158045e+00,-3.083458581016561340e+00
-3.611933472140690157e-03,9.302416519051359245e+00,-3.059080725015997704e+00
-8.434230505440783870e-03,9.306111406862109803e+00,-3.058210362033410235e+00
-2.071957892136625998e-03,9.312244346316958854e+00,-3.045320046976915940e+00
1.927402363772569727e-03,9.325297471179007758e+00,-3.026385011396008462e+00
-1.860842223611854649e-03,9.322084459880933593e+00,-2.997402905724356970e+00
2.950603064225234065e-03,9.328400681422323260e+00,-2.992640942652631697e+00
1.682205640493694525e-03,9.331495349635021697e+00,-2.968045426021124644e+00
1.320111376986681895e-04,9.340457523816159124e+00,-2.955003068267075150e+00
3.364617588365788250e-03,9.337257479563017881e+00,-2.946535835487074984e+00
4.244509020923306966e-03,9.345964899459680453e+00,-2.938588903856381496e+00
6.797662775872250450e-03,9.361573906829615765e+00,-2.921053473910121046e+00
1.256650329184486048e-02,9.352122262256626684e+00,-2.894201008872354208e+00
5.101354490533274375e-03,9.365547444780938591e+00,-2.894132063563424229e+00
-3.028777052153952022e-04,9.372488740938322849e+00,-2.861891250203119963e+00
4.390931899584964507e-03,9.373328087193547375e+00,-2.866695690459456269e+00
-2.011120906905312922e-04,9.372247895410655616e+00,-2.848320580124242607e+00
1.814711525928585506e-03,9.368470446158420728e+00,-2.823726201615959663e+00
3.310844817948164348e-03,9.379931300842464736e+00,-2.815821547249608425e+00
-1.957636938223218095e-04,9.387628902244809836e+00,-2.800879797897817713e+00
-2.352961118453943470e-03,9.389898974510039409e+00,-2.790635189442714825e+00
4.625375546578306199e-03,9.404402145141856906e+00,-2.769347359707411194e+00
-1.571160692344367431e-03,9.391671318153413495e+00,-2.749307556759562843e+00
6.228707587589563804e-03,9.403278840696575713e+00,-2.739455502983555224e+00
-1.990033120576664531e-03,9.417321260707057107e+00,-2.732636428935038442e+00
1.068354621403877665e-02,9.413497549106073947e+00,-2.704566088326097795e+00
7.316223995950998926e-03,9.417650689288588950e+00,-2.694969022717107698e+00
-9.858654797729656319e-03,9.414842666465375487e+00,-2.690360804282425189e+00
-3.999515038368319300e-03,9.424025858086643836e+00,-2.677552410458984511e+00
9.321078714855839456e-05,9.423253128719293770e+00,-2.657230622782851714e+00
-5.516210291977934575e-03,9.429981928990141427e+00,-2.649650544013643305e+00
-3.064802814279844658e-03,9.431150202891195988e+00,-2.629068288005465881e+00
3.401601267771670913e-03,9.433234934384188364e+00,-2.609351977683201707e+00
1.913117292308098068e-03,9.432747500627288062e+00,-2.604787671748897360e+00
5.134746055116354985e-03,9.453853171570990810e+00,-2.585409897457075612e+00
5.176245116739587072e-03,9.448928564772462124e+00,-2.574069134053795782e+00
4.237683563371455291e-03,9.451765576679765246e+00,-2.567039192399645842e+00
-6.444735791335440798e-03,9.460438377932714360e+00,-2.547983905953068895e+00
7.753690160398673224e-03,9.460153983370782171e+00,-2.530586417877304317e+00
3.376228139569266082e-03,9.458917646423108394e+00,-2.523593489973443127e+00
1.106999694795829034e-02,9.468161742368421230e+00,-2.514521174830228745e+00
-4.567160046501280921e-03,9.466577065304681682e+00,-2.499839255381788305e+00
3.201060451189715727e-03,9.476501645103061477e+00,-2.482320813079030852e+00
-2.965618809127501705e-03,9.479273207011207347e+00,-2.478451326629942386e+00
-6.092483593308156177e-03,9.482846499168065435e+00,-2.459280837131578412e+00
8.503523502810712148e-03,9.486369041944934466e+00,-2.446816069439024410e+00
-1.200819264719300622e-03,9.485197391320765448e+00,-2.440178582976924027e+00
-2.268902764978387217e-03,9.481329018242444562e+00,-2.425271061909043624e+00
-1.519463564241029310e-03,9.485441491900399313e+00,-2.415201035911575644e+00
-2.017291558607623748e-03,9.489423728102812206e+00,-2.395796623660152225e+00
-2.086129111777412781e-03,9.511586511181931769e+00,-2.389827270014466265e+00
-6.707522583535953549e-03,9.506694670961611138e+00,-2.368723272334527952e+00
2.211533793623653241e-03,9.505219055639123837e+00,-2.361354278520547023e+00
-2.345306722897332833e-03,9.515088846242212739e+00,-2.347018405836619692e+00
5.837043159714285293e-03,9.516116341740607609e+00,-2.330943810323300891e+00
4.070036132559884043e-03,9.506700748527160627e+00,-2.324096020236965821e+00
1.029265848581581259e-02,9.517668568064538093e+00,-2.319121334101851062e+00
2.751779037287042148e-03,9.523749511654440170e+00,-2.301633178373768907e+00
-3.968409834233553764e-03,9.517721803494023192e+00,-2.291363888005713001e+00
1.569192863486184317e-03,9.530176822456207120e+00,-2.277620798383243717e+00
9.726385553848014912e-03,9.525972890462144349e+00,-2.272368207509424476e+00
-2.639326983617136090e-03,9.535464020104148730e+00,-2.258536532388194740e+00
-4.495284185164011292e-03,9.533610772882674667e+00,-2.240953113152792664e+00
7.029661200551883676e-03,9.536377769159033235e+00,-2.236554226895792308e+00
4.228643511364737692e-03,9.538258017295174085e+00,-2.219239421249658673e+00
5.078996104222977155e-03,9.542254989002788790e+00,-2.210420439689852579e+00
1.857337577947220817e-03,9.542067237557471771e+00,-2.201387653995226401e+00
9.573994996941039004e-03,9.550101032041949267e+00,-2.193163379701237758e+00
6.932314772642846588e-03,9.551846189977677426e+00,-2.172255226894269864e+00
4.336585640621425271e-03,9.554510175030973329e+00,-2.159155609659562103e+00
7.066218216783733954e-04,9.551248842837132713e+00,-2.148944002403784914e+00
7.018228139177160735e-03,9.561140231226081809e+00,-2.139572025032314695e+00
-8.147387281552117633e-04,9.556333716217125129e+00,-2.121761922918893539e+00
5.551662382056602243e-03,9.564479132865905342e+00,-2.116594245249317385e+00
7.935933507740236190e-03,9.569897028417004847e+00,-2.114538920229249719e+00
-9.788030874574322332e-04,9.563646385169274566e+00,-2.098969939496918347e+00
-5.178166050278420855e-03,9.571188330592189430e+00,-2.086361878702904349e+00
-1.541825276155177858e-04,9.569616721813448024e+00,-2.078872401293496708e+00
-8.226139417494924416e-03,9.577592397087180132e+00,-2.064673863802851450e+00
8.577729065799295782e-03,9.579511651934037531e+00,-2.052449553730971932e+00
-5.403021202810270353e-03,9.580222550293749251e+00,-2.044738787539182034e+00
-2.850304569119734097e-03,9.589738772386803944e+00,-2.030146556675799907e+00
-4.536064124936916957e-03,9.586903458220618290e+00,-2.017054328797910134e+00
-5.943468370564184734e-03,9.587982724037862781e+00,-2.017131824746715818e+00
-2.528110930668434758e-03,9.584773038943076529e+00,-1.998263345643952693e+00
1.369517342082291443e-02,9.584125609010220259e+00,-1.983175367851058857e+00
4.543306952462955288e-03,9.587538161453503349e+00,-1.985000824970114985e+00
1.986743516662203704e-04,9.589468520608781077e+00,-1.960621498499419246e+00
1.239721536369593107e-03,9.596334529710636829e+00,-1.951540381179421635e+00
1.022191272177882561e-02,9.594393586890427983e+00,-1.939704874230960385e+00
-6.235071694291861866e-03,9.604934987098115329e+00,-1.946444196512835401e+00
-8.054155408211542168e-05,9.610413928286387630e+00,-1.925652269205348821e+00
-3.039325144366692485e-03,9.609173028325081134e+00,-1.920621060818659798e+00
-5.215671062936307056e-03,9.613215768200291222e+00,-1.900406490278875538e+00
-5.272640521565685919e-03,9.609938588738563325e+00,-1.901845409780179574e+00
1.544590288242877248e-03,9.616952178355763436e+00,-1.896387352634907097e+00
2.266171856102263717e-03,9.620700932900689395e+00,-1.879100041607670413e+00
7.465948142876864882e-04,9.620971234519593906e+00,-1.875056797796258667e+00
-4.562588923477232418e-04,9.616464354575452234e+00,-1.853197846292077733e+00
-2.169953874381271453e-03,9.621267827561336361e+00,-1.856897207611043710e+00
3.244036561614449445e-03,9.617234128147792660e+00,-1.843358094349246690e+00
-1.057266136486885617e-02,9.620970921016562372e+00,-1.833759270255919116e+00
2.192534520982225565e-03,9.620878781177520267e+00,-1.826876702293591670e+00
3.660298154735216374e-04,9.618136147038789829e+00,-1.807913072117860009e+00
-5.577801494028052261e-03,9.630215249958093082e+00,-1.804850560668584736e+00
7.182383607893957043e-03,9.626780887733318082e+00,-1.800610438531243140e+00
3.387366198184987246e-03,9.624867640364197285e+00,-1.787469977885340899e+00
-2.726044019506445454e-03,9.623954412042420969e+00,-1.779555175168225256e+00
6.883096603668491069e-03,9.638683982643836856e+00,-1.766592471588307900e+00
1.108333372205695709e-03,9.639251189751949056e+00,-1.749558473574075457e+00
-2.786128037332317488e-03,9.632793846301101581e+00,-1.754599856605143726e+00
-7.208272869929838178e-03,9.646602062430181590e+00,-1.743688845799258313e+00
3.567578511944944838e-03,9.635917853915811904e+00,-1.724223505679660651e+00
-2.820015851660289535e-03,9.646404794581373565e+00,-1.720259810397229305e+00
5.159948525087569918e-03,9.650025203223240311e+00,-1.709379636090431198e+00
-9.045919127632423215e-04,9.638086976584638421e+00,-1.693704309622888760e+00
-5.287112999951965042e-04,9.641088159060208440e+00,-1.686642916782246537e+00
-8.770955424424273922e-04,9.652764756223939813e+00,-1.689071632362691533e+00
1.588601794754513101e-03,9.645479392197881197e+00,-1.678880002525267479e+00
-5.844824255612570373e-03,9.645586193018885979e+00,-1.675615032148807693e+00
5.035631761161100776e-03,9.658096432020647271e+00,-1.664492336696643759e+00
1.190515597130848736e-03,9.651769624910699008e+00,-1.651526041830882363e+00
-2.036462617894399443e-03,9.650559515554228085e+00,-1.644083962736268667e+00
5.117821014705032376e-04,9.652485236521634704e+00,-1.636654321805657286e+00
1.209517091481102872e-03,9.653415067158579888e+00,-1.625485570180990935e+00
1.076673068761360534e-02,9.662825660514904769e+00,-1.625761877607358130e+00
-3.361200206836710037e-04,9.669151880117640374e+00,-1.607584151099558101e+00
4.432776625180924641e-03,9.663022108531269083e+00,-1.608454717899703068e+00
-6.651207132059290712e-03,9.663031334041106035e+00,-1.585827792544000747e+00
6.410998953932749416e-04,9.663873086560235137e+00,-1.581522073801980399e+00
-7.759996446240194010e-04,9.668487983225672266e+00,-1.574288695677508398e+00
5.089962037324124652e-03,9.670158188497696372e+00,-1.573909806569665282e+00
-5.159685244054268774e-03,9.667928551634746626e+00,-1.558192504056008953e+00
-3.155192527157011859e-03,9.673633507535194909e+00,-1.551561532294370327e+00
3.673517590514722032e-03,9.680757408508812389e+00,-1.547907780590573434e+00
8.606359416433850135e-04,9.670516717582120947e+00,-1.537481317114557600e+00
5.982051398827085888e-04,9.672817127951434557e+00,-1.533403736641890003e+00
-6.854986509050380820e-04,9.676503839743460844e+00,-1.516937727656897605e+00
-7.433420540108646654e-03,9.681389825964178186e+00,-1.511963651753853721e+00
2.878594154042523473e-03,9.672728693947023615e+00,-1.496662246752394010e+00
-8.472617402887066152e-04,9.682718799457605385e+00,-1.498369856665266786e+00
9.925404855532990456e-03,9.683015585176324436e+00,-1.485258585243292906e+00
-8.940409790896894490e-04,9.678616143275569073e+00,-1.473129524663170820e+00
3.206340448603509823e-04,9.681406155926119084e+00,-1.471976948539745145e+00
-1.004686525930971464e-02,9.683869329660822700e+00,-1.465886670839242401e+00
6.092172520383670048e-03,9.686737524134466426e+00,-1.459438588916579516e+00
8.060600844485621419e-03,9.693022147884496675e+00,-1.446979206159456632e+00
-2.123579969508924102e-03,9.693941743269849809e+00,-1.434116707632883791e+00
-1.009653262794005853e-03,9.691092602826419267e+00,-1.429877361754910758e+00
4.340611529987409289e-03,9.688801536249094681e+00,-1.435104322048018632e+00
1.750319261168640063e-03,9.686757425360422502e+00,-1.422871550514784644e+00
8.337598544711492810e-03,9.683280055663932018e+00,-1.407565849166479088e+00
6.983703137642733108e-03,9.705838310133104940e+00,-1.404952086941209100e+00
-1.891158899798646605e-03,9.707314632832583001e+00,-1.397787043346338409e+00
-7.419846277481503393e-04,9.696973521501831783e+00,-1.383153168046151515e+00
-3.173765220074770306e-03,9.694111838413792981e+00,-1.383442454578170500e+00
-1.472335506202251086e-03,9.696365025639559931e+00,-1.374831251728901860e+00
2.711457563858011947e-03,9.701507226125281491e+00,-1.362837788090167646e+00
-1.192138811662638714e-03,9.708779076727582336e+00,-1.361664262279293158e+00
-3.935086840517840190e-03,9.704329849011692488e+00,-1.362003773815265051e+00
1.072512398141889107e-03,9.696157361267404795e+00,-1.345323018709450036e+00
4.976838821762457482e-04,9.712055156416017354e+00,-1.335255107866971436e+00
-6.570220373931649413e-03,9.704478937947458306e+00,-1.324752381963268499e+00
-4.406704771371477980e-03,9.708843772125518967e+00,-1.325750010131563350e+00
4.497487626115845467e-03,9.706181907704209522e+00,-1.315596924177893312e+00
8.022685391507553693e-03,9.701115777989070210e+00,-1.309278497973903832e+00
-5.374480654984713224e-03,9.703213320697541278e+00,-1.308984820136011251e+00
-1.154440749627322869e-02,9.708933118917030924e+00,-1.298454358505956252e+00
4.077151718089973113e-03,9.704477369849294988e+00,-1.289239101707007951e+00
-4.443201940750781884e-03,9.715114370878021433e+00,-1.287964113273398326e+00
-1.190123672817054853e-03,9.709114260666574125e+00,-1.278863584852492075e+00
3.889382361746958165e-03,9.702592828976621675e+00,-1.267593629325085347e+00
-2.400898011484822042e-03,9.705796599870193830e+00,-1.268797946721068604e+00
8.432019845674356296e-04,9.717079301065647101e+00,-1.242190641475039659e+00
1.473490682066447288e-02,9.723344550701787270e+00,-1.253439110417724267e+00
9.738503547723622450e-03,9.714460173990964620e+00,-1.242104711350116464e+00
-3.982591431172599963e-03,9.711898008175143815e+00,-1.241195014495411142e+00
-1.831298713924499246e-03,9.722513318969980389e+00,-1.222328568633884283e+00
7.060136125705405996e-03,9.715493873932151914e+00,-1.225263600207920689e+00
-1.228726666261412831e-02,9.718874535407223902e+00,-1.222309721198705734e+00
-3.768961368432756018e-03,9.721393236946958893e+00,-1.212398130898192594e+00
2.811486065217441883e-03,9.720185818220484109e+00,-1.196259122895734661e+00
1.957364063572179270e-03,9.726217238820849431e+00,-1.201041169657803831e+00
2.811591484589159168e-03,9.719366400118323313e+00,-1.199477558313839287e+00
-5.324232975932768550e-03,9.730525581961620318e+00,-1.196093551225781093e+00
3.163155016121711564e-03,9.720788045811747935e+00,-1.178943927761663790e+00
-6.124831707788305248e-03,9.730314960800960478e+00,-1.181593516423557366e+00
-1.373218899235154056e-03,9.715661361446793265e+00,-1.170813107680459986e+00
6.153272084496687853e-03,9.724333387556537645e+00,-1.160330195857664171e+00
1.057067693442848792e-03,9.722205705022041400e+00,-1.152429333628997465e+00
-7.638361669186076106e-03,9.725750494731020268e+00,-1.153543232402346463e+00
-1.134402256259246528e-03,9.726341539451279772e+00,-1.148650349518096858e+00
4.761067356852766858e-03,9.725436464345486698e+00,-1.139568942639079374e+00
1.860539861464095834e-03,9.728820369173572402e+00,-1.122679959001541050e+00
-4.432310690583638954e-03,9.731867085693892250e+00,-1.130324547896433218e+00
1.432949374630805963e-03,9.726626613983656355e+00,-1.124549736501093244e+00
-8.084321537970423632e-03,9.731229954624799561e+00,-1.116701031310820991e+00
-4.229178401277621478e-04,9.741994400237956597e+00,-1.110885496830391395e+00
-2.329460672565580696e-03,9.735984451563471254e+00,-1.100680645934352553e+00
-6.360346524149609795e-04,9.732673045909029597e+00,-1.089427560664679717e+00
-5.761247964350904409e-03,9.728490971657469899e+00,-1.092698916662040443e+00
-4.305455582084023042e-03,9.730212830782686950e+00,-1.088819319724225521e+00
-8.602435346994762207e-05,9.731487364607563251e+00,-1.076322933652460012e+00
-7.404113357096215806e-03,9.736264144829418044e+00,-1.076742481320379197e+00
-1.802424777035089871e-03,9.745821518265614714e+00,-1.069692614000642417e+00
-5.907465225297916372e-03,9.737468293654659490e+00,-1.063382967835510673e+00
4.947583485816158325e-03,9.737149840247559140e+00,-1.058857038978136877e+00
3.249711300344242711e-04,9.744128125348545666e+00,-1.058714751878155669e+00
4.170282775146607257e-04,9.747046581400999443e+00,-1.048033539095371003e+00
-7.239463243960365599e-03,9.735379175781957883e+00,-1.039149286373985293e+00
-1.068617711852212380e-04,9.744234379299467008e+00,-1.037640447024974488e+00
-3.080157656431141465e-04,9.743242526529183323e+00,-1.025997650212664869e+00
-3.901850538811156392e-04,9.742363864302863163e+00,-1.024841641438932749e+00
1.944431021675566227e-03,9.746851773219615822e+00,-1.020418096680758335e+00
2.511665661774553290e-03,9.740703596786634222e+00,-1.023686464811033980e+00
3.490593687420850228e-04,9.742946949092157638e+00,-9.969737374746393543e-01
9.810464738650339755e-04,9.741826095142577913e+00,-1.009621174384608855e+00
3.014550912365701607e-03,9.747628682507880171e+00,-1.000252900013395951e+00
-1.510212796380932480e-03,9.745877723818464844e+00,-9.927061895920844536e-01
-3.082064169859557220e-03,9.748170495469643981e+00,-9.882318032336979696e-01
4.326262206076337408e-03,9.754933304866339583e+00,-9.837418886761263304e-01
8.344863138367094799e-03,9.741872307141175469e+00,-9.711879681723034619e-01
-2.678341425315506220e-03,9.744682964797895863e+00,-9.718965065620503996e-01
6.268994891303421649e-03,9.745428758542200143e+00,-9.683964655620691531e-01
-4.245640266092792076e-03,9.741195765958082120e+00,-9.634622853405320209e-01
6.465685660197333096e-03,9.748523151257966646e+00,-9.589259175071771502e-01
-5.643921199207340388e-03,9.749425137889247139e+00,-9.501395738458876528e-01
4.509874370687692868e-03,9.750595366304327882e+00,-9.374928402829794116e-01
-3.964528428699450003e-04,9.748181841809593351e+00,-9.344080002128041240e-01
4.989760681662152274e-03,9.740155061335293851e+00,-9.351049023045200359e-01
5.429365320401517182e-03,9.742355334387390542e+00,-9.361780638714605196e-01
7.175159317859738494e-04,9.743169708493676140e+00,-9.301761490145835642e-01
-4.246110261027369846e-03,9.749582947059536764e+00,-9.197963984292932826e-01
1.336656557697631868e-03,9.746627921001222106e+00,-9.263936450667947797e-01
-3.605909218158240195e-04,9.758008929317753655e+00,-9.131085663485742909e-01
-5.013179193227871623e-03,9.746635730793601127e+00,-9.081537994145350012e-01
4.191677050270709894e-03,9.746181376651767536e+00,-9.062043065804106234e-01
1.058932900738153177e-03,9.756350659734206232e+00,-8.993073826127602199e-01
-4.867279135856166991e-03,9.751763728705835632e+00,-8.992681994673369372e-01
3.437526690136017121e-03,9.756891474239298034e+00,-8.799560111748431224e-01
2.567959238866840237e-03,9.755152569628073422e+00,-8.867194279632641951e-01
-1.478252553720850633e-03,9.769792497428095857e+00,-8.861653335408961052e-01
-2.199122048987002358e-03,9.754631634042844723e+00,-8.750469432762243427e-01
2.554047296212921640e-03,9.748915651445004826e+00,-8.646865206507692303e-01
2.722664080252814450e-03,9.756557653885531423e+00,-8.680876046526079248e-01
-3.714385920939195299e-03,9.765125814589488584e+00,-8.688789218328130115e-01
1.048666221325174688e-02,9.761503660933964710e+00,-8.570484511720262155e-01
3.109351392690628928e-03,9.754028995273046121e+00,-8.531097156230987855e-01
-3.542227482922830420e-03,9.757721204412488802e+00,-8.520778717066160857e-01
-5.146057491354888089e-03,9.763298208521375088e+00,-8.478212376156641916e-01
4.892800615981404873e-03,9.767567848296206279e+00,-8.413149738303191683e-01
-1.088105820436964695e-03,9.757369474905164708e+00,-8.351363817396967315e-01
-7.265439458541262524e-03,9.764334066694651426e+00,-8.279536338839801335e-01
-5.819965418972564836e-03,9.759775712904062317e+00,-8.273512406537492092e-01
-9.907862686347935002e-03,9.765080654917692726e+00,-8.209369280826724902e-01
-2.708552813333856999e-04,9.759330464330515653e+00,-8.241195022413191351e-01
-1.238546266405262308e-03,9.761855454753879613e+00,-8.163906793845941978e-01
4.902990479498482018e-03,9.759195573719896544e+00,-8.167165576426173024e-01
1.785523616076937960e-03,9.748289887566857104e+00,-8.095603570737579524e-01
-2.031867214179082590e-03,9.765977952382407068e+00,-7.963537716332476091e-01
-6.131784000564088205e-03,9.761341130427636514e+00,-7.896506093115234215e-01
-3.257722083111087028e-04,9.767431399805190040e+00,-7.877273079765928498e-01
2.302833598498472034e-04,9.762456139822598189e+00,-7.850361209862228851e-01
7.738022968336084710e-03,9.769870013312592860e+00,-7.847862283489925872e-01
1.550237952294596794e-03,9.766354724432774859e+00,-7.709078362832395559e-01
3.491016448669025541e-03,9.761594197046301602e+00,-7.763063568235976097e-01
6.694299422347665864e-04,9.776170111370751314e+00,-7.839736663466740918e-01
1.423976096998667536e-03,9.757999155718968254e+00,-7.729105171485891601e-01
-5.617709772730456255e-03,9.767235002894681273e+00,-7.720022424984360754e-01
8.102962505755182537e-03,9.767222419105522135e+00,-7.636426364909908449e-01
1.914170414101145279e-03,9.768397339148229719e+00,-7.612837794034441607e-01
4.347473263729929524e-04,9.769923261243802060e+00,-7.503830488399593213e-01
2.340896127123236713e-03,9.770017070612965426e+00,-7.534321108702702885e-01
-1.814792340234098675e-03,9.769354479013220072e+00,-7.416265153035677127e-01
-2.729124811083803292e-03,9.762807744420095801e+00,-7.501026755029602811e-01
-8.007259033750532828e-03,9.764448565797863466e+00,-7.310075880046470465e-01
9.876307321327511008e-04,9.771516629406894694e+00,-7.302744060452478481e-01
5.649669788527055675e-03,9.768077367645176423e+00,-7.265996929946566540e-01
2.365055726776344857e-03,9.776918655592490737e+00,-7.244230069888200063e-01
7.710356502204581547e-03,9.764542070155130205e+00,-7.168714401169050676e-01
1.568672731372066764e-03,9.773374781916375653e+00,-7.142673829301503519e-01
-1.965161753595637707e-03,9.767173879445108398e+00,-7.139826217255019758e-01
4.195724358248613568e-03,9.765979651546780715e+00,-7.063407993368790994e-01
7.544601833955396231e-04,9.771462155466196009e+00,-6.990526731593085241e-01
2.678117531073420741e-03,9.771323996005136792e+00,-6.984097300079054049e-01
-3.088328811267347998e-03,9.786449320387491824e+00,-6.972547001068926109e-01
3.519302207263243221e-03,9.762112707030450309e+00,-6.915882203640881798e-01
-2.079288590137331246e-03,9.765668958147553980e+00,-6.965331721974997725e-01
1.064166034076192025e-03,9.769316694732641082e+00,-6.927865902660262920e-01
-3.396454314417680399e-03,9.771047649230272469e+00,-6.833246278168941812e-01
-5.849236927762927092e-03,9.783995509013852399e+00,-6.860220226990305648e-01
5.563292439240803515e-03,9.770120431872731714e+00,-6.834591927305866399e-01
1.529183708459165396e-03,9.771202277894547095e+00,-6.698413567119916312e-01
5.889426037048244369e-03,9.773349062527286080e+00,-6.650645376534861652e-01
-2.644253659785622242e-04,9.776309766370657073e+00,-6.582619563544505059e-01
3.535530750144910868e-03,9.769346646187791805e+00,-6.639826309272476301e-01
-5.840022775527330991e-03,9.770754703972640343e+00,-6.594451578671770564e-01
2.623138015506962586e-03,9.776941868684740911e+00,-6.534185111578237892e-01
7.937949431865265471e-03,9.779422282166965630e+00,-6.524201958196539364e-01
2.690790078751115200e-03,9.769220301905365389e+00,-6.424804350155768340e-01
2.508635345711055648e-03,9.781021277291964466e+00,-6.465812900593679302e-01
1.527943294893836269e-03,9.778475286073771144e+00,-6.359735467870797354e-01
-5.530881976833742879e-03,9.774256992524241738e+00,-6.346881896325808903e-01
6.076645405522833505e-03,9.779654461774006435e+00,-6.314032356394092549e-01
-2.797609041378144347e-03,9.777143464354725921e+00,-6.259112897367012929e-01
-1.624904107416014817e-03,9.774579427168973211e+00,-6.339490003180275890e-01
-4.668385127888971704e-03,9.773410073880903326e+00,-6.300770855055943809e-01
-2.959610305159332804e-04,9.774542254256866514e+00,-6.148859014737564355e-01
-1.317961806272941730e-03,9.774882466660333336e+00,-6.143754259155593811e-01
5.028831160257036040e-03,9.772438099881073370e+00,-6.210069351514055924e-01
5.937069718992210934e-03,9.777225677492520362e+00,-6.135103518712462511e-01
-3.568677617067547367e-03,9.778264162463464970e+00,-6.005304277911539534e-01
5.007278484057502838e-03,9.779452891085972155e+00,-6.157542898323825620e-01
5.779547380496434170e-03,9.777009343579878831e+00,-6.098672644790580355e-01
-2.953954743352004038e-03,9.769889538031296894e+00,-5.894151461908608836e-01
1.627852799024249661e-02,9.780310302540298650e+00,-5.861428320450837726e-01
2.023406980870050276e-03,9.771428611197885417e+00,-6.008134033506481453e-01
-3.805281623911982609e-03,9.770453103454013188e+00,-5.944661437447400498e-01
9.373498515970234493e-03,9.778371664236841454e+00,-5.902305625021928570e-01
2.462521671553049782e-03,9.775133398669835216e+00,-5.901603043827121642e-01
-1.160226982137175719e-03,9.777106829748332117e+00,-5.820251167036528672e-01
-5.796093924021665164e-03,9.778651030383528564e+00,-5.782733909321126076e-01
1.346845052879949711e-03,9.778547177071851948e+00,-5.763758568182141273e-01
4.927426807154857216e-03,9.783462227051957782e+00,-5.726095623221121311e-01
2.585254025680469407e-04,9.780178307356404588e+00,-5.684623325637229163e-01
1.707871311166731182e-03,9.778957520465885622e+00,-5.609614429568884342e-01
-2.868538562617456867e-03,9.775528241524762407e+00,-5.740329266053982860e-01
1.004246182857708274e-02,9.780619355441478646e+00,-5.570610022761718350e-01
-1.260638631596410278e-05,9.780383214877225839e+00,-5.609748926644991807e-01
6.216550558057266571e-03,9.771959357608059449e+00,-5.552941384120477775e-01
-9.945820345190361719e-03,9.778972898414263426e+00,-5.546017180351757725e-01
5.493090167317044720e-03,9.786020515804521480e+00,-5.469745962378157467e-01
-1.534154020430838691e-03,9.774594519039908391e+00,-5.459956411347193228e-01
2.104734408927240626e-03,9.774195537092444042e+00,-5.501442660694172426e-01
7.791452911850582815e-03,9.777277739857954231e+00,-5.442541344008241522e-01
1.203970285434447299e-02,9.778818729662255294e+00,-5.482677942133089566e-01
-2.793315223750548462e-04,9.783201922153406116e+00,-5.323371182989079520e-01
9.812582630041082055e-03,9.778586263304243076e+00,-5.342508621252211043e-01
-2.817006137712396545e-03,9.781817925573848882e+00,-5.177535491096576514e-01
2.757309082966855063e-03,9.779535508088370577e+00,-5.288770455973473839e-01
-6.489251539176428031e-04,9.779423030272665684e+00,-5.249921029716950738e-01
1.740121339433844602e-03,9.787164203870347023e+00,-5.226905196671601805e-01
6.320446113346655376e-03,9.782119601583941559e+00,-5.124587693044816428e-01
-9.889231806489643794e-04,9.786946959988988226e+00,-5.084929400315537640e-01
3.894830568510600742e-03,9.782862524931669412e+00,-5.062407060597660102e-01
1.983619248278211192e-03,9.770189950757089292e+00,-5.029786035281079704e-01
-2.334244734278790191e-03,9.782394989623027115e+00,-5.132981115320138787e-01
3.712836718775506736e-03,9.781952191057744272e+00,-4.977712064522945012e-01
1.155996640906676969e-03,9.780091434329762023e+00,-5.010859582893324449e-01
5.495136766000938318e-03,9.780222469312223055e+00,-4.933039348890568276e-01
-4.936799611265269699e-03,9.781682261075326679e+00,-4.907584347992280382e-01
1.004417813831070963e-03,9.778847436943692628e+00,-4.946313346982925685e-01
1.290888962211792250e-03,9.786152057968811491e+00,-4.964023347869167546e-01
-2.410944850301467626e-03,9.788971198568454213e+00,-4.770268358833411049e-01
2.727956421363338449e-03,9.784392238975202716e+00,-4.871677024895709751e-01
-3.455808055251496404e-03,9.782146540090042919e+00,-4.879417584560357679e-01
-7.919799801509343207e-03,9.775438282940427825e+00,-4.867873315784559951e-01
5.389875066227134588e-03,9.777462946602634375e+00,-4.809573828661468098e-01
-1.051841684020732130e-02,9.786165525049472791e+00,-4.760220415058727395e-01
2.984283807670171096e-03,9.787354297500506561e+00,-4.762075590157358040e-01
7.264314614408554430e-03,9.779168081831736359e+00,-4.689621787020169519e-01
2.641360937481162727e-03,9.784398176765433774e+00,-4.714740662219955025e-01
1.931094576419458884e-04,9.785447523194829245e+00,-4.679862476374636038e-01
7.600221738783802250e-03,9.787834791418827507e+00,-4.722262013625367905e-01
-5.566277745735302186e-03,9.792648238176322906e+00,-4.519856337716527950e-01
7.499767550461861054e-03,9.784618993603817927e+00,-4.515233100166373137e-01
7.750011795673623569e-03,9.795303596884345154e+00,-4.596264827876310743e-01
-8.080391584745107506e-03,9.778105778985271002e+00,-4.516569185999624869e-01
7.408589818826058319e-03,9.789509229660394496e+00,-4.517491508658650345e-01
6.524082985884724177e-03,9.783751043048020790e+00,-4.603325718959837554e-01
5.303448093289800033e-04,9.773685949500547920e+00,-4.534250673810776289e-01
5.127535574846192254e-03,9.791440626627979427e+00,-4.463978843858731893e-01
2.664996576746759497e-03,9.787949261089439190e+00,-4.463602793126517643e-01
-6.907404728855827923e-03,9.796137264977476278e+00,-4.463766567384626627e-01
-6.114847522926738013e-03,9.785406356233959713e+00,-4.361229413071281424e-01
-2.879410776794213804e-04,9.780937135350198375e+00,-4.352970628229803629e-01
-1.446437707499330675e-03,9.784537202266639255e+00,-4.299122990147502543e-01
-4.625152002264284676e-03,9.782399647923265107e+00,-4.330948202486927245e-01
-6.885811858632510073e-03,9.797220182575957281e+00,-4.272358167480248547e-01
-3.771539373328620590e-03,9.781496291822943334e+00,-4.244210107889867523e-01
5.313164280427917427e-03,9.786708112638065060e+00,-4.263227580859738075e-01
3.594392897220444281e-03,9.790324223607992593e+00,-4.191594641376616970e-01
1.779383064014708623e-04,9.797169171118882858e+00,-4.230086323240617174e-01
1.932221171525113582e-03,9.790549716508712308e+00,-4.166240196471713286e-01
4.902701247880038304e-03,9.786030217180014645e+00,-4.108965132391452224e-01
4.424184977273853264e-03,9.787777764074423459e+00,-4.201925605817994902e-01
2.871385280204886807e-03,9.784762457610572284e+00,-4.187963188308221896e-01
-3.989997577777671094e-04,9.784066792974400073e+00,-4.071369738790777126e-01
-5.198615014073917559e-03,9.791180868608616805e+00,-4.089384968128531028e-01
2.535946511066299275e-04,9.788418539520600703e+00,-3.953688561181719630e-01
-3.962492029354692039e-03,9.787745718430464592e+00,-3.972445639331072531e-01
6.218562767439021581e-03,9.784540945034228443e+00,-4.001433397255001467e-01
-2.435108637303290934e-03,9.781160940327547237e+00,-3.983003163916910561e-01
-5.700766207131823318e-04,9.788974222707885531e+00,-3.957541952329620139e-01
9.540344121799491147e-04,9.786456303548883184e+00,-4.021846918380927449e-01
-1.087330573109066782e-03,9.792264324991467817e+00,-3.910558369959711844e-01
-7.251300450990271623e-03,9.790046448993635408e+00,-3.914776432114897564e-01
9.230769728313326095e-03,9.800024384858682325e+00,-3.815906989504474489e-01
-5.665372157682246716e-03,9.791565890739301281e+00,-3.807505461083562359e-01
-8.453874772006121033e-05,9.784095278479723490e+00,-3.888492791291695561e-01
-2.188342025655626299e-03,9.792719115927834395e+00,-3.785649448349268087e-01
-2.242421264570154714e-04,9.787346808788701225e+00,-3.747615219943085108e-01
-7.050989173147338609e-04,9.797094687695199866e+00,-3.706063928236193461e-01
1.026175492402431376e-03,9.789710945178626389e+00,-3.805340928796395739e-01
-5.629340617269103057e-03,9.789025365168148696e+00,-3.751881510660345920e-01
-1.530652041575061937e-03,9.782275783857002693e+00,-3.735598711607294731e-01
-7.478598070535003332e-04,9.787834343333299714e+00,-3.738166378373471987e-01
-9.630410653657781386e-03,9.791658986754976368e+00,-3.595832677385109588e-01
-8.778874086532457294e-03,9.790767910066222157e+00,-3.638646697672764940e-01
-2.455714990507073181e-04,9.788139112212775217e+00,-3.590256566126489024e-01
5.252904375247381859e-03,9.773986570987663214e+00,-3.531436508109170314e-01
3.532835402605906307e-03,9.788592839261092138e+00,-3.584238816102608971e-01
2.906919619508926793e-04,9.795001206135886207e+00,-3.580111035094195038e-01
-3.058059643745088176e-03,9.796647754217369553e+00,-3.500628399741851360e-01
2.515437274977620676e-03,9.782175033450371870e+00,-3.498269592739665090e-01
-3.770128420739621289e-04,9.795627097270655170e+00,-3.489667345602373572e-01
-2.322442705265106815e-03,9.790225766586701184e+00,-3.567744849406367935e-01
-4.139530253003152055e-03,9.793274414823878615e+00,-3.431507244219162978e-01
4.138393755225639598e-03,9.786434432887544332e+00,-3.507024904783823671e-01
2.946663812690683061e-04,9.787845394138258825e+00,-3.405864633261754260e-01
1.585705479495865293e-03,9.793101733083492633e+00,-3.527826839063620268e-01
4.055452656085617447e-03,9.790983495196314834e+00,-3.396075376149388370e-01
6.617249941513106588e-03,9.777657953156627002e+00,-3.451222599536472591e-01
-3.693734013265133516e-04,9.801809935771416349e+00,-3.420703072971956193e-01
5.688175854992377420e-03,9.787720145582007092e+00,-3.347029907605283405e-01
1.059579391049275329e-02,9.789754390058837075e+00,-3.281756414572805647e-01
3.776920585562035075e-03,9.794206754277833937e+00,-3.382068369756067727e-01
-9.398443778994189065e-04,9.782153516481374211e+00,-3.259035746610440820e-01
-4.347619679778069388e-03,9.784953963139281896e+00,-3.331542493159631579e-01
1.367769208904354335e-02,9.784515990236728911e+00,-3.234682485798736629e-01
-2.689974332882286764e-03,9.785991623726946642e+00,-3.335332536007546977e-01
1.057896303076276325e-03,9.789704915459003232e+00,-3.184518502638295501e-01
3.839479608246497248e-03,9.793560426208014036e+00,-3.341936437031909346e-01
-2.608904096279173433e-03,9.795218151870026091e+00,-3.187968924354983025e-01
2.119274708899895367e-03,9.798706450880596108e+00,-3.299101228922753926e-01
1.575260117173604788e-03,9.784110455966670727e+00,-3.241341331198950293e-01
4.996904781509702367e-03,9.792198619492687328e+00,-3.181921093258288091e-01
-8.310623752703319433e-03,9.795522790983618222e+00,-3.188001589027119609e-01
1.547496408196586109e-03,9.787761597144061909e+00,-3.143154321964833908e-01
8.900800176232497724e-03,9.789361423331046197e+00,-3.082503669290798110e-01
1.435397559634138658e-05,9.792463816480950101e+00,-3.056742571133970188e-01
2.828166124221799527e-03,9.782738060342980546e+00,-3.006152251314693769e-01
6.479377359158683403e-03,9.796745965888815633e+00,-3.027340549874953934e-01
-4.816324527447627540e-03,9.785223901059733720e+00,-3.073650907679502109e-01
-4.163450013267298681e-03,9.786017864029957991e+00,-3.041781672488801935e-01
9.059587327456791305e-04,9.790818201766585460e+00,-3.061912260430568744e-01
-5.085926306026440462e-03,9.798276390116345880e+00,-3.056550388014784292e-01
6.299817171748650114e-04,9.784671791643052785e+00,-2.871784483127208798e-01
1.867582346819603211e-03,9.784041124979133031e+00,-2.971596913115443495e-01
2.041473038834386473e-03,9.794765132155488274e+00,-2.901188197045310169e-01
2.059580651469359452e-03,9.789967636568515985e+00,-2.927662777411149664e-01
4.217662984462150315e-03,9.801323924416770694e+00,-2.828110318510865251e-01
9.209137333203106001e-04,9.778840940269882154e+00,-2.874063084568310167e-01
4.544570887218600183e-03,9.791077546761746575e+00,-2.918574904078098942e-01
-1.391471330232784721e-03,9.794604245881158633e+00,-2.812181356204557225e-01
-4.311160660440337480e-03,9.792575879967120756e+00,-2.852247142732076690e-01
9.742776458428758796e-04,9.787244703894954156e+00,-2.855928152942009968e-01
8.617088922602959486e-03,9.794745250091084543e+00,-2.776347645515290230e-01
-7.328837394807677375e-03,9.797237662246422119e+00,-2.805177590669050147e-01
-3.164047594479449735e-03,9.790661044827492887e+00,-2.690877549060849416e-01
-1.108809434993890397e-03,9.791115397763714867e+00,-2.795002579327347525e-01
-1.031817842073165688e-02,9.792298144039735419e+00,-2.812235146339568947e-01
7.587220635224186174e-03,9.796643889059616583e+00,-2.695500694115519069e-01
4.329197343397002580e-03,9.793607171667535027e+00,-2.747059616448294106e-01
3.729159329817863678e-04,9.792704776402738176e+00,-2.719264406570419124e-01
-1.056506810361358163e-02,9.796472051354385258e+00,-2.691632389636097744e-01
4.589560400427461495e-03,9.781691050672876031e+00,-2.766416028140912253e-01
3.002034430452934360e-03,9.794228473575175897e+00,-2.646310711528899184e-01
-3.151485452984499613e-03,9.790612135309608277e+00,-2.573998671188555409e-01
7.054715858112943147e-03,9.801449131636815082e+00,-2.633581007247902117e-01
-4.172257443704163217e-03,9.790305765797970849e+00,-2.710862359101881558e-01
-1.184203968598237849e-03,9.790788687537540724e+00,-2.515942230381519318e-01
1.531608003455566403e-03,9.791711913447445070e+00,-2.657466307050659893e-01
-1.008980322938653890e-02,9.798018523989052042e+00,-2.644914275608948317e-01
1.476251526024121869e-03,9.798115444719334377e+00,-2.588371121478940662e-01
-6.898669318331750351e-03,9.788742286668993486e+00,-2.555979691438436396e-01
4.862888061775733073e-03,9.792622957677563633e+00,-2.524117052925537452e-01
6.928150884477081960e-03,9.799416032569292057e+00,-2.484241411627451379e-01
2.721361031060384565e-03,9.795885269937196327e+00,-2.594559255437101641e-01
3.700598060830128950e-03,9.794089421992385525e+00,-2.462801040513164230e-01
-6.369503271922212495e-03,9.802652096881535826e+00,-2.510150459843309978e-01
-7.622470872524040979e-03,9.796205470743052146e+00,-2.423208364858495667e-01
-1.663712101493440738e-03,9.789265396767751426e+00,-2.508462341564547948e-01
1.735273846796544193e-03,9.789295952883284357e+00,-2.452080193659433860e-01
5.571609621616554174e-03,9.796642479764283706e+00,-2.447173577026559022e-01
-9.341821624769532052e-04,9.795831981460873195e+00,-2.444871718635397984e-01
-1.197313181839089989e-03,9.792599522576882265e+00,-2.464875293067023410e-01
-1.219709421120322018e-02,9.790300134837432111e+00,-2.454060664977349704e-01
-1.312328914210725457e-02,9.783898436796105713e+00,-2.301744233774289938e-01
-9.806917974769754562e-03,9.788725123012204321e+00,-2.270803709091401001e-01
-2.122683490115035571e-03,9.807206316510796995e+00,-2.387014509493299297e-01
3.152614862274556642e-03,9.804103739525208638e+00,-2.353532460709230334e-01
2.489214396515182460e-04,9.789449780870336681e+00,-2.334660001676061580e-01
7.906636397064202570e-03,9.791235045118519054e+00,-2.312503997984780291e-01
-6.540804527770020284e-03,9.785482450359706874e+00,-2.403190825443831113e-01
4.131726602190977267e-03,9.801649748178524746e+00,-2.278886225224908135e-01
4.377265664856384332e-03,9.796596851911886006e+00,-2.258097155803506506e-01
-6.099289233975261834e-03,9.789664360211256522e+00,-2.272618641614936597e-01
-4.992428468003061795e-03,9.787583934997641677e+00,-2.299641856986754107e-01
5.608008371098002851e-04,9.785011428435643310e+00,-2.223605120447837147e-01
-1.393153078545659399e-03,9.792019016314419844e+00,-2.316097824706503661e-01
-3.364366898401019521e-03,9.785513637905904005e+00,-2.237035067463193361e-01
1.482515589977531027e-03,9.791520669170978408e+00,-2.224219187947369114e-01
3.046163854050807675e-03,9.792546789793423301e+00,-2.219962690315740172e-01
-4.865200103521380784e-03,9.801199878734479398e+00,-2.131639642786726796e-01
1.500214000074919386e-03,9.790580513188826828e+00,-2.213433341252519782e-01
3.823404583189874729e-03,9.798526660854292913e+00,-2.141099463145594850e-01
1.982692354267524154e-04,9.793043039217767642e+00,-2.090166036429885188e-01
-8.435609226151141379e-03,9.796052148235736112e+00,-2.204194823869373709e-01
6.098991403850582971e-03,9.791989933418527414e+00,-2.127554858988514597e-01
3.537468565645972979e-03,9.796646968317000770e+00,-2.110128774986009814e-01
-1.098146198820121322e-02,9.789225572937068520e+00,-2.197219385471725905e-01
-1.904082812459481720e-03,9.794762657062756617e+00,-2.102115584622675226e-01
1.095938104702102317e-03,9.796317269031309394e+00,-2.089239559834858706e-01
-1.092374725447315016e-02,9.789706182745360863e+00,-2.075848181414064186e-01
-1.014601482905457550e-03,9.792060781920069346e+00,-1.994124320256992489e-01
8.361870127329766936e-03,9.797657777985312677e+00,-2.098671601496098493e-01
1.569756557046615274e-03,9.791915196281962608e+00,-2.187648658107113897e-01
2.268124957887910319e-03,9.788893061606213308e+00,-2.047799450816115696e-01
8.507568307520098003e-03,9.799237011414760445e+00,-1.989621503196347674e-01
8.386012942064230207e-04,9.790894017934292037e+00,-1.967787391229790794e-01
9.312594604197145867e-03,9.795821160773106939e+00,-1.947131879237966323e-01
-7.429656023840047752e-03,9.794722075458579980e+00,-2.008488253286312142e-01
-3.678168925810715306e-04,9.788898771043902158e+00,-2.005433794986285212e-01
1.424260753469631241e-02,9.791843942463286155e+00,-1.943262793297355906e-01
-6.225153163677276356e-03,9.790179926994017734e+00,-1.930157125705418419e-01
-4.257573802838642528e-03,9.792682594005208685e+00,-1.911767001341574956e-01
-5.785752997874138263e-03,9.789437867078301991e+00,-1.947285932224120664e-01
-9.191504649830796458e-03,9.799058765966929485e+00,-1.921095223818593822e-01
3.791527211519604181e-03,9.798580480088066480e+00,-1.918152264531208240e-01
7.860719438841695574e-04,9.790692241895671444e+00,-1.947591667971736162e-01
4.566960262837376980e-03,9.787231177502400570e+00,-1.885636927851046252e-01
4.114922121507181077e-03,9.802258241325453980e+00,-1.797905372109658839e-01
3.091323687298947777e-03,9.791552849735007058e+00,-1.939389305025320809e-01
2.974822642338299100e-03,9.794233974773135287e+00,-1.914191190675184617e-01
7.693902828577393188e-03,9.792778807645563077e+00,-1.980054821024694600e-01
6.422216535530468617e-03,9.790934377628483176e+00,-1.839915844744402229e-01
1.731768640710141909e-03,9.797021417181746017e+00,-1.829331912101440916e-01
2.359561865074750477e-04,9.795649633531429146e+00,-1.817199680849157228e-01
1.392309355130463876e-03,9.794848910698119582e+00,-1.853732483794049424e-01
6.563116931718187977e-05,9.788120592168896295e+00,-1.830410068854352035e-01
1.042181225492572368e-02,9.791272142555548896e+00,-1.968483935352190184e-01
1.587855761178169752e-03,9.794166456007252108e+00,-1.699101185265383673e-01
4.011375386080258225e-03,9.786650831994654354e+00,-1.740757958448968801e-01
-7.555947849895524975e-03,9.796664382478663669e+00,-1.734533694098041867e-01
3.178249545896609778e-03,9.788762975716490899e+00,-1.706937545584355786e-01
-3.789032821331481463e-03,9.788623580962006798e+00,-1.830536412769316335e-01
8.469140294401900429e-03,9.786568621572543591e+00,-1.730892959768353390e-01
-1.979919194742449070e-04,9.800457350270496804e+00,-1.694703834095226125e-01
-2.638382487935466217e-03,9.783405864171335509e+00,-1.749287862429478313e-01
7.347541661950778881e-03,9.789389047865412863e+00,-1.747933662667537913e-01
3.054850174853048503e-04,9.796876348852361360e+00,-1.713862292657316599e-01
5.575603762298505725e-03,9.787593281702291037e+00,-1.659756992717857649e-01
-1.615169471734516750e-03,9.788693814942032390e+00,-1.750799040879530144e-01
6.370665201408214073e-04,9.796191312432970477e+00,-1.627138900501424179e-01
3.085784489370019604e-03,9.790966698642350252e+00,-1.718182174628405667e-01
1.158320241390778903e-03,9.796313925169034320e+00,-1.648597730931705974e-01
4.171155229895117007e-03,9.794017996742617527e+00,-1.716322556462157312e-01
3.209411370902622539e-03,9.792474058683270144e+00,-1.723331297054694622e-01
4.917084083098526709e-03,9.795127754870209813e+00,-1.662940218757744393e-01
4.382212095918774572e-03,9.799841734753288236e+00,-1.546992958512957150e-01
-4.797939469608240512e-03,9.795888087125490529e+00,-1.604200137500961520e-01
5.085500606635049228e-03,9.798756433763799123e+00,-1.556395764308295959e-01
3.716413685996033858e-03,9.788140325603764680e+00,-1.624626199981142882e-01
-4.807934316247171715e-04,9.795892709064377257e+00,-1.623493062255540464e-01
-4.363548316702686725e-03,9.790734417588122795e+00,-1.640323724940642713e-01
-1.164275327827437277e-03,9.796007163959654207e+00,-1.495898472520578448e-01
9.401190642044556650e-03,9.800232398296284231e+00,-1.560524136294317854e-01
6.109906461318814546e-04,9.799053157592982899e+00,-1.520705714554648202e-01
3.235357590749122049e-04,9.796754893482043869e+00,-1.534775458534852755e-01
-6.567046839483767218e-03,9.800179584455745996e+00,-1.604891736619118159e-01
-4.091231172916915890e-03,9.794824723078054518e+00,-1.509221879423895962e-01
2.234742510667919041e-03,9.798025964055975479e+00,-1.537641504160468797e-01
4.223880742643988141e-03,9.795777844090292064e+00,-1.509576539457319622e-01
3.699158778256949037e-03,9.796065353210741122e+00,-1.452897887772537644e-01
-5.455550306961002606e-05,9.784543902081138000e+00,-1.518421511590959116e-01
-3.104585133049839792e-03,9.788466653174227261e+00,-1.388176449252596922e-01
8.137077699778092615e-03,9.789317634829519221e+00,-1.554089233993581620e-01
9.374836955376820297e-03,9.793100690060152047e+00,-1.482046251537324222e-01
3.059856351030544597e-03,9.792259090689098500e+00,-1.467685350966961566e-01
1.119273947304935939e-03,9.790119408929465195e+00,-1.452367293757495237e-01
2.549228196736812342e-03,9.792047571289160146e+00,-1.410309570368417087e-01
3.795745637533380363e-03,9.792775027937684840e+00,-1.396781309725181053e-01
-3.687811571453397230e-03,9.786653953515765281e+00,-1.462201460796244135e-01
7.287848052888087555e-03,9.789792162594354252e+00,-1.464225592131974396e-01
6.760539147840808477e-03,9.787709395174355009e+00,-1.421964901403419412e-01
4.661936749704148793e-03,9.789321126954046548e+00,-1.328420347591459105e-01
4.037656411982261384e-03,9.797250450668133936e+00,-1.420734276791138229e-01
-4.194566544596791541e-03,9.790839831815628003e+00,-1.346466178364518762e-01
-4.734533316771028649e-05,9.795887617730668850e+00,-1.404204763728083560e-01
7.146656546605264886e-04,9.792104803472396313e+00,-1.407729638616486700e-01
-1.300913203329240493e-03,9.797320818355283123e+00,-1.341932978389803743e-01
-9.438097887610845393e-03,9.795794340269202038e+00,-1.381440278581622105e-01
7.423207440553672778e-03,9.797466547360601297e+00,-1.339134826571085624e-01
-1.694489938442183315e-03,9.798811491297346521e+00,-1.326121429992481726e-01
8.928936328229947076e-05,9.795799234587066806e+00,-1.382828667271487066e-01
6.181795041106092833e-03,9.797689737686285483e+00,-1.370089124496264299e-01
-2.269927252289658057e-03,9.791313596115820417e+00,-1.353695647930895640e-01
-1.794119482626200125e-03,9.795557501374398512e+00,-1.323801534673003655e-01
-4.835592414713494984e-03,9.790021220886069742e+00,-1.403489398829793622e-01
-5.255582148890556096e-03,9.791890733981517769e+00,-1.277460432120776090e-01
-7.739979209667961942e-03,9.797908693227965315e+00,-1.323559218542707250e-01
6.325366008812375110e-03,9.799209307724083828e+00,-1.343296994469216077e-01
-2.692097225272624839e-03,9.791321925562487039e+00,-1.386922172903040096e-01
9.286936691460419280e-03,9.796971676481801339e+00,-1.264851702168600378e-01
-1.676811358447962775e-03,9.804267326803516980e+00,-1.271082559398211409e-01
2.072133014270724667e-03,9.786511859172227545e+00,-1.292174193834688400e-01
3.596359577648138017e-03,9.791915008813683485e+00,-1.279468901069826248e-01
-3.002495342751558896e-03,9.789142732833564509e+00,-1.322656811752869754e-01
1.828319216296098344e-03,9.793060586902226916e+00,-1.163401468857063470e-01
-4.291895787318504227e-03,9.793743439928116246e+00,-1.279859190125731960e-01
-1.238471319264917991e-02,9.792062043611521105e+00,-1.313423762695154207e-01
6.305895137753836713e-03,9.793504326019466077e+00,-1.257720304784576970e-01
3.053656100667393770e-03,9.798332821553286109e+00,-1.248470484236495204e-01
2.760779102388275907e-03,9.797681297566402492e+00,-1.243509141560370374e-01
-3.066507902563569889e-03,9.799246055494215568e+00,-1.203947154710764134e-01
5.669872818280716469e-04,9.804615046268137846e+00,-1.138284670372466389e-01
-4.299476180220419309e-04,9.797134455148190924e+00,-1.287565666718904211e-01
3.159060557015191777e-03,9.797274772125668107e+00,-1.157444242985590788e-01
-2.180458715816325620e-03,9.788373599665627367e+00,-1.278806879973890254e-01
-1.145188698598220830e-03,9.793139039814661828e+00,-1.224557461990898183e-01
4.128323157682626220e-03,9.799120600165089456e+00,-1.143404783518975482e-01
5.501531695926552973e-03,9.797164706895120645e+00,-1.237222531017128507e-01
-3.768605158334154340e-03,9.797380922016140303e+00,-1.202819357066206296e-01
-2.844008068386069676e-03,9.800231992961776939e+00,-1.159820450014573678e-01
-9.839561288924558030e-03,9.791991447612168997e+00,-1.112996213678201785e-01
3.548426557549083649e-03,9.793700921032700180e+00,-1.241804843872759689e-01
-4.922440136291244932e-03,9.789810272507624589e+00,-1.154135338196593946e-01
3.704731983061326957e-03,9.795192911285617754e+00,-1.159289258429731517e-01
1.368912316935363797e-02,9.799946546940299541e+00,-1.168318988945631076e-01
-1.592361450027030435e-03,9.796487210414554170e+00,-1.124713341680445011e-01
-6.473531827064098881e-03,9.793659909055319801e+00,-1.101999678053962317e-01
-3.451739210020342806e-03,9.800569401031900441e+00,-1.187897866894072479e-01
6.779321456904251891e-03,9.795194088718757186e+00,-1.105812974964924394e-01
-5.845159953000520457e-03,9.793252630444595042e+00,-1.057321468505988682e-01
1.957358936186735202e-04,9.790885817867501117e+00,-1.121995523156751051e-01
-7.297895497518815631e-03,9.788908357943476801e+00,-1.091541579769916420e-01
-3.077136351750539567e-03,9.799534316928335542e+00,-1.142531512062071042e-01
-7.487034647447206141e-03,9.789988663853979034e+00,-1.060030722065762737e-01
3.510622652282708017e-03,9.789249710951180461e+00,-1.053850570041091061e-01
2.299246287566216081e-03,9.797577410361030914e+00,-1.052832697128501249e-01
9.217692748450618742e-03,9.795201194507351161e+00,-1.043340488395396448e-01
-3.068983897351414050e-03,9.791476502061835063e+00,-1.038052784643273968e-01
2.678241205251339404e-03,9.787398011404865983e+00,-1.052769013897590922e-01
-3.458093135674540804e-03,9.787490487954491059e+00,-1.065002911518683204e-01
4.428428255132086343e-03,9.800785212442095329e+00,-9.606809381931161185e-02
2.570044352332679586e-03,9.801795515544226234e+00,-1.030574415996004939e-01
4.611537259407658303e-03,9.790374716683343692e+00,-1.048867596945959602e-01
-6.996153041187841079e-03,9.790855413149142095e+00,-1.002453130971421996e-01
-3.647874906320013782e-04,9.793672413603392357e+00,-9.593113363849825603e-02
-6.725015714839905137e-03,9.803835698474193450e+00,-1.017910214715150446e-01
2.273981600181374657e-03,9.807930030234729202e+00,-9.777540567129962279e-02
5.215154154202360573e-03,9.789232848248987651e+00,-9.688585051877157683e-02
-2.288564962569448937e-03,9.792509367955570809e+00,-1.068713758925626811e-01
1.984470655655154632e-03,9.792144693430032021e+00,-9.153964503421643806e-02
3.467920339077062205e-03,9.795325594175597672e+00,-1.022025218159984816e-01
2.317911538204582220e-03,9.788153117461821040e+00,-9.911401252559516595e-02
-2.229571432181358046e-03,9.796385748477094424e+00,-9.773051271857347011e-02
1.877565314514469900e-03,9.791288830089724726e+00,-9.445245114713979318e-02
7.035446076906357905e-03,9.796461033387778627e+00,-9.654759635489419678e-02
3.891401704335911271e-03,9.791771414393057427e+00,-1.046089025131569372e-01
3.749923594108725382e-03,9.800131947241760955e+00,-9.773183663701730250e-02
-1.005405372491411427e-03,9.791299795443352494e+00,-8.752910281149914318e-02
3.694735141360924041e-03,9.788088824983702807e+00,-9.442223021960502449e-02
-1.593993694148504881e-03,9.796400945343240352e+00,-9.050339466057100157e-02
2.466773911328298211e-03,9.805245694255940947e+00,-9.575528787059461866e-02
6.306259109173339462e-03,9.788296670634242247e+00,-8.911886384487502366e-02
3.465300172767024796e-03,9.800243107826400291e+00,-8.793600332171659650e-02
-4.515961730590330181e-03,9.791202049334561508e+00,-9.745845096697507148e-02
-7.015425633987248596e-03,9.788004208843466003e+00,-9.514940586951368962e-02
6.507635347002672585e-03,9.796511746643641771e+00,-8.090606278747956848e-02
1.160641538493397676e-03,9.789185738102988310e+00,-9.219004877649564222e-02
1.084884761158249819e-02,9.796998929791650212e+00,-8.347900055377116546e-02
7.784552254107738462e-03,9.785961907783425673e+00,-8.370557359398374253e-02
1.589755175347402601e-03,9.796908287250408520e+00,-8.698969949665831536e-02
-6.213870499213061324e-03,9.795628278926075794e+00,-9.239946309672149305e-02
-8.156673027546377207e-04,9.795097256857136614e+00,-8.959391747518523352e-02
-6.160076447222283952e-03,9.793545309231625140e+00,-8.946816335584548141e-02
6.976168924882205150e-03,9.786374347290999864e+00,-7.801175056724790613e-02
-1.499696015136775095e-03,9.789976426417629440e+00,-9.264449740133208488e-02
-7.320389799480917295e-03,9.798104939358831089e+00,-9.643597464533623653e-02
6.958781914637768339e-04,9.797886156299941973e+00,-8.245171127166692204e-02
4.050990191699013407e-03,9.795440531534614692e+00,-8.493906461717978806e-02
1.002577059919864365e-03,9.800496813856105049e+00,-8.935582238863755411e-02
-2.575609508622891605e-03,9.788823598299780215e+00,-9.292842761740237323e-02
1.248827926756216483e-02,9.791748198473991138e+00,-8.283102410629922252e-02
-2.211666359071222561e-03,9.793315999859981247e+00,-9.176736987862758876e-02
-5.011088350226650112e-03,9.797577041162487177e+00,-8.666789019702668406e-02
-3.329372730449168096e-04,9.791769816434708673e+00,-7.550387090871774065e-02
-1.509100461107053780e-03,9.793201955228784783e+00,-7.627640265671907505e-02
2.788797193181990239e-04,9.797332359274284030e+00,-8.442280720036597630e-02
-3.492157009462624768e-03,9.794659872942188983e+00,-8.518739646967954382e-02
-6.230358910302955487e-03,9.798489289469147323e+00,-8.776917954230115115e-02
3.758482273285320210e-03,9.799490005669255765e+00,-8.262541561256953049e-02
-4.087154630352453355e-03,9.792615745965532525e+00,-7.755377853866213256e-02
-3.517230745849341585e-03,9.788634870700049007e+00,-8.605981182586798506e-02
-4.877360198223492163e-03,9.800055666237925678e+00,-7.793169574386796250e-02
-2.167804577898441512e-03,9.798794171822599708e+00,-7.442922234055841801e-02
-1.149690467289428159e-03,9.794295896037143123e+00,-8.359033897935037871e-02
-1.220390190414264407e-02,9.793931508299573707e+00,-7.358349333984867680e-02
8.096594931789895602e-03,9.789143069482451054e+00,-8.102181710301141482e-02
-3.746387848948863359e-04,9.791393082009385296e+00,-8.284284962249845174e-02
5.574179223979693586e-03,9.793113767949881421e+00,-7.402651637625946857e-02
1.499288462692006984e-03,9.795724380344497106e+00,-7.931275314032844304e-02
8.826216606886924405e-04,9.791496481290709042e+00,-7.688944693571525546e-02
4.749844799736239499e-03,9.793442342433959169e+00,-8.461729895187453110e-02
-9.382574506395961050e-03,9.790377361766102737e+00,-7.841437639870212084e-02
-3.346256827266485059e-03,9.804280995916625940e+00,-7.492602133597439651e-02
1.864137233188165261e-03,9.800323876399877676e+00,-7.459865338776179577e-02
-3.688589183461199721e-04,9.790083157120990975e+00,-7.557376059930406842e-02
-8.724176748231275702e-03,9.796569104895596070e+00,-7.636926563216245301e-02
2.651304107771890097e-03,9.797668441708333731e+00,-6.967381660577810776e-02
5.653924339028765407e-03,9.801606629175656948e+00,-8.130178458719850010e-02
-6.993591396810008853e-03,9.792304835655270878e+00,-7.268390056114887310e-02
6.565805035481663693e-03,9.794854691657223000e+00,-7.568020713462032811e-02
-9.602233297011384186e-03,9.792780067937091104e+00,-8.064298325633693920e-02
-4.264998875939945457e-03,9.792161582078040993e+00,-6.956942375224915709e-02
3.550132144024427481e-03,9.798104417135855115e+00,-7.100407881656628506e-02
-8.398122722066105744e-03,9.794776142603970115e+00,-7.325343473338653821e-02
4.469688304396650554e-03,9.801255613315241533e+00,-6.441295851724375410e-02
7.538367029482851735e-03,9.784639590474990101e+00,-7.039445242901330724e-02
3.421836124917236534e-04,9.789197888443988305e+00,-6.717805604238466510e-02
4.029881326924231524e-03,9.796895648803481293e+00,-7.347025859676235837e-02
7.401449120273398928e-03,9.795473129787309219e+00,-7.417724631758962350e-02
3.841345841206239998e-03,9.783374907899959894e+00,-6.417018879815769572e-02
-1.480431657035932973e-03,9.798629300347821314e+00,-6.724775608671940130e-02
7.035639521502991614e-03,9.784985939704078817e+00,-7.018113162734977706e-02
3.194353858002626015e-03,9.795666228725032454e+00,-6.386664862916519025e-02
-9.138762123217352915e-03,9.780109027063231153e+00,-6.819712824674135920e-02
-7.423524887663144299e-03,9.789186256296574129e+00,-6.965699856203814988e-02
-3.013996677551073096e-03,9.796406198388977415e+00,-6.885962335386998368e-02
1.497129578370630289e-03,9.795676066937096138e+00,-6.970174423803736363e-02
-1.854238456122837440e-03,9.796094997056737697e+00,-6.623114963693570167e-02
2.891022004354780895e-03,9.793859301589998623e+00,-7.034799164686553197e-02
-9.286437574287756055e-03,9.786520685320235557e+00,-6.682532710179424351e-02
7.077773504552481920e-04,9.795005816642797569e+00,-6.425177244141890009e-02
9.638706325063330776e-03,9.791664051580976746e+00,-7.082311409103801692e-02
4.814938813794572905e-03,9.799170271883042460e+00,-5.951658643787320624e-02
-4.227967808518119652e-03,9.795730005270234741e+00,-6.449242942513433441e-02
7.908692544955651937e-03,9.785508883085267229e+00,-5.510504527771029060e-02
2.193052321455893176e-03,9.791441512975820771e+00,-5.978501618439765325e-02
-8.789138396484989964e-04,9.805343998258377880e+00,-6.766696953224954347e-02
-1.497653600681237004e-03,9.798754507260387214e+00,-6.006164441743281485e-02
-7.068384189230497846e-04,9.800469225675279006e+00,-6.578927733159321833e-02
-3.030873994852911323e-03,9.800581108442493417e+00,-5.479006379550516864e-02
2.759903416421869392e-03,9.796598533360738159e+00,-6.541855580131961112e-02
-7.980053767899513914e-03,9.792891622837528232e+00,-6.184490248959256115e-02
7.721595523591055213e-05,9.795694576620956440e+00,-6.343030089125961668e-02
1.244638676110253455e-03,9.794793306457217241e+00,-6.656666332931969465e-02
1.325017195594535742e-03,9.797596829110851502e+00,-5.962794013907175145e-02
5.652412127585131583e-03,9.795521056938785165e+00,-5.797852725948697550e-02
-1.180442864885299092e-02,9.793211713562147480e+00,-6.693878935713408473e-02
3.172763574135615671e-03,9.797985241976356008e+00,-5.125979722843328201e-02
-8.722211693033233779e-03,9.789222562510728309e+00,-5.412365733609499074e-02
-8.785623502453180841e-03,9.799720317805880043e+00,-5.899658695642766293e-02
-2.313092738746449313e-04,9.800500943234892404e+00,-5.738821070099416749e-02
2.912191818596596062e-05,9.798209100674544203e+00,-5.696992970555373598e-02
6.421938403061959108e-03,9.800854698133139919e+00,-5.875611212509965903e-02
3.111581435954179423e-03,9.796294454644700167e+00,-5.675734539017880664e-02
5.084990999037439750e-03,9.792044738718264085e+00,-4.584639956026341501e-02
3.420082904663159125e-03,9.792023722631176597e+00,-6.031618300422299239e-02
9.727952896652033218e-04,9.806753248879443774e+00,-4.559713255127219311e-02
-7.122675300090491705e-04,9.794236578262012216e+00,-4.562664475929843061e-02
2.303949692777858315e-04,9.789403134072653501e+00,-6.154707316520118682e-02
-3.454672839682680803e-03,9.796323371359290988e+00,-5.336521480507265547e-02
-3.901375213275395937e-03,9.790810071567495498e+00,-5.261441063744814323e-02
5.244169332619894215e-03,9.791874121256732622e+00,-5.841379760669578730e-02
-8.324548023379360270e-03,9.793524515911098405e+00,-5.262539253874214812e-02
7.652135969133463597e-03,9.794422235868852411e+00,-6.132459837454976720e-02
7.545868523757283917e-03,9.805581609158634748e+00,-6.326509851434827802e-02
1.261254824510971932e-03,9.788721849238509520e+00,-4.933931400463790334e-02
2.399752382561936778e-03,9.792714193903943709e+00,-5.914596466154047744e-02
4.770449325350542905e-03,9.792693295429558020e+00,-6.290871259725477893e-02
-1.265516164194050407e-02,9.793386920103554161e+00,-4.747147944377903828e-02
-2.091277730291930554e-03,9.798097567587948475e+00,-5.287795981169970266e-02
9.255303863627797195e-03,9.801357274452884738e+00,-5.129079791005172057e-02
5.092087429604655151e-03,9.791012784754691722e+00,-4.854536864871693974e-02
-3.965333148433834373e-03,9.799561047639519629e+00,-6.303116210335180103e-02
-4.582672050798550570e-03,9.797985423467638455e+00,-4.479470569873268693e-02
3.536369535468957947e-04,9.799181772105100663e+00,-5.654376963318122340e-02
3.815830919811230310e-04,9.796838701252555737e+00,-4.685175911611098171e-02
-4.249155910287317865e-03,9.795704987429495247e+00,-4.784332317784905503e-02
4.416007731555483297e-03,9.794541957862779924e+00,-5.368635584077020156e-02
6.430783164631871315e-03,9.800000015371226780e+00,-5.229906234169457574e-02
8.757663059459665222e-03,9.797451724966052211e+00,-5.343397348484280052e-02
-2.311361467593630974e-03,9.803143829219218119e+00,-5.184215248632964568e-02
-9.921210910464474397e-03,9.791506736056700078e+00,-5.695018953234593645e-02
1.511198866966790601e-02,9.795485097666297492e+00,-5.168391326969908744e-02
-1.613989745245452290e-03,9.795220684185240501e+00,-4.607086452109626640e-02
9.899229249252440577e-03,9.800523188335283464e+00,-5.381985274455557133e-02
4.789642259231340592e-03,9.795068171064881923e+00,-4.589041787889969193e-02
-1.753878716756322644e-03,9.793684566859274909e+00,-5.717963876243185861e-02
4.595589092103804368e-03,9.788953592716426400e+00,-4.673167373693169757e-02
-3.286129811981176787e-03,9.794172894215687819e+00,-4.583294243650777589e-02
2.657886615155918321e-03,9.795198012338452997e+00,-4.713028089235395124e-02
2.029604168442306934e-03,9.797454734746564142e+00,-4.149193320828705595e-02
4.664502794300837835e-03,9.788351458193776722e+00,-4.382386987517070120e-02
1.663920899214944740e-04,9.801042150629356797e+00,-4.957253472154648372e-02
-5.933305173930555551e-03,9.800426743140254970e+00,-5.572624177384822436e-02
6.664641418115943572e-03,9.789630276333976866e+00,-5.286914690539055994e-02
1.328261948517574665e-03,9.794383721660363307e+00,-4.683325409594233518e-02
-3.938136401835158097e-03,9.789101304040254803e+00,-4.723669356094181704e-02
-4.940216242862384595e-03,9.794372560337670564e+00,-4.254323550430101630e-02
1.051710576699476860e-02,9.799721696054682241e+00,-5.158230696768335843e-02
-1.509880688927071760e-03,9.792307803271667055e+00,-4.712347345729568648e-02
-4.658148364260487201e-03,9.794174549152838694e+00,-4.207698249106947563e-02
6.685516296467070366e-04,9.794897970516901253e+00,-4.598453125923884777e-02
-7.616608784998081701e-03,9.797663429479410269e+00,-3.860607334446127664e-02
2.002761913216633102e-04,9.784084458831085129e+00,-3.311140690796868929e-02
3.058256635492704115e-03,9.804357092688222863e+00,-4.314726296975299885e-02
2.038200033210678993e-03,9.802758365192804746e+00,-4.000391581257056739e-02
-6.095764643632344514e-03,9.805250687611781757e+00,-5.372751039111944155e-02
-3.026568179479625486e-03,9.796699771374196786e+00,-5.155780827679506267e-02
-9.763073239185064266e-04,9.794494903560879706e+00,-4.048140862438079357e-02
-2.208850672300554686e-03,9.791875952491603030e+00,-4.849319049386222741e-02
-6.733226642642733441e-03,9.787591701110676112e+00,-4.202468990188995557e-02
-1.147407838469087157e-04,9.793690461440624162e+00,-4.681573119837266483e-02
7.748734050862520970e-03,9.793938037923346940e+00,-4.326471430503506937e-02
6.908886090502606644e-03,9.796276859106111345e+00,-4.467854559914061913e-02
-5.612101928153581318e-03,9.791273923427928239e+00,-4.275613988084952383e-02
9.658283969939921929e-03,9.799573292063469054e+00,-3.904226741289874153e-02
3.080116221034602877e-03,9.797113102029788578e+00,-4.087868644286898889e-02
8.121405734485758615e-03,9.791718836522260716e+00,-4.457943614422517353e-02
6.177305596437093413e-03,9.799486080161010193e+00,-4.995360932792186626e-02
-5.483586230257190414e-03,9.788932749790356880e+00,-4.360649770020964822e-02
7.185789868230219209e-03,9.796908415820784199e+00,-3.551654009930802630e-02
-1.986932860922227019e-03,9.782814107059140341e+00,-3.765848632325976414e-02
4.172539673133990670e-03,9.798807259662648761e+00,-3.839185575590387672e-02
3.609863478195465044e-03,9.790078979732909303e+00,-3.997475501888192451e-02
8.583838922186534486e-04,9.803358798652229922e+00,-4.860279443461238552e-02
2.852903591023958022e-03,9.799454957640278963e+00,-3.494426096126495435e-02
7.141636178229769953e-04,9.795337576584801198e+00,-4.847939161638746552e-02
-4.358793306896496193e-04,9.796182719881180390e+00,-2.776819759251459435e-02
2.400849754961007811e-03,9.791923071041063409e+00,-3.893894689791853325e-02
5.788208282610270670e-03,9.792584194411270815e+00,-4.900882929534347565e-02
2.020197004412529855e-03,9.797466578161344586e+00,-4.847213663432829722e-02
5.023220790866260617e-04,9.790561604301680987e+00,-2.607281732548661496e-02
7.358789579439601464e-03,9.791401856754573529e+00,-4.175787920132254666e-02
2.582018972212230153e-03,9.806666084067499511e+00,-4.941195443974201462e-02
6.599096736036968829e-04,9.795013278605106066e+00,-3.790401429273790312e-02
9.882574898672970981e-04,9.798206751543229842e+00,-4.530152646047750503e-02
-1.118394521048549431e-02,9.799275490177247860e+00,-3.174244896672712146e-02
3.762484896181457136e-03,9.804738480406088641e+00,-3.689002341008449509e-02
7.349365953804395772e-03,9.792904307757613225e+00,-3.692293911250366795e-02
9.970163846306881114e-03,9.801339551198370970e+00,-3.911973206042668877e-02
2.922357067217470732e-03,9.796279646698838661e+00,-4.557359930756837985e-02
-6.382858300488460437e-03,9.800688276120068210e+00,-3.944190121930232079e-02
3.363036437555544985e-03,9.795368800936174125e+00,-3.261128128764607947e-02
-3.366648973837929430e-03,9.791428894118967108e+00,-3.158698903268268576e-02
7.763008019740878264e-03,9.789116668112765041e+00,-3.863074534272260829e-02
5.041058853188369951e-03,9.789532385537768278e+00,-3.442998839460242877e-02
-7.460791322142286842e-04,9.795790861872038846e+00,-3.241918304319751226e-02
-1.204069121850191281e-03,9.790766512467367733e+00,-3.285341349323590843e-02
6.800063414847800497e-03,9.791939901024930393e+00,-3.297115213274370848e-02
2.101984213177433489e-03,9.794784727544051606e+00,-3.635514888206029666e-02
1.293977042598072613e-03,9.799244487528136816e+00,-3.867763274388939104e-02
-4.823362345703111412e-03,9.794615366766715070e+00,-3.926660698558943202e-02
-1.763031930986431366e-04,9.798897662754361804e+00,-2.983429105487631419e-02
-3.681705350641381776e-03,9.791882395548823226e+00,-2.961349004333931056e-02
-2.531990747489869069e-03,9.790891688731415243e+00,-3.588639691275711391e-02
-1.705176574492906242e-03,9.791147976182010382e+00,-4.299078844218204992e-02
5.187581126139768906e-03,9.800378540551598405e+00,-3.541263162121738306e-02
7.432159905435792996e-03,9.805850046992265590e+00,-3.479281006705450818e-02
-4.285502877815550345e-03,9.790095790461224468e+00,-3.208028025320124044e-02
4.592054288463848222e-03,9.786141486042543747e+00,-4.016883643375958324e-02
6.379153324036377845e-03,9.783217479476245870e+00,-4.168651879885936634e-02
-6.807142772858931551e-04,9.787008073217364768e+00,-3.004612104322552241e-02
-5.573086004785008860e-03,9.789715369169929460e+00,-3.069719607194528604e-02
3.722381473826105822e-03,9.796293566409387310e+00,-2.527501705786573682e-02
3.706329342156337945e-03,9.803575412810038969e+00,-3.053633837320167757e-02
6.728592610976997113e-04,9.805218920322751330e+00,-3.878578021887080229e-02
3.870520915189677204e-03,9.784130578633758901e+00,-3.361456037149521126e-02
-5.288672804379402834e-03,9.803430207638673011e+00,-3.157704449659907292e-02
-1.258136177831511429e-04,9.801791596747554181e+00,-2.998998726995581038e-02
5.990961004071488315e-03,9.802429212136669179e+00,-2.641441232822928226e-02
-2.453859040080194447e-03,9.795281776340917901e+00,-3.847565875695894283e-02
1.153124957594357097e-02,9.798594291335319895e+00,-4.209786665763644992e-02
-2.657994785222630735e-03,9.798767640279582025e+00,-2.879612845979838062e-02
3.640252826884143693e-03,9.803086536624562086e+00,-2.487438484757255666e-02
-6.569778805305718020e-03,9.793012500047487023e+00,-2.751596578042329530e-02
2.988113436662438119e-03,9.794619626774716536e+00,-3.497346667529303149e-02
5.772455466032339576e-03,9.798194956862161575e+00,-2.522883917932604997e-02
1.025822718407739219e-02,9.798036092134827513e+00,-2.966062243531559714e-02
3.138041149814037312e-03,9.791648104434095501e+00,-2.828520802240900786e-02
7.940721061440413064e-03,9.797131102758475762e+00,-4.189095117050611883e-02
-3.279214410915155115e-03,9.797426315171653854e+00,-3.042687684942423434e-02
6.016762090831067212e-04,9.791594631447756214e+00,-2.894040124479889051e-02
3.460220872675296572e-04,9.796243693249945039e+00,-3.804102467353209782e-02
3.705812446749279232e-03,9.788732821733702849e+00,-3.525664261902464874e-02
2.374571558193160764e-03,9.798466028878143774e+00,-2.526240940100009380e-02
-1.580238849027239658e-03,9.800732881497657090e+00,-2.812264835715572869e-02
3.844534704422556889e-03,9.802277436499402086e+00,-2.758624628691490333e-02
-4.456290873245509661e-03,9.788341344674813982e+00,-1.639489813678468924e-02
-1.237487665535505401e-03,9.801712998582846836e+00,-2.664911828992186718e-02
3.397231642206887184e-03,9.804855481921030957e+00,-2.180885486033169729e-02
4.575484512182048831e-03,9.794695423931177203e+00,-2.720368376959748230e-02
6.898218214558410333e-03,9.793484436407680960e+00,-3.062642713210027637e-02
-2.243383633249050255e-03,9.798161128606647452e+00,-2.808113719465560321e-02
4.778760145469033473e-03,9.807065638495570781e+00,-2.513021482707048296e-02
-9.258076923031253709e-04,9.797108518175436487e+00,-2.444016408946517172e-02
-6.272119727439707908e-04,9.793737809193785893e+00,-2.867969848112505993e-02
2.124024428976003121e-03,9.801440640923432923e+00,-2.604811285930007381e-02
8.057471949816204715e-04,9.788685568357673006e+00,-2.510108954160882727e-02
-1.011906606380915882e-03,9.795188217314072077e+00,-2.912028385953943643e-02
-4.911398195606115485e-03,9.795616997371102030e+00,-2.542161868326377541e-02
1.018826160398474817e-02,9.794047534265223121e+00,-2.500513129316088781e-02
2.106384141875058784e-03,9.800080259596454013e+00,-2.573677792174626847e-02
-9.324069387053145544e-03,9.789465315432195780e+00,-2.933899018396981390e-02
3.969170206062298464e-03,9.798300567896749413e+00,-3.779524339833401081e-02
4.385119119804042377e-03,9.799543680201525220e+00,-2.792186678162129898e-02
3.941331574621866757e-03,9.785543505968291811e+00,-2.466076666982061627e-02
9.606879975953998632e-03,9.792215254137573766e+00,-2.695244386485069754e-02
-4.870852774420108937e-03,9.792638227353981151e+00,-1.930303347704883515e-02
-1.009654390230020106e-02,9.790932700852557957e+00,-2.247726683616455001e-02
-1.887485702482955864e-03,9.787642729060580749e+00,-2.520276742271047865e-02
7.866881555823193942e-03,9.787884910002889072e+00,-1.857810239759142418e-02
-6.205479785741930578e-03,9.794783437403145498e+00,-2.213076627189872886e-02
-1.642862059262228079e-03,9.792913896163103260e+00,-2.231623325340678643e-02
9.724929300193257617e-03,9.792604666678149883e+00,-3.286614832490350468e-02
-2.046882880358236265e-03,9.802039030002676512e+00,-3.578238278996641319e-02
1.564330014043193752e-03,9.795903897565002794e+00,-1.905723442920142369e-02
-4.363046721844147805e-04,9.791041335693410730e+00,-1.902998020113098182e-02
-2.372545012011992305e-03,9.801763115053956810e+00,-2.239151046216675961e-02
5.128494158288752483e-05,9.794286885474914328e+00,-1.851370007028089321e-02
4.677457145859846219e-03,9.798372004526038737e+00,-1.947435796341678155e-02
3.703660851870656159e-03,9.794795270419513145e+00,-2.237867990346125227e-02
3.211643736582349071e-03,9.796181382871207433e+00,-1.548767513549419682e-02
-1.649145814212715560e-03,9.793357055372831965e+00,-2.202060210163978363e-02
3.547042282851593526e-03,9.791008539807361188e+00,-3.290814630167905597e-02
-2.126469314908279330e-03,9.791117850925479260e+00,-2.535612607854482309e-02
-2.436970831014596654e-03,9.799091298933172212e+00,-2.045412767188405090e-02
7.350885978810763922e-03,9.797524762765906559e+00,-1.633170695428168631e-02
-7.462135480577228135e-03,9.788437305619373419e+00,-2.064477529290679320e-02
-5.003769549190073551e-03,9.793811939289424728e+00,-2.465281415433809992e-02
-1.109014374228095394e-02,9.791199793361371917e+00,-2.555917109465787734e-02
2.379309191671890623e-03,9.801390401468275115e+00,-2.479223063925859241e-02
-6.860213256854952660e-03,9.801770042222507584e+00,-2.768179105768620724e-02
4.177004829836955015e-03,9.800177945626680653e+00,-1.977098128765270371e-02
-5.582327765985523700e-04,9.794003884609161048e+00,-1.450605451494097267e-02
2.055100993643368349e-03,9.794040463918825878e+00,-2.368808453271340625e-02
3.836150606699364335e-03,9.789700253576354427e+00,-2.841754793289465522e-02
-8.799382428603265416e-03,9.800437910262131069e+00,-1.616711313208193945e-02
-5.405356963651727041e-03,9.791149944072156330e+00,-2.294501850724552788e-02
2.514475994299292597e-03,9.787224464737519725e+00,-1.850363785848547007e-02
6.168091669502574585e-03,9.797071037964906637e+00,-2.541392938195856724e-02
-9.428480613686496953e-03,9.800511693365077548e+00,-1.317096217621843354e-02
4.312198054718342430e-03,9.800359494804464333e+00,-2.001410776130542121e-02
3.568473087724313448e-03,9.793337577181780773e+00,-2.405547157981486120e-02
-1.437098193036373929e-03,9.799201665083655755e+00,-2.675494959145769541e-02
2.614787979457014987e-03,9.795068284533085645e+00,-1.242568047382309505e-02
5.257407556712464722e-03,9.797005509000697998e+00,-1.338926134473444884e-02
3.989377865533619283e-03,9.799378373965916822e+00,-1.529522996255937642e-02
-1.154091431943882456e-03,9.802353458838723554e+00,-1.610208859502688244e-02
-1.645921632558048969e-03,9.800024410818711118e+00,-2.196456180198345237e-02
7.652167290801612475e-04,9.797906548933662307e+00,-1.821169478019995375e-02
2.710944413562265017e-03,9.796698710520985287e+00,-1.820988109699736221e-02
4.806841403722600554e-03,9.791960270715634351e+00,-2.878777516718326185e-02
2.817644490130357532e-03,9.795921223298517333e+00,-2.755463903003107021e-02
-1.449240481674366962e-02,9.794599681272616820e+00,-2.602870413192082122e-02
-5.867226235608272167e-03,9.796328863046765534e+00,-1.531497278895872088e-02
-1.830004036201913955e-03,9.798363399882720870e+00,-2.161404420960636938e-02
1.103767681085241230e-03,9.798940258569604822e+00,-1.534571305730454346e-02
3.823677240166907781e-05,9.791161361597882973e+00,-2.042537497008323558e-02
-7.016289727612602320e-03,9.790779229944629236e+00,-2.116824598728146364e-02
-8.834942536566559772e-04,9.801165892453770567e+00,-1.469697061933645382e-02
-5.432172332947167968e-03,9.799555878469693226e+00,-2.348460024479206640e-02
-1.036861352674894529e-03,9.796724013215067473e+00,-1.279107770221014212e-02
9.711111640359198095e-04,9.796494669678128986e+00,-1.385322106968742313e-02
6.974261016023237253e-03,9.798808185980876218e+00,-2.016771867588432535e-02
-3.031184496893588043e-03,9.801357892343125044e+00,-2.576252136316653507e-02
3.407780393864268684e-04,9.791424299865566283e+00,-6.322767605112482661e-03
2.211898726719047688e-03,9.795701172244157817e+00,-1.436064514059338590e-02
-2.882045868231142977e-03,9.796834320538154728e+00,-1.998717518721939215e-02
8.240010318262186439e-03,9.789332156908036708e+00,-1.937398283048716308e-02
2.689415885214195470e-03,9.785908555095801376e+00,-1.330826454103982426e-02
7.295974965952760696e-03,9.794016917625288698e+00,-1.458144602418732019e-02
-3.982580194592116613e-04,9.799625002878501689e+00,-2.818509369547345447e-02
3.892668616088410059e-04,9.802510050970242972e+00,-2.022770286997914099e-02
-6.502814041383958750e-05,9.795600963649105708e+00,-1.362509979898830076e-02
-8.610424508899384641e-03,9.792950164357126397e+00,-2.423861448332206153e-02
-7.511821212263587906e-04,9.787647138415573878e+00,-1.258496756454610677e-02
3.783785865159714932e-04,9.791728929733498177e+00,-1.913562186827455491e-02
-1.117103212541624944e-02,9.795192623288437872e+00,-1.715746186695842057e-02
1.015568329517410433e-02,9.794630964837402587e+00,-1.594256018237801345e-02
2.632802960290697714e-03,9.798558169762332071e+00,-1.843105430153621840e-02
-1.126277813779243825e-03,9.805822260631982701e+00,-1.414378144551952342e-02
-8.413402962795840830e-04,9.797037876753277530e+00,-1.811449761452079907e-02
6.312344387964826178e-03,9.793140598712410494e+00,-1.948188399245379815e-02
-2.204104523399145771e-03,9.796662769239055990e+00,-1.703818860281578265e-02
5.889402762763631081e-03,9.803541081104226507e+00,-2.112908562374532506e-02
4.338052758677270540e-03,9.795633376702555850e+00,-1.193282096016999583e-02
7.486547968271728935e-04,9.782020212974900986e+00,-1.471845763292749069e-02
-4.134685049596887284e-03,9.799590017962735544e+00,-1.051716438322287256e-02
1.045350534621470586e-03,9.784981881305835572e+00,-2.153766719738491389e-02
-2.521417953033777519e-03,9.793800071908101756e+00,-1.437949477169498530e-02
4.685478485918034841e-03,9.791618563038014145e+00,-1.090080646922773205e-02
7.177023269449263939e-04,9.793275822038330247e+00,-8.678488674472035341e-03
5.862805399491061338e-03,9.801273205737752292e+00,-6.689011538214465966e-03
5.245717499542716655e-03,9.792029695171359904e+00,-1.191326649679359806e-02
5.503835142352713275e-03,9.793135480231557111e+00,-1.306172907694779471e-02
-9.741292549398825398e-03,9.792131881493636669e+00,-1.676781302327240430e-02
-4.627142952373821186e-03,9.797072215511446913e+00,-1.747701642746388520e-02
5.214873420663435587e-03,9.796522315286312121e+00,-1.000557902993295251e-02
-2.581819007026941049e-03,9.789859451138582358e+00,-1.680404557109289876e-02
8.780303526112638850e-05,9.791687084947595210e+00,-1.568977909562632375e-02
-7.114304514203825466e-03,9.793628463746884449e+00,-1.760723205671638203e-02
-1.643057048116116411e-03,9.792663184750272976e+00,-1.309969123898740116e-02
2.004272728942485884e-03,9.805054817074420725e+00,-1.037671872052654820e-02
1.185882533575846783e-03,9.805502357551006298e+00,-1.069683409374322033e-02
1.056204033577710054e-02,9.800346066329533201e+00,-1.495189339412585257e-02
-6.804746908835218426e-03,9.796323132938182354e+00,-1.009083877195209381e-02
-1.822177579003227653e-03,9.794273481129652126e+00,-1.781122152456207988e-02
-6.801223044400364799e-03,9.792830063706272625e+00,-1.961352899444188114e-02
-7.440362934886632796e-05,9.792068823899512608e+00,-1.063782794414205174e-02
-1.064068502630395466e-03,9.799268238271345410e+00,-1.267912869250022688e-02
2.438926764737039433e-03,9.798231330864233257e+00,-9.183121431990085015e-03
-8.339820470982743650e-03,9.794557246483115875e+00,-1.901138935368371086e-02
-4.843014183382022761e-03,9.795721557958161796e+00,-2.173394954406641932e-02
-4.071045703165140396e-03,9.796419022784888853e+00,-4.652901691917418411e-03
-5.052160002659402196e-03,9.800898173056623364e+00,-1.303078074693833285e-02
2.048079909355459815e-03,9.799194682193785866e+00,-1.985008942915798130e-02
5.261921344429132050e-03,9.796916569626132443e+00,-1.121782416640908740e-02
9.144144826159737727e-04,9.802513155921248611e+00,-1.056161616866006098e-02
3.093684059527883681e-03,9.793723414281577888e+00,-7.381372061681087948e-03
4.250089550518874708e-03,9.795128521592925352e+00,-1.601060866892531007e-02
1.176318267766179437e-03,9.797007016018698167e+00,-1.149941217091121105e-02
6.615649736945131143e-03,9.789950860007689215e+00,-8.797543257570124633e-03
6.743896115428066503e-03,9.799307382809841371e+00,-1.105746212215203556e-02
-4.744170833349251395e-03,9.805442753762479313e+00,-9.016706042044422831e-03
-6.464948741105120723e-03,9.793435857144030976e+00,-1.373755734948052531e-02
-2.295779079760653773e-03,9.793215026374099352e+00,-1.704559154362342982e-02
-1.864775380527117351e-03,9.783830605928264035e+00,-1.399878468647499340e-02
-2.429856607711248064e-04,9.796609787889531518e+00,-1.090558966381703979e-02
1.165915241244463996e-02,9.804325761875796630e+00,-6.314849273187757121e-03
8.635449316190920571e-03,9.794112666377753129e+00,-1.316397683902603873e-02
-3.915782664637309195e-03,9.797783532238151238e+00,-1.159308937283395208e-02
-1.771584145534429652e-04,9.798848997845475139e+00,-9.286639559558645257e-03
-7.867652402769333662e-04,9.791925341415163686e+00,-1.197374505885729148e-02
3.888989681764455034e-03,9.798157913527528962e+00,-1.083599928201485832e-02
6.974484857881063909e-04,9.795261602546212032e+00,-5.953597237613993294e-03
2.494069259095781522e-04,9.801940874584298413e+00,-8.824832044341720735e-03
5.091732015360792354e-03,9.795616147944825158e+00,-9.621979959898059598e-03
-3.277577937048012369e-03,9.788511926023179655e+00,-1.345637928429155999e-02
-7.378856266145720523e-04,9.796019552736922265e+00,-1.402266449428427215e-02
8.939062372597392832e-04,9.793607818687057431e+00,-2.290932841753964139e-02
-3.884222900894687518e-03,9.792569725731253172e+00,-8.511560672677592060e-03
7.105383689822235629e-03,9.794609769574528002e+00,-4.521895410200058550e-03
-1.329316033095150409e-03,9.793306875079618834e+00,-9.303207646801781375e-03
-7.682719615081492863e-03,9.787097581034430505e+00,-1.464719277805287372e-02
-4.289187384805961262e-03,9.788163447253849014e+00,-2.052851625191989132e-02
6.100885906228920366e-03,9.796289605073098983e+00,-1.676332705391746225e-02
4.055652963163062195e-03,9.806506037160160005e+00,-2.889603038502193758e-03
-6.512894451055031841e-03,9.794438852819816077e+00,-9.227373946898070889e-03
5.003160727985464865e-03,9.791552343327914798e+00,-1.284883590872672177e-02
5.632085897400237887e-04,9.788844303918153855e+00,-1.396336284005896336e-02
-1.545814393149796961e-03,9.794522977329815916e+00,-3.855205173469513497e-03
-2.586643060798330361e-03,9.785562393786662483e+00,-1.117001609554761805e-02
6.907759196748690551e-03,9.796415833966110043e+00,-2.194011697423042459e-02
-6.703382992859149847e-03,9.794317528971962616e+00,-1.414962120680494755e-02
-5.261053714921739557e-04,9.794033229816665909e+00,-4.975152803576716500e-03
3.740024182990453298e-03,9.792808207260684128e+00,-5.057298342004696266e-03
1.209545507916057758e-03,9.787995564379585289e+00,-9.393703320607009466e-03
9.727484689669115003e-03,9.800097808638430052e+00,-1.113974840834640843e-02
1.271705775145036410e-03,9.785729996462434244e+00,-6.085130302892589708e-03
2.585403763367451722e-03,9.801825902138132207e+00,-8.376390951654799286e-03
-3.471588808144719825e-03,9.803254179517935540e+00,-8.141205383372899715e-03
1.704894186916977757e-03,9.790472914790781189e+00,-7.772584409267625782e-03
-1.293320415158606424e-05,9.795044625114927683e+00,-7.059668544312489892e-03
-4.688769921427378591e-03,9.799708932566309372e+00,-1.055245913988974923e-02
-8.038796232090433640e-04,9.794772015981459745e+00,-7.092124258372143990e-03
2.269997310244524242e-05,9.790093557209877062e+00,-1.367030461249328296e-02
5.734079125013027273e-03,9.795183436181007508e+00,-6.569433638931986702e-04
5.427592766716888076e-03,9.792711978096560799e+00,-1.077470609737100210e-02
3.553177766196212624e-03,9.800107700526387688e+00,-1.079995925902014174e-02
-3.639638743444253369e-03,9.794679835845444771e+00,-1.609292629191768145e-02
7.552088018156391091e-04,9.799196388773300015e+00,-8.777705484535243755e-03
-2.432729637904209718e-03,9.793582875134770660e+00,-7.337199447208436059e-03
9.109422542116139138e-03,9.793654093375900871e+00,-9.493782866061983503e-03
-1.001601499789042844e-02,9.798240594892593691e+00,-9.469043649066000504e-03
-3.700969160691724817e-03,9.791777986371915432e+00,-1.144800122903281460e-02
-3.625223422001760693e-03,9.792410046423372094e+00,-1.942778094476809228e-03
-4.370138457884667656e-03,9.794408174864951633e+00,-1.789940982847805159e-02
4.598162748635337138e-03,9.793097041669993175e+00,-7.636678440696986758e-03
-1.338719356580976919e-05,9.795146538113854717e+00,-6.745810545032463260e-03
1.948292846181733963e-03,9.792767475577978331e+00,-1.535786102236321067e-02
-9.637112711998999451e-03,9.790263457709817985e+00,-9.517798248484860349e-03
1.631894169398328317e-03,9.799122683937513401e+00,-3.116809604050673962e-03
-2.620750114224224946e-03,9.794653702467119416e+00,-2.944701327026229970e-03
3.231076230948588639e-03,9.792822856158180045e+00,-1.278311617682783077e-02
1.926652753234437982e-03,9.800099877233533263e+00,-6.615396887319116570e-03
5.112695966810616157e-04,9.797380258474058579e+00,-1.324574581086439100e-02
3.934282904064245225e-03,9.795860447154566941e+00,-1.715139059989154516e-02
-1.902942536771154132e-03,9.793046535569192912e+00,-8.178719925786115397e-03
-6.416114786234954417e-03,9.803625288798571091e+00,2.130317537258346813e-03
5.413391251128282268e-03,9.798435252911465554e+00,-9.874191844449852970e-03
3.460177502502962462e-03,9.805636852673037751e+00,-7.222004551670655088e-03
2.700679995232396161e-03,9.789276725382189071e+00,-1.057128565713117904e-02
6.909302766009996731e-04,9.796134211259703406e+00,-2.193541586032739243e-02
2.315250093080193326e-03,9.788734908464491014e+00,-1.019780677308445953e-02
4.803795919126939949e-03,9.794700361887107576e+00,-5.818510488329494725e-03
-7.908692381390622144e-04,9.794716284865806699e+00,-1.144505459691768853e-02
1.716018545342199494e-03,9.798068075769718277e+00,-9.472590147561963866e-03
-2.954741747636058409e-03,9.800094420922240701e+00,-5.688557580664275679e-03
-2.394271733132832553e-03,9.795636796351880449e+00,-1.172937739313382501e-02
-3.867778839612565772e-03,9.805497350878500384e+00,-6.192877481178343108e-03
-6.678258137864696506e-03,9.794330118594931633e+00,-5.571760491232152432e-03
5.911929790412022087e-03,9.798176988482159899e+00,-8.486098459358182647e-03
2.590477769600032457e-03,9.791843466968177978e+00,-1.053123802087047034e-02
-1.909583246850287026e-03,9.800073462811347724e+00,-1.841758285715083820e-02
4.159931025108596150e-03,9.794118357260195751e+00,-1.077592599734980561e-02
7.044916142911512510e-03,9.796420107792958021e+00,-5.043414310591719414e-03
-5.518824258805599429e-04,9.809113484952186823e+00,-4.218344900462408370e-03
6.517742948059997458e-04,9.792514424730015321e+00,-4.946792179119917018e-03
2.676467561499027044e-03,9.801524266960470300e+00,-1.245777245391072041e-02
1.217296495215534555e-02,9.788299014931993725e+00,-6.049388152807696345e-03
1.334529765734642891e-03,9.807323724814843047e+00,-1.586310616601966164e-03
3.154711056816270152e-03,9.800000236449317725e+00,-8.020468999495884710e-03
-2.944871143524623990e-03,9.793845410119672579e+00,-6.208886170503365165e-03
2.737821463192948931e-03,9.796927888191191869e+00,-2.454624333535289533e-03
4.899811832673933720e-03,9.797071358823183473e+00,-2.396589657109454707e-04
-7.417853257666001676e-03,9.792011506884023220e+00,-3.935480137458745656e-03
-4.338209253427323386e-03,9.800757566264152842e+00,-1.699414331821567231e-02
-8.518617453158781145e-04,9.805269348064163282e+00,-1.531367726242058476e-02
-2.871598548757548462e-03,9.791690129659816222e+00,-1.063055616880134377e-02
4.297479477793244955e-03,9.788193192758912531e+00,-1.425068158509793306e-02
1.338962011586560235e-03,9.792782530256356921e+00,-7.150411514015133155e-03
1.100810647219057845e-02,9.783124201244879359e+00,-7.642710806061734329e-03
-5.169096871278094571e-03,9.792316410981594998e+00,-4.708356143814497116e-03
4.597573733721935403e-03,9.793433634996175030e+00,-6.152345656577371501e-03
-3.129577706022049124e-03,9.798722575590224082e+00,-9.736631182937284176e-03
8.003893550136883736e-03,9.804721208736253857e+00,-7.994400006716098628e-03
7.221107172434519834e-03,9.791331990009670250e+00,1.793973953617523411e-03
-6.815675244427860753e-04,9.787986186813936840e+00,-9.108735547783540498e-03
3.101567681785850385e-03,9.798594981236888657e+00,-5.648155818876739176e-03
9.100963673292676928e-03,9.794699623784405063e+00,-2.801181316679464579e-03
3.242928272995991221e-03,9.797442689281554706e+00,-1.289970964625273935e-02
5.172811887559179179e-03,9.798771307992078405e+00,-4.515800984722062074e-03
3.461970803025163270e-03,9.800178655001353434e+00,-3.163557833288341975e-03
-5.032649103543167246e-03,9.796233092837296041e+00,-9.809294541054286096e-03
-1.338677407113543971e-03,9.782862773275509127e+00,-1.493987825336438174e-02
5.151115655682988320e-03,9.796530166583591992e+00,-6.783120971258303072e-03
5.636485653349883850e-03,9.791861085505200180e+00,-8.640291896948546282e-03
3.045462332590572461e-04,9.786519794216840040e+00,-1.472732048492163444e-03
-2.213146226032842220e-03,9.785378011820339950e+00,-9.835814605871715660e-03
-3.111082799807877303e-03,9.799929733164800538e+00,-6.777093341090165320e-03
1.408417426443728661e-04,9.799869011569626309e+00,-8.695835661095120336e-03
-8.396766570912339925e-04,9.798909399343942894e+00,5.346809540021472962e-05
-4.880551669633817480e-03,9.789306834425294923e+00,-1.435110241000207842e-02
-1.868877755673562695e-03,9.791633014907111132e+00,-3.391823432267916313e-03
2.553811329836221610e-04,9.791081716148019254e+00,-6.752898269025166093e-03
-4.786771517275115531e-03,9.796797406043697976e+00,5.472930377895500464e-04
-3.665145646032169462e-03,9.793310332769731730e+00,-7.601882646050890646e-03
-5.683228873327923238e-03,9.800811264959584435e+00,-1.481843803163462869e-03
5.492670384191685254e-03,9.798635097959740747e+00,-9.946860953698809238e-03
-4.825515292244769022e-03,9.792757572284086720e+00,-7.813484423594526523e-03
4.937228283995337766e-03,9.798122855761477012e+00,-5.870692532078882094e-03
-1.607131337745023713e-04,9.792437225628933817e+00,-1.497153330923480311e-02
7.187764354642141307e-03,9.783141371617247728e+00,-5.851919819302438090e-03
-3.542768710921732032e-03,9.783631110335182512e+00,-9.671293737414576527e-03
7.641278147674500929e-04,9.796923301458235755e+00,-6.517098789461598339e-03
1.268453348904835911e-03,9.795245590084332932e+00,-2.443025464992330809e-04
-1.870342226870825610e-03,9.801348877259627557e+00,1.446149369280701376e-03
-1.674520337725606900e-03,9.799021379594201164e+00,-2.513390533885260722e-02
-5.269456519069695699e-03,9.791186398415069547e+00,-1.149105269630470820e-02
4.100266445229345559e-03,9.798469447420099954e+00,1.046098091756657474e-03
6.704794166044348441e-04,9.798629590309007042e+00,-1.227846814812480827e-04
6.697274161263666072e-04,9.800848812211125249e+00,-8.256850974840707763e-04
4.152467738580436357e-03,9.788827989997466617e+00,-6.344192934190744093e-03
-5.521279384695538910e-03,9.788719033803245040e+00,-3.832456088500684789e-03
9.099611488827609104e-03,9.799367324939987967e+00,-9.738542912899805434e-03
-2.221198348158370372e-03,9.804122617318370203e+00,-5.967759971382735097e-03
-2.809365611407858669e-03,9.791289382826125376e+00,-1.175922006203854522e-04
1.425917774215717214e-03,9.796931403525910298e+00,-9.084926155044949214e-03
3.676783741208348479e-03,9.791916055941923602e+00,-6.189326469760829397e-03
3.461448104237317561e-04,9.799473595246928070e+00,-8.917627478361080801e-03
3.778086949936895582e-03,9.795609423920511816e+00,-3.340965349689560722e-03
-4.912575517301804445e-03,9.793219414279965562e+00,-2.662787769877399905e-03
5.842950864520417460e-03,9.800024019399309338e+00,-5.411161750961139896e-03
-4.424542821096799985e-03,9.796063534786160432e+00,-1.465288544834260007e-02
-3.399310197596357250e-03,9.792323767217245845e+00,2.121113303187371034e-03
5.641643381011270282e-03,9.795638849715452068e+00,-7.844366683145649610e-03
3.876519202719840625e-03,9.797034423487577470e+00,6.239425089635229627e-04
5.464034925847096463e-03,9.793878810224239118e+00,-9.933184337008148235e-03
-9.022058084161260760e-03,9.803407007915931004e+00,-4.349374153764560581e-03
2.004970843808199545e-03,9.802479458173960936e+00,-1.103832622881553704e-02
-5.833002416681434474e-03,9.789890960661548291e+00,-6.976923369166076506e-03
1.576831684465743091e-03,9.790530761522090231e+00,9.800182957811928025e-03
-4.074569935172835979e-03,9.798719218019767752e+00,-9.999534612158108085e-04
-1.171248264018571929e-03,9.800089237334507430e+00,-2.027899821391086332e-03
4.096018074682128418e-03,9.796304150743575079e+00,2.810139166847507725e-04
-4.633386210540606405e-03,9.785552623309481390e+00,-3.416125856596926528e-03
-5.965613070588834943e-03,9.796712365408405176e+00,-7.372776305014228440e-03
5.172843879876275891e-03,9.794377717869771516e+00,-4.840066997916099220e-03
-6.048822789045718009e-04,9.799106573567032186e+00,-4.195243184252895469e-03
-1.046188438897260094e-03,9.796518391443262530e+00,-2.495330219059017918e-03
7.392512781807594746e-03,9.800633944767943362e+00,-1.262027150424514799e-02
