gyro_x (deg/s),gyro_y (deg/s),gyro_z (deg/s)
2.143322739839287616e-01,5.078957856038625041e-01,5.090675080225206539e-01
-9.232936362104825212e-02,5.518545819404402364e-01,5.160211308681430520e-01
-4.011675323932122339e-01,4.573544025886873698e-01,4.740667714304374614e-01
-7.540635206360168930e-01,4.847455544925514115e-01,4.843708982244413486e-01
-1.101818610991694092e+00,4.619279834154739195e-01,4.947208729330402344e-01
-1.291657347875889927e+00,4.864106869789867060e-01,5.387047399020911120e-01
-1.716268805734273650e+00,5.216184658639501093e-01,5.374668061793648199e-01
-2.085938985202252294e+00,5.388929905781590923e-01,5.157851644267826829e-01
-2.339207413644707856e+00,4.717468295320914051e-01,4.165815747375600231e-01
-2.614371753672367849e+00,3.953048680719473684e-01,4.748210153941608280e-01
-2.966495664611675576e+00,4.086337631760084688e-01,4.522036030956716468e-01
-3.251585326207046656e+00,4.613166086709716285e-01,3.953884831677127454e-01
-3.552445482849160285e+00,4.103902637711453472e-01,4.598043997256531235e-01
-3.897152236724755969e+00,5.143809393536773467e-01,4.861016325130494420e-01
-4.158376175894367144e+00,4.816688273481563587e-01,4.262312716248175537e-01
-4.533487682548710040e+00,4.548869687775799475e-01,4.267606009946791623e-01
-4.893708691573699809e+00,3.758509697442973807e-01,4.881805460243192063e-01
-5.182876468998967034e+00,3.811632651163505137e-01,4.106884508586313709e-01
-5.523151895865677119e+00,4.463678283390566381e-01,4.632748209391334138e-01
-5.747922750593302155e+00,3.786059621690672783e-01,4.823518570507897563e-01
-6.119549406267969616e+00,4.001516194749287769e-01,3.782304122402381785e-01
-6.379139995202161018e+00,4.394818748183100254e-01,4.951064725246412945e-01
-6.755856089259586916e+00,4.707033479250184449e-01,4.040643891951787303e-01
-7.113382426436784201e+00,3.975425751308259148e-01,4.850976709145124466e-01
-7.379934249638453458e+00,4.667922056652606400e-01,4.675762106452175937e-01
-7.727254523088492810e+00,4.151892939893814805e-01,4.224171467444362005e-01
-8.033128858401514805e+00,4.362152668633884622e-01,4.749687275074189197e-01
-8.322787512325783510e+00,3.641818669903636452e-01,4.049744878901262446e-01
-8.626494571353282126e+00,3.789713299373672073e-01,4.187611785382401308e-01
-8.926267942874742900e+00,4.845086560659784825e-01,4.680808410908505746e-01
-9.268744622000621547e+00,4.138333834413877588e-01,4.556254745356390079e-01
-9.532004100359923626e+00,3.728703667361588092e-01,3.714119989629238727e-01
-9.875787391487435229e+00,3.067796815290720902e-01,3.501306044086416880e-01
-1.019110267396333924e+01,4.512637050647544945e-01,4.354752431897964127e-01
-1.053855545902969659e+01,4.398910688111418721e-01,3.868250189590685673e-01
-1.087545234129951943e+01,4.188368958362758132e-01,3.451507428036333924e-01
-1.114947435763536809e+01,3.677334248873738165e-01,3.804335123491841553e-01
-1.148210568830182510e+01,4.323417151072952436e-01,4.277190307510242429e-01
-1.182697233929558323e+01,2.772627925335114374e-01,3.901003183775799688e-01
-1.202288968331160923e+01,4.045487250267388313e-01,3.569194791292742419e-01
-1.234649127628826548e+01,3.021165048270389453e-01,3.404985551149602996e-01
-1.268248476267623914e+01,3.371057418261382832e-01,3.680391502657434644e-01
-1.305741595821544898e+01,3.898476432089825194e-01,3.777834691646183018e-01
-1.338946636012026303e+01,4.275227582284737426e-01,3.957844851452238522e-01
-1.368946325329921088e+01,4.019713703296030616e-01,3.340298174605738080e-01
-1.393214653279985704e+01,3.423025742981497532e-01,3.948963064363998354e-01
-1.424133402064292930e+01,3.644964749823244032e-01,3.444489706197539358e-01
-1.464321332121797603e+01,3.052950965429164776e-01,3.769772808528119579e-01
-1.492345416608484499e+01,2.907830720940855485e-01,3.481811994932473842e-01
-1.527008939552586320e+01,3.451819272969646191e-01,4.067043624757726850e-01
-1.558633733404362864e+01,2.854288472294276846e-01,3.280216556037685582e-01
-1.596478147781284562e+01,3.052678941312083616e-01,2.800250839825552673e-01
-1.615701956170668296e+01,3.379578070398149836e-01,3.533670020156572389e-01
-1.649753421812450682e+01,3.315147973610925169e-01,3.650803792874772191e-01
-1.686927375701008103e+01,2.757055007570486382e-01,3.454822147237245900e-01
-1.715648734259106334e+01,3.340555057453190591e-01,3.490667775256930949e-01
-1.746445307494555621e+01,3.729956412748716144e-01,3.432049073318029220e-01
-1.782623192963075098e+01,3.103082930800990513e-01,3.753836342520580072e-01
-1.807767908229356379e+01,3.887588266530583314e-01,3.958311865650952499e-01
-1.837430764918493864e+01,3.262363304602188818e-01,2.105207583895299106e-01
-1.872506716459413312e+01,4.377512222887725013e-01,2.871981170467914901e-01
-1.900329646989662180e+01,3.750308728394394220e-01,3.745929448414170859e-01
-1.934190139262361896e+01,3.136124182974205366e-01,3.424689201546279316e-01
-1.963067933244779795e+01,3.420400693759840238e-01,2.850374503952737837e-01
-2.000731732550277542e+01,2.960867262976087377e-01,2.702160522222094019e-01
-2.028923343848594385e+01,2.442724609027655536e-01,2.890776918304728271e-01
-2.057336304030549456e+01,3.523923394043361190e-01,2.693637874755575590e-01
-2.089125644691726791e+01,3.228435102595042516e-01,3.170878649337678379e-01
-2.125813393976354604e+01,3.012082154258801658e-01,3.109821144745207877e-01
-2.161061082880490503e+01,2.942982363272749757e-01,2.786201669793689772e-01
-2.182353872289831997e+01,2.728579789991504301e-01,2.945962191418619036e-01
-2.211332712590178318e+01,3.062292612618466303e-01,2.903271368851893519e-01
-2.251320989937325834e+01,3.036511832935284705e-01,2.363659645576240698e-01
-2.270482601191101324e+01,2.215340306191239950e-01,2.817161600742760230e-01
-2.315612757120960197e+01,2.695957650660060212e-01,2.881465697038058660e-01
-2.338119630135383176e+01,3.425178406326967462e-01,3.341686485664080442e-01
-2.384755765898449908e+01,2.378749485947884990e-01,2.696104782534168853e-01
-2.409951260065730239e+01,2.155634724023525184e-01,2.182445728532609597e-01
-2.440366200292075760e+01,1.902409178093433517e-01,3.181295400509646654e-01
-2.474579500630325057e+01,2.799572355062203699e-01,2.738559922901270816e-01
-2.504696051211313446e+01,2.574014165602653281e-01,2.795132896451157367e-01
-2.538429304368695938e+01,2.777917686332366243e-01,2.786674015478880495e-01
-2.562512612170754522e+01,3.239155935928780816e-01,2.617778330776668327e-01
-2.600228547270633683e+01,2.753217355227560170e-01,2.833861156943325299e-01
-2.628056046089687925e+01,2.673246856479795652e-01,2.583446545731011845e-01
-2.659478676092831861e+01,2.559829439266253504e-01,2.662041876771027438e-01
-2.695949882160500266e+01,2.194328536802900298e-01,1.657558299660136514e-01
-2.724133577632310477e+01,2.766419068530091008e-01,2.917111298996987179e-01
-2.758113308982065703e+01,2.359563541994987024e-01,2.983767052710995515e-01
-2.783461613617249597e+01,2.054338550113663509e-01,2.620210951513031739e-01
-2.821335927887885120e+01,2.576467840970608214e-01,1.805734200004153467e-01
-2.843454290556111985e+01,2.660434274463221449e-01,2.269617426589106701e-01
-2.877961768013377153e+01,2.826587363487187421e-01,2.911409465138964370e-01
-2.908575700333502212e+01,2.957748570023784329e-01,2.792646307003454620e-01
-2.945078191045391947e+01,1.080746673033616684e-01,2.276914106830443540e-01
-2.977397250638069082e+01,2.494217174797016268e-01,2.443481789281437833e-01
-3.011429838609322829e+01,2.706380725979362634e-01,2.792931432316894114e-01
-3.036819469519828019e+01,1.911964559675705388e-01,2.920060423412326744e-01
-3.068769094697714195e+01,2.319231338157319577e-01,1.708374096389163599e-01
-3.099175127050237322e+01,2.092263699949311329e-01,2.051132416391055202e-01
-3.129431996717623932e+01,2.491385327372748204e-01,2.355409458951036317e-01
-3.162040739124550015e+01,1.691235726879622980e-01,1.499691537052449397e-01
-3.194221812062343702e+01,2.996565751886194895e-01,2.027564248360533561e-01
-3.236799149148879451e+01,1.704034465199187054e-01,2.382766526532310303e-01
-3.265787305743018010e+01,2.685570984295904129e-01,1.939801746520558867e-01
-3.287035047864873860e+01,1.986337850446301401e-01,1.844273681628011419e-01
-3.320429631125079339e+01,1.646699172251873400e-01,1.564141785610085877e-01
-3.361902570065623053e+01,1.442253047245644626e-01,2.175071093338941941e-01
-3.381301971047805921e+01,2.354048469471989591e-01,1.980673636432698781e-01
-3.413110756425876957e+01,1.153950016442513854e-01,1.293678461152358850e-01
-3.441989236449342116e+01,2.630713517786911759e-01,1.937369254132226271e-01
-3.484178383031041903e+01,1.495410335940766666e-01,1.390095531432765097e-01
-3.512986514014988160e+01,1.703949166843858054e-01,1.869166655649979192e-01
-3.545794657960411911e+01,1.601484725241233975e-01,2.414633066711342479e-01
-3.570432914727529550e+01,2.487200216490076943e-01,1.585284880321169154e-01
-3.599426864058111164e+01,1.837832984487079713e-01,1.867928514362645342e-01
-3.625892220982223080e+01,1.718364479355486973e-01,1.757122730572748814e-01
-3.649760499100639777e+01,1.437349649977890942e-01,2.049358784766412700e-01
-3.656058699177216909e+01,1.688242737006876160e-01,2.364341449799455819e-01
-3.666921474256962199e+01,1.649808370177836825e-01,2.101643129887263428e-01
-3.680010660504284203e+01,1.801922734469867116e-01,1.873833474254077425e-01
-3.678663295460812321e+01,1.535247020735380497e-01,1.815043067659823650e-01
-3.689918819946902317e+01,2.035340729465147658e-01,1.763397571343049974e-01
-3.683745133316825360e+01,1.433797487340165155e-01,1.673279677950132160e-01
-3.685543437774988007e+01,1.394815266377760210e-01,1.826830020174658176e-01
-3.686362616933566727e+01,1.470685960188115593e-01,1.841740879927512287e-01
-3.685486716899288240e+01,1.442817113519078431e-01,2.179382987724780840e-01
-3.677231376376271754e+01,1.814590053085622101e-01,5.280112781234570091e-02
-3.673409343135033112e+01,1.430752188499573030e-01,1.716596163694646404e-01
-3.661860102535428041e+01,1.874093673543985317e-01,1.818609431741958493e-01
-3.650951458534845528e+01,1.676218671540476712e-01,1.786585991621258973e-01
-3.643648275384809665e+01,2.103444566444578334e-01,1.796077756627475763e-01
-3.631328546555675274e+01,9.833650253788525641e-02,1.944328162107684665e-01
-3.622411713984926962e+01,1.885063965125953200e-01,1.945838446984842485e-01
-3.609012989341703559e+01,1.105370341992688854e-01,1.930556393454772313e-01
-3.596505151137459677e+01,1.214436321975965738e-01,2.688771068714658208e-01
-3.586476579833012579e+01,1.848958809699202399e-01,2.010558170003264589e-01
-3.580457516824409225e+01,1.611377836788637774e-01,1.840717346681104982e-01
-3.546937067396566334e+01,1.855823615773851132e-01,2.149393025547058633e-01
-3.541817020426443463e+01,8.005689318764058759e-02,1.144968332879263279e-01
-3.529408950185281668e+01,1.894821628663524160e-01,1.454909661750667105e-01
-3.501347853715735425e+01,2.301051498807474560e-01,1.716446982750498840e-01
-3.496942685081086211e+01,1.930376194472132878e-01,1.907384677239455928e-01
-3.483251863358366762e+01,2.827754491419495753e-01,1.077378999605531767e-01
-3.465381166132749513e+01,1.771397129748313037e-01,1.471334583134787655e-01
-3.441970541284560881e+01,1.344616365957610749e-01,1.304236612936524042e-01
-3.428291396469783336e+01,1.786718675944352075e-01,1.847425321555609679e-01
-3.413620833565213530e+01,1.850065467085915127e-01,2.955760981726068826e-01
-3.403484785226687848e+01,1.891848779807681624e-01,1.768966757125856604e-01
-3.379603210473776187e+01,1.874499410634168362e-01,1.596610900698269553e-01
-3.359743877626303998e+01,1.772161425191631778e-01,1.494692477597678038e-01
-3.341655317082946652e+01,1.032015227352734016e-01,2.168139992981314712e-01
-3.330588060122111216e+01,2.407172125638737670e-01,1.408489483151075805e-01
-3.313813423754183418e+01,2.335562099377581913e-01,2.475913153348508755e-01
-3.296132277642262665e+01,2.021083473097519678e-01,1.950327072280076957e-01
-3.278663197087659853e+01,1.752355376281887478e-01,1.687368689605401595e-01
-3.261867520075887938e+01,2.012475440188929154e-01,2.506786131401192441e-01
-3.244599967159824416e+01,2.699230910027054509e-01,1.878042498461922061e-01
-3.226537494855222832e+01,1.394064972772542099e-01,2.259192260369719540e-01
-3.208034880525426757e+01,2.383663422757855421e-01,2.440963427805891983e-01
-3.190497078158085742e+01,2.266356902181924926e-01,1.864087070842982141e-01
-3.172740603394658265e+01,1.440412014182099187e-01,2.255043852830486695e-01
-3.161066774366495835e+01,2.740570945449980478e-01,1.802745617195307959e-01
-3.141783916671768395e+01,1.520474643619539046e-01,1.601912776254379445e-01
-3.131381435647199396e+01,2.459236812877377276e-01,1.583545960568594202e-01
-3.110523276593423958e+01,1.882137629480182817e-01,3.143764215951257435e-01
-3.099837571328410490e+01,2.376626181447926422e-01,1.985597663847387118e-01
-3.083238938190807588e+01,2.024678527524014227e-01,2.609999652811466064e-01
-3.064573664015548005e+01,2.050419680769365594e-01,2.495735600450914582e-01
-3.050166463589876287e+01,2.229674808637698569e-01,1.777759128313787240e-01
-3.028804543712309894e+01,1.462249745180867477e-01,2.405047273403710106e-01
-3.012288656970334344e+01,2.256444720228838741e-01,1.869904361919101643e-01
-3.003192286472932082e+01,1.596009533672123060e-01,2.648920313983995634e-01
-2.980815423388122909e+01,2.395582441870676427e-01,2.823643375559747870e-01
-2.974211843975205838e+01,2.161692020695159255e-01,2.340722843633798456e-01
-2.958091583346417153e+01,1.850643983164512174e-01,1.962960170898340184e-01
-2.931454058000511509e+01,2.705345449919894785e-01,2.435852945255577717e-01
-2.925570138977546009e+01,1.752799111794879350e-01,2.331456995584205161e-01
-2.905162517850123294e+01,1.939679824669452990e-01,1.841513142863669683e-01
-2.890258048059996199e+01,2.000156224037025754e-01,1.981954845861518821e-01
-2.869562848639915487e+01,2.500012980819678599e-01,2.814676153194755615e-01
-2.859358261027279724e+01,2.561050637122972429e-01,2.376447696133204834e-01
-2.846104951177267850e+01,2.377354910373724872e-01,2.710195626373192446e-01
-2.837234129398846960e+01,3.422437733281870620e-01,2.298265718595780271e-01
-2.813140869159797219e+01,2.845901074423312638e-01,2.122755568451972497e-01
-2.798466918356368893e+01,1.648526563871249850e-01,2.485063100804319747e-01
-2.787702054565511389e+01,3.214251762182518402e-01,2.605048533250397536e-01
-2.774990507660369943e+01,1.836275179023045545e-01,2.899025684490520449e-01
-2.754714762779071435e+01,2.470882244412135054e-01,2.138411246916168684e-01
-2.746790829253551891e+01,2.585519243415368429e-01,2.891810586300272434e-01
-2.719855294004725010e+01,2.383555414107360049e-01,2.411529760101284170e-01
-2.711331359021812304e+01,3.276095598663154029e-01,2.094506019371727146e-01
-2.703041803948315902e+01,2.104164855271837831e-01,1.599691744490068235e-01
-2.687292615168493626e+01,2.262672225821898975e-01,2.017996824996605154e-01
-2.660288848505330961e+01,2.104002491184655266e-01,2.612258678855128302e-01
-2.647707590033036240e+01,2.812544724707919386e-01,2.057694158115436212e-01
-2.643498382157886084e+01,2.714012818154887263e-01,3.351925828419766162e-01
-2.625516415886777111e+01,3.331875270625735408e-01,2.602533598518387281e-01
-2.612837161644476680e+01,2.038158965312740489e-01,2.616193199219886134e-01
-2.599119301435198537e+01,2.510417042247197750e-01,2.498689413963584016e-01
-2.585463253048174792e+01,2.441755572317150791e-01,2.166866287954646308e-01
-2.567914341080804874e+01,2.328395326783124775e-01,2.446954859735371024e-01
-2.559280501616613179e+01,2.706269984742215584e-01,2.273050318526838032e-01
-2.545381024301781991e+01,2.711625652553070198e-01,2.770797581112162677e-01
-2.523137492655832048e+01,2.983368942697776638e-01,2.923432568079149529e-01
-2.514388742448068115e+01,3.060792577225006639e-01,2.469031265119688845e-01
-2.498356320908040828e+01,3.277737176181562129e-01,2.592342079069487881e-01
-2.484104870572816282e+01,3.140997356501389892e-01,3.333741403044211404e-01
-2.472837210413664621e+01,2.799746596457641235e-01,2.901211985664733373e-01
-2.462294728129163701e+01,2.766781553276906891e-01,3.299831744769655129e-01
-2.447930071234441129e+01,3.235393694360112482e-01,2.565436325113934490e-01
-2.435724717610647971e+01,2.618176888749955689e-01,2.340056335148402999e-01
-2.425417121420995059e+01,2.471297225883859472e-01,3.087704265175345020e-01
-2.417766447968886823e+01,1.587901682902294054e-01,2.772614095933355061e-01
-2.392263271464414842e+01,3.695760658345380034e-01,2.051042768507670699e-01
-2.385597914749744319e+01,1.628359668851431796e-01,2.834313471612668334e-01
-2.372277404210971952e+01,2.270225383277569287e-01,2.214775376725605371e-01
-2.355783610015397045e+01,2.361584959204525991e-01,3.119220481982777349e-01
-2.337445337830743597e+01,3.206275568470038362e-01,2.340004537644543581e-01
-2.341683096629880723e+01,2.605723972154407875e-01,3.595151877287662834e-01
-2.320621137987976823e+01,1.601333124718796463e-01,2.703787359417611502e-01
-2.305274332457161535e+01,2.877893403225214586e-01,3.296323503354995355e-01
-2.296870021752246771e+01,2.347091042444781894e-01,2.656036171668219592e-01
-2.287841880815482654e+01,3.298971635505562605e-01,2.916188441799253406e-01
-2.267303568867726682e+01,2.979603023223018621e-01,2.954543702519304427e-01
-2.256721461490210245e+01,3.482282002215673078e-01,3.231954594278569903e-01
-2.246351161964004817e+01,3.236099764357635022e-01,2.503852049949704672e-01
-2.238809504481141843e+01,3.936815207632958780e-01,3.525443424931801184e-01
-2.224958377860403047e+01,2.747045243291498240e-01,2.758434504922204211e-01
-2.210490914477992419e+01,3.013601599233722284e-01,2.475068173245189573e-01
-2.207633553606406096e+01,3.445689399655478269e-01,2.874570312947360429e-01
-2.188730859257609396e+01,2.459621646628334379e-01,2.660940025893378524e-01
-2.180266653550274114e+01,3.629471650504847435e-01,3.157534350641698628e-01
-2.165630462856912786e+01,2.104527499565300441e-01,3.204981658070596429e-01
-2.161117119652148943e+01,3.672319235669069259e-01,3.059479300299463578e-01
-2.138255993366631813e+01,2.933947650048880917e-01,2.916361566043669251e-01
-2.127070433382453274e+01,2.935156475369015139e-01,3.820523148739945474e-01
-2.117529519852151765e+01,3.035840034521877784e-01,2.905613786326788350e-01
-2.106676231262364141e+01,3.296050046693885238e-01,2.794076837309069639e-01
-2.085043508040231686e+01,2.523863177245906919e-01,3.705979122819231808e-01
-2.081797219544083077e+01,3.391377509255805167e-01,2.465201596207382551e-01
-2.081041866837215792e+01,3.114472046339153422e-01,2.962209145245309760e-01
-2.059336284680800588e+01,2.912606939419462027e-01,3.739044629587084390e-01
-2.044202789537854059e+01,2.910699660390805299e-01,3.388238741930686415e-01
-2.039620817748443571e+01,2.893024392446784665e-01,2.699884942398224630e-01
-2.035468686439260111e+01,3.195847973630294714e-01,3.559182434380016580e-01
-2.017269715660410512e+01,2.876187619838091458e-01,3.691381148650518251e-01
-2.009109670362864009e+01,3.014900549137438102e-01,2.773523536416355184e-01
-1.992221989629106815e+01,2.811497227411998145e-01,3.740219988159552145e-01
-1.988115692166686443e+01,3.813015956307854726e-01,3.326196099349535973e-01
-1.978377452277400295e+01,2.984726290069684151e-01,2.903951606972384747e-01
-1.963164427156408109e+01,3.257008349951127091e-01,3.187251170585169158e-01
-1.958685011988092484e+01,3.176174268044499871e-01,4.333752620843742687e-01
-1.946480650799298928e+01,3.103932190297475913e-01,3.133213139103528388e-01
-1.927055102965940137e+01,2.995571717570143511e-01,3.005308627658251908e-01
-1.919302575721221871e+01,2.993101850655545682e-01,4.092229816169122292e-01
-1.913187062745441480e+01,3.588525180808889714e-01,3.096020134279150460e-01
-1.895208761157801902e+01,2.943083330665691166e-01,3.501413555955609769e-01
-1.893641394624905772e+01,2.921370400731624350e-01,3.271904147547949337e-01
-1.876850816947904121e+01,3.633782477684454615e-01,3.822500775317402288e-01
-1.861138457733398610e+01,3.622984330546709653e-01,3.935504383045078103e-01
-1.855974890735147653e+01,4.079573487329372083e-01,2.811612851498654919e-01
-1.847507668637430811e+01,2.736587330343540625e-01,3.073502337297199238e-01
-1.842302646838004421e+01,4.059035603450943941e-01,3.478480771235717972e-01
-1.827243152604889431e+01,2.842306157320410032e-01,3.430788074900397722e-01
-1.821575933668258784e+01,2.733508082505701764e-01,3.823921036635089532e-01
-1.806967434174829634e+01,3.470826246776662627e-01,2.977847095836132496e-01
-1.798543870513789500e+01,2.783777622252129325e-01,3.813390776467998622e-01
-1.791314547724070039e+01,3.759542199878906366e-01,2.912383766956719855e-01
-1.775913115622937966e+01,2.970256681536794785e-01,4.045154824379738612e-01
-1.777854439578038992e+01,3.468708913546544315e-01,2.803466176435632784e-01
-1.760552779925686906e+01,3.477719442379497150e-01,3.485312125617597290e-01
-1.743890305072086733e+01,2.496906581693577321e-01,3.384236616178297186e-01
-1.742044486765967193e+01,3.276522655174207155e-01,3.801901089427594527e-01
-1.733015686310958614e+01,3.364851577375141400e-01,3.127662333098429892e-01
-1.724847164444063807e+01,3.853666684637058193e-01,2.639928005244008835e-01
-1.717843452604016719e+01,3.150274043555131853e-01,3.085863048800117636e-01
-1.707594086225386221e+01,3.374730228970049262e-01,3.886726175679797723e-01
-1.694852754004782014e+01,3.381589923492097638e-01,3.602448827501806838e-01
-1.684537801716362182e+01,3.282997645971574285e-01,3.176035075531629115e-01
-1.673027317791536106e+01,2.638172869543198851e-01,4.197699158431611455e-01
-1.665528783727895501e+01,3.604196813851106018e-01,3.697909036034296992e-01
-1.663850380254997319e+01,3.013271467854473640e-01,3.387574231032033922e-01
-1.646017253361659982e+01,3.911637382686267150e-01,3.076656617632566593e-01
-1.635779530953764649e+01,4.139405260363155925e-01,3.241553860954374255e-01
-1.629732976811871836e+01,3.389762511567635528e-01,3.612447494391670122e-01
-1.628597218561705162e+01,3.115598149913767489e-01,3.376564533662668732e-01
-1.616897007198320679e+01,3.826882776753443571e-01,2.766513773621789296e-01
-1.602493522797276526e+01,3.697720235651743570e-01,2.929105686109377826e-01
-1.599842936094182200e+01,3.231698535493922053e-01,4.188048583742825515e-01
-1.590904120312272596e+01,3.485851271561896114e-01,4.021185443755004862e-01
-1.579438738216692073e+01,3.508790693116127235e-01,3.742281573359507729e-01
-1.566924401676476997e+01,4.683340627579007376e-01,4.167225910366391117e-01
-1.564101184209416573e+01,3.668959691450144889e-01,2.579967967011360663e-01
-1.554245603272611476e+01,3.077584397708639785e-01,3.554449923868704397e-01
-1.544520310586363721e+01,3.374620549225066379e-01,3.707778543994478815e-01
-1.536389816234198591e+01,3.687308069596325621e-01,2.598231910731262362e-01
-1.529324724242217926e+01,3.760732297027243320e-01,3.564485226672299278e-01
-1.515286308660566661e+01,3.484494632968204164e-01,3.629310010609674841e-01
-1.522496396251418815e+01,3.685317949791938053e-01,3.089095579387203805e-01
-1.510545161505464051e+01,3.926847830089511548e-01,3.547041787354436870e-01
-1.500783219393249723e+01,2.942363231492114428e-01,3.747608019776731969e-01
-1.488743631826850944e+01,3.233868301141110124e-01,3.728686006640498651e-01
-1.480352526036011085e+01,3.435393291590740361e-01,4.034314592667678223e-01
-1.479490256428294259e+01,3.038004759732191307e-01,3.784832758419122145e-01
-1.468092089674645351e+01,4.082734276090903558e-01,3.324905087350976118e-01
-1.456732079924099565e+01,4.236154133128661736e-01,3.731242688342247260e-01
-1.449747872482784672e+01,3.145122212966266484e-01,3.591973928544894279e-01
-1.440289766703640773e+01,3.415677695963668659e-01,3.350220900052202633e-01
-1.438382801115698051e+01,4.134861952657182815e-01,3.166709841695001248e-01
-1.429001623492570694e+01,4.164407251740939730e-01,3.117229172084907129e-01
-1.410504974485565555e+01,3.126605355156513166e-01,3.809421677250280913e-01
-1.410694937758770351e+01,3.733043344618456327e-01,3.416316656179124722e-01
-1.400528897894033165e+01,3.282256052739128127e-01,3.405667731482604488e-01
-1.395516318635788089e+01,3.738298120435299410e-01,4.096403848609851406e-01
-1.391244325305017604e+01,4.066750302219966362e-01,3.330333698798964015e-01
-1.377519239587001820e+01,3.065234259273021400e-01,3.100693301545109359e-01
-1.375837885332116528e+01,3.801919394712470757e-01,3.969731745405509771e-01
-1.366941564781821761e+01,4.070673550739956070e-01,4.131575824871282498e-01
-1.363553020051821107e+01,3.971521127382450222e-01,3.273106702300768722e-01
-1.341253810941386782e+01,3.346917653597235032e-01,3.220228562326873378e-01
-1.333929547996130793e+01,3.548790846623312567e-01,4.110914410714621714e-01
-1.344313451045582219e+01,3.454736773471142608e-01,3.986984366451835626e-01
-1.324967081035090821e+01,3.516791749538221712e-01,3.860303128750215418e-01
-1.321777184798514249e+01,3.795322349735064105e-01,3.517804121984873800e-01
-1.308573520368156373e+01,3.819389837245115715e-01,3.638997849138347895e-01
-1.308835318421867200e+01,4.541725203035531511e-01,3.318748919263989627e-01
-1.299631083050820735e+01,2.688992236903348099e-01,3.985852781747560303e-01
-1.293687828557080799e+01,3.467124730078382511e-01,3.672985129463124387e-01
-1.287440544658355535e+01,3.128611062782084007e-01,4.134915009399093289e-01
-1.279269668902577983e+01,3.518514589202528797e-01,3.093830956375284713e-01
-1.271310351812890005e+01,3.234170221249251242e-01,4.685851159192348514e-01
-1.264314595874830971e+01,3.935853295331446233e-01,4.232810253286998226e-01
-1.264171722050729407e+01,4.125761041229627502e-01,4.018561255239606611e-01
-1.254729012088595042e+01,3.653334771442038331e-01,4.067535580314858845e-01
-1.245206142403942984e+01,4.349577841589796767e-01,4.533729210264991205e-01
-1.237033581400526216e+01,3.933724056737392116e-01,3.759716554998999705e-01
-1.241326767921412788e+01,3.644724299378925281e-01,3.820951625457980616e-01
-1.224189378740636513e+01,3.523879874582240279e-01,4.009862919415300708e-01
-1.214311304895583987e+01,3.777672916627691779e-01,3.873875178316052992e-01
-1.206419613942124514e+01,4.248546510724128256e-01,4.271767174827473257e-01
-1.207694453385765421e+01,4.079097732490660766e-01,3.660421837672419576e-01
-1.195051904658192754e+01,4.444356592902329872e-01,3.990033259316019820e-01
-1.188907732874353762e+01,3.541312805580965617e-01,3.651013938126206337e-01
-1.182254237916886552e+01,3.846646580216251943e-01,3.343031303317394176e-01
-1.173061040532133248e+01,3.866713581856202619e-01,4.281637901977620175e-01
-1.171881072591739681e+01,3.952149096571627163e-01,4.131610974782822798e-01
-1.169328111071328102e+01,3.778292863418248881e-01,3.636520502833155422e-01
-1.162557613141458290e+01,3.696142735957165248e-01,3.990106767218095096e-01
-1.155133790177629471e+01,5.205226916688221461e-01,4.147623752276070608e-01
-1.152121910979508357e+01,3.767466806775686128e-01,3.989441943835683180e-01
-1.135274727286446250e+01,3.698036465334189060e-01,3.846885347160097224e-01
-1.136642701149381907e+01,3.745691802243828472e-01,4.193301297927798932e-01
-1.132781148449654296e+01,4.503145408496435631e-01,3.959794999505452662e-01
-1.115335151065099417e+01,3.682232745588847611e-01,4.149322486877850547e-01
-1.104817379448862980e+01,3.695946332489610797e-01,4.075554127336056265e-01
-1.113813205724553512e+01,3.708435002055747720e-01,4.239019336421702699e-01
-1.101136278859417672e+01,3.978194508091560389e-01,4.051210029831720516e-01
-1.094866346331243534e+01,4.434267057637704679e-01,3.987765521466714591e-01
-1.090332097483496732e+01,3.539051505491050964e-01,4.219558109837342474e-01
-1.083418490011139212e+01,4.253664658106293683e-01,3.420989014662002003e-01
-1.077343559757784952e+01,3.787727889707773743e-01,4.062368347757571163e-01
-1.069839859489243672e+01,4.690190266424524856e-01,4.327137390232199676e-01
-1.068199259875147078e+01,2.895682939835421688e-01,2.671874404710368744e-01
-1.059954984642295095e+01,3.833547199049052723e-01,3.687237710226313192e-01
-1.046605246964014491e+01,4.022229743193410645e-01,3.359664562923130871e-01
-1.050584030812475156e+01,4.195498481490431142e-01,4.340784389773605367e-01
-1.045339815136987305e+01,3.624166308876560216e-01,4.227997273791819777e-01
-1.033876684015759295e+01,3.625522355037330557e-01,3.996363336366489660e-01
-1.036676563519035810e+01,4.167317798693784270e-01,4.514266356709988326e-01
-1.014334186199997490e+01,3.607701611815259946e-01,4.572696493809596530e-01
-1.018185661407386711e+01,3.464629888576190031e-01,4.534040662591541371e-01
-1.019095622910920440e+01,3.401571265806014877e-01,3.902509308600384808e-01
-1.004673657154312849e+01,3.358324510757088044e-01,4.825857451636711426e-01
-1.003329934606397877e+01,3.887219002338832552e-01,5.007991541071891151e-01
-9.968521085723491382e+00,4.216193162247433013e-01,3.726979397617149470e-01
-9.944396008783041196e+00,3.412705126754938534e-01,4.449068762195300120e-01
-9.854898152356266650e+00,3.985484521958488902e-01,3.697219575178383177e-01
-9.828519495129148353e+00,3.195911208526663327e-01,4.092016211761690947e-01
-9.724370723440983966e+00,3.878320142143151794e-01,3.444642904539762518e-01
-9.837622325425678937e+00,4.696257351825168791e-01,4.052458138527012532e-01
-9.637483160236870461e+00,4.167899643088477935e-01,4.737561055376544594e-01
-9.589192745558179354e+00,4.572059186781609608e-01,4.524090648516579383e-01
-9.517384124305921844e+00,4.113876280968264965e-01,3.997325846180811437e-01
-9.550688850801114071e+00,4.028131625992008580e-01,3.403015626937924698e-01
-9.507178185851376639e+00,3.391048660078171406e-01,3.680637323412976891e-01
-9.449970395765120657e+00,3.229608431508729782e-01,4.340282823536281143e-01
-9.350426244146866850e+00,4.353134736689474593e-01,3.739616895923351114e-01
-9.211374936193804430e+00,4.322397332214584220e-01,3.899026871416574891e-01
-9.276363447427236508e+00,4.311420430671559778e-01,3.700546015363508356e-01
-9.190797843123933220e+00,3.496190684856067543e-01,4.588330359192300811e-01
-9.135662125219525365e+00,4.438527507981576137e-01,4.123202131917709234e-01
-9.047469145057300821e+00,3.835142321257450915e-01,4.043234376729853974e-01
-9.064471752138132388e+00,3.714094823909378507e-01,4.088292032561778311e-01
-9.032607663983297286e+00,3.640192688788889686e-01,4.212338965606783336e-01
-8.951068595669390504e+00,5.068787603124864649e-01,4.404200975544720342e-01
-8.957169483026197199e+00,3.890383569000500086e-01,4.163702009658252767e-01
-8.813731633478655070e+00,4.101550902650314412e-01,4.749044802804486265e-01
-8.873082556662447828e+00,4.137852468954211216e-01,4.147285185331608393e-01
-8.837070625524232170e+00,4.182263753720197874e-01,3.588514744544989976e-01
-8.776555015892920864e+00,3.583822501670847482e-01,3.931754102785960381e-01
-8.615489371337686109e+00,3.844521471425506598e-01,4.002435515508422359e-01
-8.592291241632013410e+00,4.377113872268919015e-01,4.477954458277558225e-01
-8.558688747396947960e+00,4.057216706270089790e-01,4.769478351425540663e-01
-8.527373721451711575e+00,4.081130550198787676e-01,4.305563913112809282e-01
-8.471475726277311935e+00,3.429612665404840333e-01,3.957583925043268724e-01
-8.346653840086752041e+00,4.012842895148521771e-01,5.188044362498448470e-01
-8.337996126916635831e+00,4.894644675766860464e-01,4.004951230819319696e-01
-8.372188177992034852e+00,4.432836978619313362e-01,4.475536165970847580e-01
-8.289608995348277887e+00,4.043112719137409439e-01,4.973578777177573018e-01
-8.294368079955640738e+00,5.001198923233367566e-01,4.395064214962885463e-01
-8.147047820323525258e+00,4.389731578135325774e-01,4.187668464586884465e-01
-8.164197688772475203e+00,3.986377819479411944e-01,4.613991089933952017e-01
-8.066415118616587776e+00,4.193246964106480124e-01,3.935092059058003522e-01
-8.025005770682488659e+00,3.655272032515802794e-01,3.504467333439751364e-01
-7.958225677033131440e+00,3.920249257970953582e-01,4.118433258859557911e-01
-7.924686278744781376e+00,4.722709275416393515e-01,4.202183102696336325e-01
-7.897372606436989351e+00,4.286097922327116727e-01,5.120398557967770214e-01
-7.857440580686443354e+00,3.662811646395936482e-01,5.076699333182992380e-01
-7.821196531119297468e+00,4.949764763239494214e-01,4.835543209844027635e-01
-7.698760188411186256e+00,3.654777376966981683e-01,3.618972182048675879e-01
-7.679359614085129238e+00,3.726822474491935933e-01,3.958458138850989294e-01
-7.733172743764483492e+00,4.281537208644672354e-01,4.696805853862044966e-01
-7.629979806212010551e+00,4.529961239735205702e-01,4.319094363842799211e-01
-7.562838717286636481e+00,3.868032725061707477e-01,4.648753711640001285e-01
-7.606648540915783130e+00,4.282148802102952456e-01,4.209208209803703693e-01
-7.533355051668225499e+00,3.730558751298543307e-01,3.870265249751944081e-01
-7.477111374501440366e+00,4.798796393508727998e-01,3.837369071699258116e-01
-7.383062102865428855e+00,4.110938703895768431e-01,3.666167244899932176e-01
-7.396165997529231539e+00,3.819681257229742277e-01,4.923675350388226346e-01
-7.351267768771022837e+00,4.286961154474880908e-01,4.190042649441731437e-01
-7.357103376016279839e+00,3.734463019943102813e-01,4.107054944778943950e-01
-7.246694709489091224e+00,4.161136986339402100e-01,4.208664751283836547e-01
-7.233481781386353227e+00,4.021801097577002437e-01,3.813324851723995379e-01
-7.230804747279788280e+00,3.660930243913759763e-01,4.297315603235803971e-01
-7.164290352966578901e+00,3.776152642964207273e-01,4.479781889353792734e-01
-7.032732533100939598e+00,4.982275250178888615e-01,4.043616568608874862e-01
-7.030129417887558851e+00,3.956970888362677519e-01,4.164040324899442869e-01
-7.057110064485835110e+00,4.530933128306049995e-01,4.135030509984962688e-01
-6.958961335461570030e+00,3.928558996405381309e-01,5.126908831577190462e-01
-6.924858916397111486e+00,4.817267751796961983e-01,3.602022112699992951e-01
-6.917320455206228402e+00,4.241285492188213713e-01,4.167966883933709732e-01
-6.963001259206073712e+00,4.567629299596400738e-01,4.727090665370453637e-01
-6.875561537883502439e+00,4.883935980349493056e-01,4.340287699008260058e-01
-6.813358924107300929e+00,5.058308382614137289e-01,4.436292575727956433e-01
-6.754598797461015103e+00,3.827444635515426241e-01,3.892502435422766638e-01
-6.759693819740304477e+00,4.309873121647145311e-01,4.735286335642945876e-01
-6.694701388314674873e+00,4.478508779009052199e-01,4.781736319214510700e-01
-6.606085174424403128e+00,4.638053049957227003e-01,3.924171242523493142e-01
-6.641004151121483901e+00,3.849232700363820481e-01,4.553278691776739828e-01
-6.622775945628205818e+00,4.385077439186049197e-01,3.586724612199591600e-01
-6.554173723998856893e+00,4.668651225834533069e-01,4.273929881781166062e-01
-6.436475238503094332e+00,3.895860418505945888e-01,4.883686316770699531e-01
-6.520706177909922907e+00,3.467878774448253099e-01,5.233615738370690496e-01
-6.449756535084792297e+00,3.867415424903312138e-01,5.237070175318914167e-01
-6.393980928551656895e+00,4.533268607663722971e-01,4.510774356078244840e-01
-6.340628604976529914e+00,4.744865421454719234e-01,4.305607374794790387e-01
-6.286307877179544867e+00,4.240906932946031382e-01,4.218214231746489351e-01
-6.347754978466789488e+00,4.300487262063162341e-01,3.982749424479886668e-01
-6.249921318874507747e+00,4.577194674423111231e-01,4.427461148857728124e-01
-6.160291794736441062e+00,4.483949893442777390e-01,4.782667020487396670e-01
-6.108585914240459935e+00,4.692536581187595757e-01,4.773377633519759744e-01
-6.137891901871773470e+00,4.564823203934787466e-01,4.311300197650862476e-01
-6.137624681691951523e+00,4.433798137022605945e-01,3.991160650863104786e-01
-6.025049045228936251e+00,4.295057759681976672e-01,4.211571329276522779e-01
-6.077555896444004624e+00,5.336314091408537186e-01,3.429190934235576971e-01
-6.014250912568066099e+00,3.829184924714640892e-01,4.422901969563818314e-01
-6.022730205130004677e+00,5.098882939626256938e-01,3.732259723167034582e-01
-5.973889620339331685e+00,4.238017272721896211e-01,4.370631634582662350e-01
-5.948665094445167334e+00,4.352053350474571203e-01,3.942350652436145686e-01
-5.867713822847369087e+00,4.201124722959556079e-01,4.459912652774765673e-01
-5.872501468728104967e+00,4.135338178983251622e-01,3.823709451001958692e-01
-5.777493547396936435e+00,4.680967024815712585e-01,4.107388666795254717e-01
-5.769222893155941279e+00,4.505882786000608431e-01,4.089421341851636194e-01
-5.686488172824332388e+00,4.109572879685603475e-01,4.075128370753686169e-01
-5.722346227767758364e+00,4.536488927884420042e-01,4.212147173321930671e-01
-5.583534874332723774e+00,4.605070313097294199e-01,4.315386503558700237e-01
-5.631310013668440639e+00,4.294970684610548428e-01,4.565336307367371393e-01
-5.546586615772512552e+00,4.001108323993301519e-01,4.255313055987289816e-01
-5.624691331559745322e+00,4.915918045198851005e-01,3.947569223674544103e-01
-5.526405715411471853e+00,4.445907997144822321e-01,4.604468207176108940e-01
-5.500482379198214922e+00,5.000365450833462733e-01,4.784671857335927592e-01
-5.467082753296911513e+00,4.469390732102972441e-01,4.502623657367755272e-01
-5.410086137363497194e+00,3.816632917990473439e-01,4.814553064993624121e-01
-5.330498696824605531e+00,5.516258340092559109e-01,4.206309204098657162e-01
-5.422029847451408813e+00,4.090375527493276819e-01,4.470823573199941281e-01
-5.335294170436706729e+00,4.050520504450889625e-01,4.725063980749633630e-01
-5.297070722105266860e+00,4.601028650160557398e-01,4.339519077436826411e-01
-5.312404798062684286e+00,4.491914963485784118e-01,5.189511939621663794e-01
-5.326386667873617142e+00,4.927833645031913234e-01,4.808129960098188604e-01
-5.288604122728485457e+00,4.919138395547447695e-01,5.565374894621142321e-01
-5.259235170438882001e+00,4.959644454267194136e-01,3.786461270621452324e-01
-5.132646594922706917e+00,5.224375819566211554e-01,4.840742565789531437e-01
-5.088350927712392391e+00,4.994043679902352983e-01,4.375582977261754936e-01
-5.078835209517844618e+00,4.021710386501741175e-01,4.812486845629401211e-01
-5.060136538561981645e+00,4.125947225584771227e-01,4.370458390328701981e-01
-5.117780793242093118e+00,3.927355174936775217e-01,4.514171710356550959e-01
-4.999124037409373500e+00,3.797122947302336016e-01,4.797948071970684070e-01
-4.917229804284647621e+00,4.175243106836190043e-01,4.850694846606882216e-01
-4.942009577293682732e+00,4.523253000716169758e-01,3.914670093925896599e-01
-4.958633502206923005e+00,4.553121434051702332e-01,4.898125828490300093e-01
-4.974321165160685787e+00,4.654056368528037280e-01,4.647861385981907900e-01
-4.966531586637864315e+00,4.892171470682290524e-01,4.738882933901690242e-01
-4.876990972460330198e+00,5.047450319675370611e-01,4.311458730209855594e-01
-4.820114788439394893e+00,4.916925983130943645e-01,4.759037421066072970e-01
-4.835371465975869754e+00,4.841879596144632036e-01,4.250201349446338650e-01
-4.752236256774324374e+00,3.974598995266293011e-01,3.580426976758717683e-01
-4.760963755682655396e+00,4.621940395527420198e-01,4.624569520136165846e-01
-4.707270799326368937e+00,4.416163609479366592e-01,3.918918211369046278e-01
-4.661445717824923562e+00,3.912156013870857207e-01,4.367220753110628295e-01
-4.681927038754960080e+00,4.229108239882999332e-01,5.068788203582462737e-01
-4.642294083158620133e+00,4.445346661544256617e-01,3.898431694589801766e-01
-4.567209621270574615e+00,4.429923495674428224e-01,4.647537754170733004e-01
-4.523050712484028679e+00,4.477129677869861046e-01,4.597032017706921825e-01
-4.568493142127802109e+00,4.355074645917185738e-01,4.609974377406293455e-01
-4.516917932679636927e+00,4.352045062023349176e-01,4.888355555121791096e-01
-4.463134483409693765e+00,4.524495121624327321e-01,4.756338209302369835e-01
-4.463465370912602204e+00,5.206528199386963873e-01,5.056450372414418304e-01
-4.442749567595011051e+00,4.230081368375743223e-01,5.120574416865039113e-01
-4.430176805863562883e+00,4.544101387724190921e-01,4.340902839344478181e-01
-4.458073604419532820e+00,4.141860754523714050e-01,4.029613326736487533e-01
-4.351024006897806551e+00,5.061448287808245627e-01,4.789720736618638952e-01
-4.361594210299069907e+00,4.576246189382413010e-01,4.900084778982921607e-01
-4.339518466607728442e+00,4.803715730399001904e-01,4.253551961511141122e-01
-4.187038543139943059e+00,4.435752989870637153e-01,4.883294415083260787e-01
-4.188578758693435766e+00,4.068360937998901083e-01,4.506543088571615674e-01
-4.206764807458994504e+00,4.563459851657845623e-01,4.635664711473536648e-01
-4.151355122597002456e+00,4.314251150014218883e-01,5.187613942684168311e-01
-4.204052015044871915e+00,4.852971865508277638e-01,3.955092182251594979e-01
-4.201317083868995717e+00,5.011593780272327603e-01,5.209404615165024177e-01
-4.158865303844502037e+00,4.924399496617198335e-01,5.096042357976767745e-01
-4.125943275231890084e+00,4.607984588018957939e-01,4.347631670896759393e-01
-4.030078343713567435e+00,3.796945869068784063e-01,4.478349656830935555e-01
-4.027556213431645382e+00,4.813921943448574714e-01,4.549339937399656253e-01
-4.066041195049925783e+00,4.457575220079079137e-01,5.021028819366453178e-01
-3.971841097701726664e+00,5.196336400383640974e-01,4.984811844280211957e-01
-3.967619214302276820e+00,4.266619706033071835e-01,4.638272314102153682e-01
-4.015257409818204337e+00,4.741397868300924467e-01,4.154531669305354113e-01
-3.872467471428533869e+00,4.087779446325853772e-01,5.026753229351804686e-01
-3.928805421702390444e+00,4.501169979174078906e-01,4.017877023901465505e-01
-3.927376113040194294e+00,4.245522278181803055e-01,4.218493163850972616e-01
-3.915121981653822303e+00,4.792194990463016224e-01,4.628425919957360191e-01
-3.842143908959722687e+00,3.960691534071572595e-01,4.303990696370302849e-01
-3.868739051681938879e+00,5.338996084751320703e-01,4.349841155903986789e-01
-3.788372728960447411e+00,3.867659642480656412e-01,3.773670874534492681e-01
-3.888762591370562127e+00,4.276342153665561585e-01,4.735747618360063305e-01
-3.756007554891633404e+00,4.863658664856793101e-01,4.184346108705501166e-01
-3.767409788005188442e+00,4.522546458418069126e-01,5.357474429703298346e-01
-3.679397079503450296e+00,4.786429826293867595e-01,4.519851229376078972e-01
-3.702324155904051839e+00,5.005004126361372041e-01,4.903077447252385257e-01
-3.651086515173484592e+00,4.303313770035096519e-01,4.962628981630025637e-01
-3.662163101863710413e+00,4.955550639366438914e-01,4.417487926551694200e-01
-3.582666583013478956e+00,4.638200983458851123e-01,4.721198553462124248e-01
-3.605040714282564451e+00,5.492207693730926099e-01,4.394641058340904016e-01
-3.601636827834591159e+00,3.431391352050147114e-01,4.382468940649779654e-01
-3.664572740798021311e+00,3.886233896591950732e-01,4.554165594823680330e-01
-3.490773957279392548e+00,4.639666276759986108e-01,4.891540883683709318e-01
-3.539128858689541079e+00,4.172874757709432725e-01,5.121959444876138523e-01
-3.527031082125199113e+00,4.197369542338560411e-01,4.515803051223644671e-01
-3.514098563854528123e+00,4.439643793805520544e-01,4.101537259216749831e-01
-3.486297478319670962e+00,4.472668465724450870e-01,4.819913480123485527e-01
-3.420780341889827714e+00,4.504757755456626489e-01,5.094446146052292734e-01
-3.510551798448666716e+00,4.603396621827390844e-01,4.809976264571535487e-01
-3.305079210840160986e+00,4.758689451113907176e-01,4.520466426905553337e-01
-3.399490806894076567e+00,3.764400651302928225e-01,3.875460896281540668e-01
-3.424026849452262766e+00,4.576865675382775778e-01,4.785937792958608883e-01
-3.304334608941068119e+00,3.931222977154563702e-01,5.591697914700503036e-01
-3.364276638478921555e+00,4.485050303086057788e-01,4.272342339571440495e-01
-3.254375689347776657e+00,4.282391709154412252e-01,4.341991252162080706e-01
-3.245532306634097530e+00,4.540095696174356044e-01,4.278842643944514301e-01
-3.180726451175607039e+00,5.045536951002128623e-01,4.564090895154268579e-01
-3.259304128860443850e+00,3.871211406856375770e-01,5.342367165024352049e-01
-3.187728493943229768e+00,4.417306458532155866e-01,3.896898077723434106e-01
-3.188377491561381838e+00,4.002277583176102049e-01,3.989625321887703691e-01
-3.176543402140511674e+00,4.795822696283382758e-01,4.954258331631749002e-01
-3.232868639689058465e+00,4.295940359732656200e-01,5.208583441154812643e-01
-3.198729739680931772e+00,5.422469451137008623e-01,5.496487353764484274e-01
-3.062411844200521926e+00,4.558176339782987196e-01,4.606359928907998724e-01
-3.179096310755289423e+00,4.827464594134261988e-01,4.744844666916075426e-01
-3.044758927001967930e+00,4.610956040511648979e-01,4.802038217670970832e-01
-3.089222566883466747e+00,4.730564418541084448e-01,4.591722025096049986e-01
-3.059835108467587439e+00,5.019942231293599288e-01,4.202509940373194697e-01
-2.948646106706466874e+00,4.510709843917957151e-01,4.362539573294864081e-01
-3.016443117715619238e+00,4.520279167799688413e-01,4.209092407530403701e-01
-2.990029370317419666e+00,5.188109198243530118e-01,4.785708213435947989e-01
-2.996908328894161144e+00,4.561928115315290189e-01,4.494722008456611406e-01
-2.927714910652305047e+00,5.020339978978500817e-01,4.606692555738025052e-01
-2.909066211142391722e+00,4.299615785981988347e-01,4.717841213274324708e-01
-2.899452351938231587e+00,4.047710437231595848e-01,4.606014382711264288e-01
-2.867192215124012566e+00,5.702867234972666122e-01,4.568660720671147146e-01
-2.919906665873236218e+00,5.154290889270923826e-01,4.272894775291065650e-01
-2.849480680709584934e+00,5.163266600688666275e-01,4.775793888109975405e-01
-2.870293547242447119e+00,5.177000996715150904e-01,4.425926172289046945e-01
-2.750786407460435345e+00,4.572165846764706942e-01,4.422923601481339451e-01
-2.790202600582477377e+00,4.426242552659035989e-01,4.308593183246683944e-01
-2.764951594505013155e+00,4.567647728386641792e-01,4.478649339665326523e-01
-2.756941327949189002e+00,4.641175841534327384e-01,5.122775364903391360e-01
-2.805772421011146545e+00,4.715486152348671856e-01,4.238678440873387410e-01
-2.765817542171468801e+00,5.283427715615602871e-01,4.878260693819024829e-01
-2.718084709777878416e+00,4.000137348937066739e-01,3.911722684915019399e-01
-2.718828382132051580e+00,4.905257381622179502e-01,4.642784649624228654e-01
-2.710040074233544871e+00,4.756433356274656910e-01,5.517190961009137418e-01
-2.711971251514440517e+00,5.090497992222463575e-01,4.717209369189481194e-01
-2.703916300360007963e+00,5.300112023312091303e-01,4.945093721898425887e-01
-2.612936028294778001e+00,4.904404133114535491e-01,5.046372832644029360e-01
-2.634711270246364201e+00,4.877921929016220681e-01,4.613061126281484126e-01
-2.635257864492916546e+00,4.790319682015019565e-01,4.787766927771984204e-01
-2.481469551968630061e+00,5.332854055693670992e-01,4.848495530014916843e-01
-2.657649448604152198e+00,3.899203389629024019e-01,4.853167437820456454e-01
-2.522488836477200902e+00,4.664599385943967724e-01,4.152635368714364672e-01
-2.578418868169063849e+00,4.852484292036241542e-01,4.627308232807663679e-01
-2.580303047577560793e+00,5.116885498016462419e-01,4.426847227369076210e-01
-2.504923178297428166e+00,4.468144170977042529e-01,4.683656670185467052e-01
-2.542104287906795879e+00,4.427841829923194195e-01,4.391834444246877078e-01
-2.427077918742571061e+00,4.955544984677064946e-01,4.860283611491337252e-01
-2.466867817377043970e+00,4.087129177497799692e-01,4.492358103560539773e-01
-2.410459470708272711e+00,5.053968760427935969e-01,4.761658094990950385e-01
-2.425984717562045923e+00,3.839357007500541208e-01,4.457137511473179270e-01
-2.364123774716710535e+00,4.622193734424701050e-01,4.738816984119121334e-01
-2.389920596088569660e+00,4.836545468144247684e-01,4.786706183829896322e-01
-2.346329237433480319e+00,4.387768911935442939e-01,4.624113223585583632e-01
-2.386733360771423840e+00,4.492342466238865017e-01,3.716221685363167992e-01
-2.398614974908387598e+00,5.273687057907859854e-01,4.101424619245296888e-01
-2.316127793387786848e+00,4.955787799789436177e-01,5.722799104453611951e-01
-2.257281209216046136e+00,3.575479131357732210e-01,4.774094015219618736e-01
-2.319119949827957328e+00,4.926739870405086874e-01,4.929250915181755399e-01
-2.225041146920769819e+00,5.140500251516445518e-01,5.151349323315711493e-01
-2.268633847545248994e+00,4.883371335569606786e-01,5.488957087318409034e-01
-2.334307657239148792e+00,3.996931210985328331e-01,4.751728918784329236e-01
-2.258338772844759479e+00,4.570373532966652275e-01,4.616870152406582495e-01
-2.237721728730706960e+00,4.602995272403896942e-01,4.928894300444585097e-01
-2.271172646999627620e+00,5.014756327458779195e-01,4.877727125380993400e-01
-2.202894589093862265e+00,4.815966408753523664e-01,4.994475222031838357e-01
-2.165386138419626683e+00,4.949717878739255950e-01,5.150270827566093557e-01
-2.137013633520586708e+00,5.408969547033006808e-01,4.303016141966201635e-01
-2.181777298518831287e+00,4.844854171235559170e-01,5.204397680392700565e-01
-2.116621626926485256e+00,4.681223171148292117e-01,4.869597154691907015e-01
-2.155832320934932156e+00,4.443696866130922296e-01,4.581532044312962015e-01
-2.143860829639118837e+00,5.290248076871698624e-01,4.959353109042230479e-01
-2.065609475503570991e+00,5.300446219296046646e-01,5.125525596982911658e-01
-2.075834746322015700e+00,4.980030462436943473e-01,4.362792485010185128e-01
-2.070182995999272357e+00,5.003639600011889899e-01,4.509957785587153656e-01
-2.097778067389513890e+00,4.382625289108553757e-01,5.157921100719414786e-01
-2.023486314275736664e+00,4.798776636144425067e-01,4.363259574589536394e-01
-2.071974055445477969e+00,4.298006788211700124e-01,4.553289308372632238e-01
-2.016830318390825383e+00,5.131857540172956034e-01,5.018709329290900190e-01
-2.079768220104218912e+00,4.365466290259465421e-01,4.443375609624369282e-01
-2.008650663908321921e+00,5.516960070948626615e-01,5.120136812947299054e-01
-2.009641738469235772e+00,4.950237075904957984e-01,5.097318097055061337e-01
-2.034585304991810339e+00,4.286766033338819115e-01,5.099495899861061776e-01
-1.927744067389648652e+00,4.067921943008329100e-01,4.869790088471036005e-01
-1.997320799359982191e+00,4.978405082857781383e-01,4.761363518356828139e-01
-1.939598897794117871e+00,4.638191846045402467e-01,5.417550835206046411e-01
-1.971405993900193110e+00,4.802164913013786118e-01,4.355491721086138801e-01
-1.860847213282561974e+00,4.179209551899335517e-01,4.903233956265274363e-01
-1.919774525046830327e+00,4.809765596911321217e-01,4.736166212198382741e-01
-1.915540298708429123e+00,4.750384577447824830e-01,5.213771588093727427e-01
-1.784968601714034042e+00,4.549098814299746274e-01,4.066589320634729221e-01
-1.863322002640675601e+00,5.119257988647001323e-01,5.387655188607739509e-01
-1.809369687110230940e+00,5.275560588382586236e-01,4.031160619320767191e-01
-1.833916189332429614e+00,4.777973671282499391e-01,4.351992251285883295e-01
-1.885932292556725232e+00,4.711465508160543880e-01,4.708200400565900612e-01
-1.786547299106942654e+00,4.526586375202278911e-01,3.857723150547823221e-01
-1.865894969703548956e+00,4.963979893082821060e-01,4.767436614685469087e-01
-1.774835968237641337e+00,4.752053868045410523e-01,4.794854420323128030e-01
-1.808865059398824471e+00,4.083248386743490443e-01,4.906878342710754848e-01
-1.817781115406086778e+00,5.422807499684944021e-01,4.518188003963998778e-01
-1.675969026070849743e+00,5.092469759311868405e-01,4.836845455806109140e-01
-1.729488149700502575e+00,4.515855780599509206e-01,4.749477656935737202e-01
-1.642199188114320529e+00,4.607151358432905464e-01,4.347249592879406377e-01
-1.687222691353699178e+00,4.818794077238052753e-01,4.675797806013216040e-01
-1.746351516098173962e+00,4.901809866184967945e-01,4.424229375164739353e-01
-1.661393775008381146e+00,4.889042137618790917e-01,5.143296045370847613e-01
-1.672186774506575491e+00,4.535254779385803903e-01,4.562235098161101510e-01
-1.693346219941086916e+00,4.988566997126098745e-01,4.547564306812070245e-01
-1.709757773185589524e+00,5.011692533788695281e-01,5.077621735022493921e-01
-1.686758841259264008e+00,5.281260149488360423e-01,4.850542097095089100e-01
-1.578372194626349589e+00,4.288236749841797257e-01,5.560833587555412683e-01
-1.678272742946048002e+00,3.894460804480972538e-01,4.969504548754145601e-01
-1.629398061481957871e+00,4.835195254729592329e-01,5.026099071795289142e-01
-1.544111061096217208e+00,4.968650197601840457e-01,5.367175976807544435e-01
-1.545434232414989228e+00,4.825848544337352775e-01,4.857427210506808923e-01
-1.523621890820517244e+00,4.133648668352968847e-01,5.395588278624922074e-01
-1.551922880320292020e+00,4.898899390558975053e-01,5.311031891715848330e-01
-1.534084388850920577e+00,4.838289543548904836e-01,5.017198792503388960e-01
-1.548448396126592685e+00,3.762721218391550937e-01,5.360154418465469250e-01
-1.493375328491969523e+00,4.987634915639269639e-01,4.326211891638148122e-01
-1.507773066287867003e+00,4.979698463159381028e-01,5.306838544619735254e-01
-1.483617377073296995e+00,4.408738968342817421e-01,4.996857465876839433e-01
-1.494582337857692345e+00,4.714554582633729840e-01,5.188958558746241678e-01
-1.464088043405896711e+00,5.352674494131709482e-01,5.577173643932489266e-01
-1.413903675476392507e+00,5.165666421556099897e-01,5.151926738622794044e-01
-1.542757566811818082e+00,5.977554617878146903e-01,4.560976486367485094e-01
-1.489131020283676277e+00,4.629047240287460507e-01,5.192587302342143163e-01
-1.450513006814534656e+00,4.878005466360560982e-01,4.171092258204783798e-01
-1.396443487570224073e+00,4.420037829070601054e-01,5.296466431694625276e-01
-1.427151001741310266e+00,5.049725760629355520e-01,5.537751424307613135e-01
-1.385291681402197828e+00,4.775151617003808857e-01,4.343779957791624735e-01
-1.419653879621664228e+00,5.103037604624313106e-01,4.406365992854475166e-01
-1.471152538067615811e+00,4.587150897097794777e-01,5.454381094457639856e-01
-1.386956265898909857e+00,4.332212816624242402e-01,4.709577734788112924e-01
-1.374641596452755188e+00,5.222820602390157996e-01,4.796858316945257217e-01
-1.438119968569201657e+00,4.153593130150977641e-01,5.150213707982281841e-01
-1.417907624377820808e+00,4.810772848601305163e-01,3.757706756628439448e-01
-1.277895295449722024e+00,4.977216072811124770e-01,4.768665574042150745e-01
-1.398591483549450620e+00,4.073879797103704403e-01,4.734909870163512280e-01
-1.353558950327202526e+00,4.084498449413138665e-01,5.151748483469342776e-01
-1.304644681804629780e+00,4.769069860262776794e-01,4.868879269463436965e-01
-1.255512065623076934e+00,5.492181268691647134e-01,5.297321524572491391e-01
-1.229959951378948313e+00,4.622503964421005862e-01,4.992976886957101179e-01
-1.329409118166972936e+00,5.556596275396786799e-01,4.646759931370630925e-01
-1.354846053144378892e+00,4.865052759924299308e-01,4.529195737823339951e-01
-1.224745307278821915e+00,3.746071905628484133e-01,5.410162640420329572e-01
-1.312762978444984796e+00,4.968676794238359729e-01,4.306082034457631713e-01
-1.331423938026264464e+00,4.578675274814302254e-01,4.722465871509226587e-01
-1.283634214525135597e+00,4.421920011650932181e-01,4.860412006135352847e-01
-1.255721952057738067e+00,4.978834185831078063e-01,4.867161166122043192e-01
-1.288746284083627680e+00,4.027258162305432099e-01,4.392439818641671878e-01
-1.273790949192023181e+00,5.111481298841256127e-01,4.857723721845172427e-01
-1.211461115803045496e+00,5.650759451008376955e-01,4.733386937421808494e-01
-1.166140325469572803e+00,5.447057003820429122e-01,4.983386430107412668e-01
-1.062810099718923373e+00,4.925794750772399810e-01,5.476558773396947855e-01
-1.147533879242353283e+00,4.591693825415184005e-01,4.871880758935688838e-01
-1.179969712041262664e+00,4.742932690565174747e-01,5.018013671577195023e-01
-1.164628326486783383e+00,4.709618014603752512e-01,4.988746898296275156e-01
-1.139021775023563610e+00,5.551810777990100476e-01,4.834770098317185960e-01
-1.163327218164277754e+00,4.670880552981639400e-01,4.747956316908812369e-01
-1.177272265776294402e+00,4.910617005110743394e-01,5.457325245228468180e-01
-1.108546498062980001e+00,4.506567838814861116e-01,4.788907953104654114e-01
-1.207283600257414768e+00,4.896893738007990216e-01,5.008024855688578691e-01
-1.060104309495283781e+00,5.635982261948284666e-01,4.715901464003262045e-01
-1.140235768791111326e+00,4.381116182900942624e-01,5.529338661601013172e-01
-1.113460202218765627e+00,4.752410291998722114e-01,5.287687990491841683e-01
-1.035546744542203745e+00,4.369341407342307027e-01,4.515050982606091390e-01
-1.113204267047044338e+00,4.944775390161677553e-01,5.322800309669080132e-01
-1.072660692387324977e+00,4.713670357323684890e-01,4.761680654738745244e-01
-1.127227936415944765e+00,5.054559352326254418e-01,5.911229731573822699e-01
-1.055110028404108391e+00,4.825963420511205082e-01,3.962612517448001470e-01
-1.094733895896514486e+00,4.900391687361124182e-01,5.143502763966633085e-01
-1.070333398892634902e+00,4.377119171547169674e-01,4.019086841843985125e-01
-9.750368010141619024e-01,4.662946601484471709e-01,5.169189787698805771e-01
-9.862385390425826293e-01,4.679973823958276657e-01,5.084871590697140897e-01
-9.815501530329149293e-01,4.284259808526724167e-01,5.376674133487864271e-01
-1.009299294255844970e+00,3.502253385103539229e-01,4.939474305571704971e-01
-9.791143302450777686e-01,5.265014409220896141e-01,5.135161225937806551e-01
-1.023020225975767250e+00,4.930126125327212172e-01,4.680537099252221611e-01
-1.014469330921861978e+00,4.554597238474660248e-01,4.605672622009120420e-01
-9.491483207065762873e-01,5.524397630466972853e-01,5.452196845887665733e-01
-1.061118055534779225e+00,4.007586946440090392e-01,5.293730165879133587e-01
-9.439174539390428054e-01,4.332364363858090539e-01,4.438948743612145531e-01
-9.766344366317150083e-01,5.099636395226749830e-01,4.815049892903849327e-01
-9.216263358202578804e-01,5.474324073922971490e-01,4.664808423011645444e-01
-8.918985889554247315e-01,4.250697248456888344e-01,4.792003377098673078e-01
-9.782849080188177338e-01,4.855611432018969165e-01,4.409101868446524963e-01
-1.006001762429334478e+00,4.836173747962868585e-01,5.302814374798273667e-01
-8.944841369760809791e-01,5.042208458578406605e-01,5.813997124880302403e-01
-9.081439454044376580e-01,4.580657813520807586e-01,4.507021828624186988e-01
-9.004614842324701884e-01,4.555739366309756178e-01,4.124919474631673078e-01
-8.869297453891749061e-01,4.316053140556219692e-01,4.334061258999972188e-01
-8.468436069849882841e-01,5.163538304742616436e-01,5.203596073585383674e-01
-9.741385888688762762e-01,4.458338972840664161e-01,4.528995568953991802e-01
-8.717695470194999352e-01,5.011163463239193261e-01,4.625064647996230405e-01
-8.382916548332665085e-01,4.568788197192825140e-01,4.684987497801457179e-01
-8.780960946554184909e-01,4.409239321636951314e-01,5.185190258670187013e-01
-8.444082480243905175e-01,5.299893635602110908e-01,4.000746082251604441e-01
-8.913188634585686998e-01,4.212170536055576120e-01,4.917729959209295454e-01
-7.830338136509932268e-01,4.462202310855233334e-01,4.962692701783973370e-01
-8.236419592259892619e-01,4.620359941650619140e-01,5.220157642662319741e-01
-8.102862218078464851e-01,4.938839825546611495e-01,5.078170455794998039e-01
-8.347403921662006621e-01,5.192307345929096929e-01,4.305541002127513672e-01
-7.412564995138734014e-01,5.121721079574560465e-01,4.873170651747716908e-01
-8.075104254626844780e-01,4.689580088188057827e-01,4.508514241740037565e-01
-7.769566286227449492e-01,5.247214227200840408e-01,4.217046540024415036e-01
-7.665430673522748428e-01,4.830526986376888487e-01,4.889882295287865110e-01
-7.897266990151549093e-01,4.026819936981386183e-01,4.191407836137056586e-01
-7.944151104063529312e-01,4.486553042767343347e-01,5.296848367346845832e-01
-8.071039887845357086e-01,4.950306327913951976e-01,4.523913519428953700e-01
-7.789061908102085097e-01,4.799813530639139847e-01,4.672142152947118543e-01
-7.597252802738747590e-01,4.703763575373787753e-01,4.228196976540752328e-01
-7.287080470629276885e-01,4.911350597004376373e-01,5.019215667226872846e-01
-7.438791415852787914e-01,5.026507619448102870e-01,5.411368653999001355e-01
-7.334274702390272127e-01,5.399115073622472449e-01,5.368580803713089988e-01
-7.103517150436221561e-01,4.904575459380611790e-01,4.716551547647319653e-01
-7.932753852477010259e-01,5.286735884673959829e-01,4.450939204477371014e-01
-7.056848231632721902e-01,4.203254012873606782e-01,4.229173678873855424e-01
-6.356265808296782671e-01,4.725724286102845895e-01,5.437956470981786250e-01
-6.822281557860778722e-01,4.768982628877349583e-01,5.909934752259796698e-01
-7.705762899920681752e-01,5.121697208019532210e-01,5.183833930743189100e-01
-7.306483008599862217e-01,4.636332177242316610e-01,5.163456577970089167e-01
-7.253933152168570153e-01,5.092977834849219398e-01,4.743480458373449116e-01
-6.782631725715323467e-01,4.917561668763248406e-01,5.057857085844059686e-01
-6.693141793880830193e-01,4.468976364654029254e-01,4.550299982026876910e-01
-7.232895268132538691e-01,4.697776790887551734e-01,4.571136694953659152e-01
-6.055210008816603873e-01,4.601606452452324247e-01,4.192287540513012778e-01
-6.837008300285049023e-01,5.152444930747315244e-01,5.480148062673068088e-01
-6.699776877879574100e-01,4.592482700575127308e-01,5.485461312224857444e-01
-5.711763054129520567e-01,4.567842126310428519e-01,4.750045892109947543e-01
-6.775063539165907534e-01,5.406961340905640512e-01,5.794699075478051409e-01
-5.954446597588213264e-01,4.575865472779006016e-01,4.632705436793719822e-01
-6.570043936178711075e-01,4.865469418682391578e-01,4.601616259059068126e-01
-5.725718284255829627e-01,4.463002312592822540e-01,4.277252298738524194e-01
-5.787414073575264384e-01,5.984956315088129086e-01,4.818430023297307074e-01
-5.804560119595071344e-01,4.829589235977385653e-01,5.787378294307067295e-01
-5.934192460286705773e-01,5.136063218793652796e-01,5.932870948674059397e-01
-5.818571184329116575e-01,5.253107653196452675e-01,5.097696446932213910e-01
-6.634230115121682037e-01,4.770228390282592601e-01,4.887121668664565211e-01
-5.360660334553126738e-01,5.366226754816076916e-01,4.798400059897029446e-01
-5.003414755024377936e-01,5.050618544869244220e-01,4.956245786869775682e-01
-5.421316529144546426e-01,4.363870296283742234e-01,5.403128966544921141e-01
-6.369882862081610586e-01,4.379818007073448261e-01,4.784679152655696988e-01
-5.790565670701417478e-01,4.809732232003643970e-01,4.925551681478606003e-01
-5.047850115599046283e-01,5.532424142208703932e-01,5.193493249101949205e-01
-5.672446275867443211e-01,4.886416349740416720e-01,5.284293712442862390e-01
-6.042232186325647847e-01,5.310134911718682460e-01,4.102466026329483206e-01
-5.536312469363570132e-01,4.027966734612145050e-01,5.595747968315674115e-01
-4.994275048851715693e-01,5.049013502042921653e-01,5.104496344222869686e-01
-4.611479970930558725e-01,4.395217726444708983e-01,4.850602215846226417e-01
-4.119142787422224727e-01,5.001501427281231926e-01,5.301118215309276183e-01
-4.806410160425579892e-01,4.493413356166101047e-01,4.503728661769001995e-01
-5.814967992822257514e-01,4.703700466487803489e-01,4.888143688002669074e-01
-5.320695229828010797e-01,5.027395384592349137e-01,5.266619684934796819e-01
-4.591802342041648721e-01,4.785213145987963212e-01,4.529165088012613305e-01
-4.948144294877151461e-01,5.314229418354674550e-01,4.819967673084243898e-01
-4.658305225889291523e-01,5.617567981523928777e-01,5.392414403861278682e-01
-5.203481305274610946e-01,5.114074212866535074e-01,4.891895501578432115e-01
-5.025620579170783087e-01,4.433842196702142968e-01,5.860731138423491693e-01
-3.754183050447605363e-01,4.784546313522290428e-01,4.220546788410671213e-01
-4.646270491186347829e-01,4.687615870816885799e-01,5.063704767133186957e-01
-4.883919265662035603e-01,4.683010255924452969e-01,4.581302471266295862e-01
-4.521089123095743401e-01,5.287142731046662325e-01,5.234558943307374701e-01
-4.597181067446317049e-01,5.156356892976096118e-01,4.776842522435714167e-01
-4.337563532812621081e-01,4.845485916643093027e-01,4.710831542222742030e-01
-4.109796269884515296e-01,5.162222487430132567e-01,5.399214487333013901e-01
-4.003043686012291436e-01,4.300129343877849286e-01,5.243625720544236035e-01
-4.481104133614787211e-01,4.725574400313158341e-01,4.717773490870296738e-01
-4.147215269086675371e-01,4.909283356257673758e-01,5.366674201848818937e-01
-4.592544832159493606e-01,5.131262354574115392e-01,4.964106121514321734e-01
-3.531556128823129526e-01,4.858092792203289600e-01,5.410775499270127353e-01
-4.436558452965267407e-01,5.449315572959243514e-01,5.584668743516024714e-01
-4.149415590358185857e-01,4.777601161079525482e-01,4.995540563690477054e-01
-3.942748650521413212e-01,5.048326385526750171e-01,5.184682923061199045e-01
-4.067073464048689968e-01,4.150355990027758124e-01,5.033671595912587726e-01
-4.175158908730463025e-01,5.229402521339435728e-01,5.017645323790435041e-01
-3.745740290757777480e-01,4.393317459649249135e-01,4.225158468241891896e-01
-2.963866989946203345e-01,5.058865454786515281e-01,5.119263050642802737e-01
-4.144506236077895589e-01,5.708773210322558578e-01,5.268789014086200373e-01
-3.523655533821341557e-01,5.400716905577014337e-01,4.292502847734211979e-01
-4.089637194502234174e-01,5.126215265736506765e-01,4.794692133871967243e-01
-3.136313293380045830e-01,4.269662417608017235e-01,5.602714348061365035e-01
-3.557493682020994030e-01,4.669499974198492165e-01,5.426237363021718663e-01
-3.349795482359472221e-01,5.639247236687822129e-01,4.734144741900108144e-01
-3.814866322361271100e-01,5.071542540092568441e-01,4.983316423663765038e-01
-3.616365932383250881e-01,4.821226269630103367e-01,5.407835364445210402e-01
-3.467933617576033911e-01,5.288571004778039875e-01,4.702320669999692782e-01
-3.564373101883998585e-01,5.302551691909723752e-01,5.025636006837275183e-01
-3.316000275522559826e-01,4.640698521191495285e-01,5.056269072643527762e-01
-3.750361991267796014e-01,4.928080301581599931e-01,4.784575544841435102e-01
-3.786678407062962215e-01,5.213709941458916086e-01,4.546736083234846348e-01
-3.304219040370937610e-01,4.771650965507381881e-01,6.027389324088767708e-01
-2.740939092047736114e-01,5.711113810587450379e-01,5.235888291302411846e-01
-3.554083044096316146e-01,4.195203863068277528e-01,5.637042436778143539e-01
-3.469204620104931469e-01,5.470659711291055993e-01,4.600688367924349320e-01
-3.076284827679900413e-01,4.269993861080764730e-01,5.564103842673890910e-01
-2.809109854065404144e-01,5.124692739996202784e-01,4.215885579901185176e-01
-2.819427108117572578e-01,4.814252186036276360e-01,5.606008622977473044e-01
-3.519797804354182214e-01,5.235737602934465995e-01,5.694502699598755768e-01
-2.485604664714244350e-01,5.534523187635477237e-01,4.928623830235951964e-01
-3.069088114955340063e-01,4.313395896461019730e-01,4.803281713518220974e-01
-2.757113341123431094e-01,4.894127179419578422e-01,5.112786111550347012e-01
-2.706710872416617786e-01,5.324683439235263771e-01,4.239796521406166696e-01
-2.573571569255955760e-01,4.178854735961274880e-01,4.951856046581599169e-01
-2.174494916580673176e-01,4.410049235265994794e-01,5.632338211729619459e-01
-3.216160667400591033e-01,5.546365581817211954e-01,5.320855610640786715e-01
-2.628503839265644015e-01,4.935238361534392548e-01,4.949417041035754639e-01
-3.645333236835665569e-01,5.097698253992927198e-01,5.026203886833614520e-01
-2.628161575461109845e-01,4.571528350616368419e-01,4.359074027159091647e-01
-2.503677349527008156e-01,4.576254571569537410e-01,4.889219687739546627e-01
-2.307503503861493832e-01,4.532555867989693787e-01,4.875726100808107644e-01
-2.333923116628514594e-01,4.897620252591370904e-01,4.990313250960444202e-01
-1.920373397241332825e-01,4.445455923350039584e-01,5.533483780947027197e-01
-2.276503153192589723e-01,5.521495414173946958e-01,5.027500517037256644e-01
-2.300345927139936797e-01,5.377662177040659630e-01,4.539536718727275599e-01
-2.296438626031219177e-01,4.608612849287991309e-01,4.684070619892852227e-01
-2.651344834014037199e-01,5.071022709957277996e-01,5.734111815014004687e-01
-2.105044025880730973e-01,4.746329209700012597e-01,4.821669979157672814e-01
-2.110895947994542998e-01,5.583616927751413606e-01,5.189077897754705848e-01
-2.293275695359880129e-01,4.676588427757364386e-01,5.651029983555544423e-01
-1.871901774623019321e-01,4.217626306163310135e-01,5.180848745119881471e-01
-1.534861990006347043e-01,4.987451005921838543e-01,5.432542924322412148e-01
-1.776527479961223233e-01,4.958418827681298491e-01,5.140241998184702510e-01
-1.965134010170546119e-01,4.732065378763008479e-01,4.965110014377224767e-01
-1.678258086017110073e-01,4.840560765305444435e-01,5.196903312510290363e-01
-2.485171971587508133e-01,4.841660050571857665e-01,5.046348714987325401e-01
-1.901482721762448591e-01,4.752041803861505320e-01,5.040964302257560092e-01
-1.529440007962785397e-01,5.593650694087003439e-01,4.529034053595162312e-01
-2.014848655882645612e-01,6.252108723254258260e-01,5.008978155888232919e-01
-1.437630327982262479e-01,4.741739950732986597e-01,4.758875572041152968e-01
-2.294602493780028007e-01,5.567470362719338928e-01,4.974704318292373362e-01
-2.216712146533519889e-01,5.845166703517189477e-01,5.191661465691157495e-01
-1.307963125813075000e-01,4.971735282533054634e-01,5.647648803749852897e-01
-1.398342679607224304e-01,5.293587421916157165e-01,4.459393163814130423e-01
-1.086071773161438048e-01,4.711739944854013706e-01,5.068200436199372660e-01
-1.518333644967811424e-01,5.023660796274226348e-01,4.387634033592092142e-01
-1.824643846478376241e-01,5.985406775371826527e-01,5.086831040629002931e-01
-9.881737001540173704e-02,4.006148537185778014e-01,4.362669267232647252e-01
-1.322041209169857456e-01,4.985538727799163627e-01,4.330461925125265177e-01
-2.344142032104841178e-01,4.369678542120883358e-01,4.817852103164724786e-01
-1.560399500869212031e-01,4.854515296949226677e-01,5.202954177462520979e-01
-1.601869344918903926e-01,5.002300914232798990e-01,4.333530832220586770e-01
-5.896155892156226819e-02,4.451220373350129322e-01,4.520758886795859799e-01
-8.919245424903121666e-02,4.580915558176299474e-01,4.863237683825308855e-01
-1.337062450504002409e-01,4.481500245463751475e-01,5.365777526375637985e-01
-1.192750785968714894e-01,5.987967671090858035e-01,4.643479347355664033e-01
-8.794570313978442022e-02,4.929819998094733813e-01,5.221217136393264679e-01
-1.068577971682113381e-01,5.051557849324149752e-01,4.988274582463508300e-01
-1.169667877170848524e-01,4.825603186719191751e-01,4.650727689010652477e-01
-5.377801013776348921e-02,4.537867778540046193e-01,5.189214961089549938e-01
-8.757630950383804569e-02,4.677932831519643897e-01,5.330706030078699031e-01
-1.167000431702664154e-01,5.017421734783217291e-01,4.828200594669568302e-01
-1.424189424613962474e-01,4.765980923387957979e-01,4.721364628458786239e-01
-2.833718651842780795e-02,4.788299792251775044e-01,4.088645901231159896e-01
-5.547298872814831333e-02,4.688875519566705896e-01,4.922013649564819793e-01
-1.039118486932343460e-01,4.731358462260586428e-01,5.232881474607117278e-01
-2.877086135463594388e-02,4.415222026652537712e-01,4.303061124094118561e-01
-1.092582233400447717e-01,4.832436762730034641e-01,4.195968909601201502e-01
-5.696427957642254819e-02,4.841296764023621524e-01,5.006306183362085882e-01
-7.673944990855405268e-02,4.570771819573388184e-01,5.258666441326614871e-01
-1.106142548970905914e-01,5.050432246634426470e-01,4.572189058307729037e-01
-2.898643091016475312e-02,4.803436036563301648e-01,4.033035322726362670e-01
-4.940621669188460102e-02,4.952672461405734916e-01,5.123091197626903348e-01
-9.615750448678622719e-02,4.507919900460836682e-01,5.016259500223184675e-01
-4.859382177385774410e-02,5.194995281396067588e-01,5.345844967643191836e-01
-9.867390418386597084e-02,4.915427436785808624e-01,5.087480407827275064e-01
-1.086641267501188696e-01,4.757350747540463054e-01,5.044753825948333770e-01
-1.192742597963372536e-01,5.061643681236922543e-01,4.965974174895573245e-01
-3.201504539964838969e-02,5.253057493365320685e-01,4.646744311533543836e-01
-5.496509715553216796e-02,4.271220874767656661e-01,4.735678587908829229e-01
-3.745101992804301949e-02,4.128010362665804900e-01,4.888058675229538519e-01
-5.061040066201327042e-02,4.808656533044319281e-01,4.743238387324738015e-01
-1.459801685382581919e-02,4.904676910924983257e-01,4.857407479894551572e-01
-5.381775417955173002e-02,5.743836979630716488e-01,5.433322414592677285e-01
1.251125587672668495e-02,5.532586094425986367e-01,4.818898872689480473e-01
-9.537280150688708102e-02,5.413745789869807146e-01,5.359993759369140465e-01
-6.114527144412590376e-02,5.094544046954652128e-01,4.859006126328896946e-01
2.279124833887509818e-02,4.231408161411007174e-01,4.737226409101064073e-01
-4.487359490698714787e-02,4.790722010077454462e-01,4.414479316246449070e-01
-5.413621424071437399e-02,4.985875487925607308e-01,4.084995973870582664e-01
1.371812205930950969e-02,4.862629962098592995e-01,5.103574335540995710e-01
-1.633725225077039059e-02,5.091627789615603694e-01,4.886599576930052424e-01
2.361508644175565330e-02,4.972140570202762677e-01,5.393173443290957270e-01
-3.254186500333128979e-02,4.477200224745260249e-01,5.092235575002795889e-01
-5.912835519355397196e-02,5.011587800949143245e-01,4.621310876581956606e-01
-7.662107083687087761e-02,5.586589557333793143e-01,5.318825719748399017e-01
-1.489922453770605067e-02,5.426771900025322282e-01,5.097112889433149663e-01
-3.966082540316515775e-02,4.866246113696775510e-01,4.706865316218283302e-01
1.268794587276107777e-02,4.693876520843992539e-01,5.390892286512066756e-01
1.104822479311022218e-02,4.364678701692841223e-01,5.229126021580563499e-01
1.772866865807225939e-02,5.260698751397422379e-01,5.077540337283020788e-01
-3.165845601607571169e-02,4.614356695231288663e-01,4.378006175103855702e-01
-9.852384473205135287e-03,5.121555336593707208e-01,5.300312865294735110e-01
1.156726907810423470e-02,4.148571601450591340e-01,5.145701048240748365e-01
4.007165819445507315e-02,4.465317758653413183e-01,4.846612103606342536e-01
9.411160186707442921e-02,4.731407860446639746e-01,5.140262931472450170e-01
3.132929919815204828e-02,4.724815185798499906e-01,4.582910621343604940e-01
7.264516790981874472e-02,5.190557454691222539e-01,4.596252018966063835e-01
1.144757986265182020e-01,4.406195392286946233e-01,5.512553987943965561e-01
2.281778521960137196e-02,4.954328999415509860e-01,4.186687634818068715e-01
4.273591064622338231e-02,5.535422625299680766e-01,5.524736378603655185e-01
4.597049016069650051e-02,5.215580554471770380e-01,5.482347237676130636e-01
1.168940313039510195e-02,5.394391569045926538e-01,4.542901015538891585e-01
-1.522733841390237590e-02,4.868743086082929494e-01,5.255412901584692875e-01
7.465157259192074790e-02,4.756519200540026970e-01,4.705750748329531885e-01
4.628652721765654648e-02,5.239262377948801230e-01,4.698604232821325666e-01
1.839244168456827255e-02,5.395697194228762372e-01,4.924007894350820869e-01
1.152259307272599648e-01,5.329539512162658754e-01,5.380725783085291702e-01
1.533185774642969179e-01,4.776670608630715908e-01,4.371700175456015858e-01
5.962709232408550802e-02,4.705804024342861158e-01,4.349416018233995262e-01
9.724459723010040260e-03,4.998258694893770171e-01,5.194847625303545824e-01
7.012891322603058419e-02,4.548944636874227565e-01,4.742446355030380256e-01
4.038164652882709343e-02,4.969208528331599539e-01,5.129688276338515429e-01
9.386613667214831203e-02,4.330213996025634726e-01,4.911469997684730915e-01
1.095451199056333980e-01,5.692621754785077703e-01,4.408936166716549421e-01
7.438037856141617443e-02,4.572024891301122440e-01,4.924638924848629973e-01
8.822913055402804849e-02,5.025325976709198450e-01,5.162061131836384043e-01
1.172753066953031581e-01,4.983984170430675875e-01,4.957756384683446593e-01
1.069617763151432810e-01,4.824368823867093981e-01,5.405739843774228781e-01
4.093278299020456507e-02,5.150071382716223667e-01,5.193167857357681161e-01
7.578298695342451652e-02,5.038007651948165355e-01,5.011216425071987057e-01
2.813746786421825880e-02,4.798752343138465992e-01,5.137230674283149723e-01
7.848197989374665340e-02,5.502194561364711634e-01,4.906541887783725797e-01
8.861550659884090408e-02,4.910299211331236591e-01,5.290650293568189833e-01
3.329619452247187250e-02,5.253278554093250285e-01,5.503363261310667554e-01
3.710876045993395655e-02,4.322895008148538443e-01,4.511322437111062733e-01
6.305106329277561372e-02,5.244019317360709698e-01,5.340035328563437211e-01
1.402514220923933852e-01,4.943746305073785097e-01,5.649884402975181574e-01
1.070058370893211541e-01,5.589121167413176883e-01,5.091258638934380576e-01
8.376708585903273885e-02,5.289085152503648635e-01,4.994386424215468967e-01
8.260182112430680679e-02,5.054383988709119091e-01,4.729549191981078926e-01
1.961460933322267397e-01,5.638737960863235976e-01,5.045914665519817266e-01
1.362708011264314178e-01,5.156447881910170006e-01,5.221110882828338129e-01
1.070119644164594375e-01,4.946636415836195844e-01,4.477513371012109555e-01
5.628697793947531197e-02,5.652386402303443136e-01,4.073465951503857374e-01
1.649879222064376261e-01,4.508633765674122107e-01,5.669765326209547096e-01
1.613338199672685880e-01,5.076399567601060925e-01,5.357796619464555432e-01
1.268508600756483307e-01,4.590953166889745751e-01,5.350307952378549059e-01
6.352502974783742762e-02,5.114851060079937950e-01,5.010535714589066103e-01
1.650624761579718713e-01,4.673370169591382628e-01,5.437781976985022192e-01
1.517020566539972193e-01,4.650867919564773967e-01,5.629127408169524172e-01
5.121569262662067218e-02,4.985381363231709551e-01,4.927487896594573979e-01
9.858793949840395643e-02,4.866035946052120198e-01,5.169135062392649083e-01
1.460662567077150586e-01,4.800323447815050271e-01,5.361054872746893185e-01
9.222361548383090080e-02,4.929462921411043030e-01,4.776427151506625335e-01
1.849989054466640304e-01,4.691822734068195055e-01,4.794406233784610505e-01
1.521407576902833181e-01,5.300141365730627330e-01,5.220760493071641140e-01
8.544055261585678518e-02,5.765655101909265001e-01,4.634747700373798573e-01
1.598760973542172059e-01,4.019215936957557522e-01,4.959887098154582286e-01
1.838030295776649503e-01,5.049284616273026494e-01,5.422280800570454806e-01
1.434972523112050813e-01,4.504485570555241125e-01,5.136366521745888702e-01
2.052789212433704380e-01,5.340943184418990297e-01,4.599326257789815298e-01
1.178838606538182010e-01,4.476588581017516555e-01,5.286201938008295853e-01
1.036339905536855649e-01,4.355488200470671867e-01,5.022254455331848222e-01
1.083820073411400076e-01,5.077749794609542899e-01,4.616340235337577647e-01
1.487980596024905400e-01,5.522162517960219619e-01,4.948886809111383567e-01
7.039184018178713809e-02,5.212460644699552503e-01,5.251289924518014463e-01
2.822367921300034665e-01,4.482483364680678872e-01,4.444570540143484294e-01
2.237223083603094020e-01,5.450436807656648952e-01,4.321063185005737384e-01
1.563747674628691575e-01,5.174198104281926280e-01,4.556153269462953626e-01
1.673933231054303694e-01,5.293446351480166623e-01,3.910590641229287345e-01
2.123839856835734730e-01,5.185224758823372415e-01,5.467400548380151326e-01
1.285219746924912698e-01,5.169638162522299796e-01,5.261082190686537929e-01
1.838955173067307602e-01,5.350364089636567844e-01,4.813089247422335792e-01
2.514553058033930366e-01,4.492925591858856205e-01,5.393334885175503635e-01
2.237553566900319646e-01,5.282530197805325178e-01,5.103316492125343773e-01
1.268698800713967123e-01,4.777317630341360588e-01,4.971456546864971848e-01
1.762445831528706153e-01,4.863771075298854996e-01,4.571430780841579944e-01
1.682732324068014484e-01,4.973059760000381746e-01,5.125022713156015541e-01
1.822629127320316011e-01,5.051739439326473624e-01,4.553784492848693133e-01
1.898308894858683760e-01,4.913183771118397880e-01,4.721391146812726758e-01
2.385688596213724200e-01,4.897902647078674621e-01,5.094073675160384340e-01
2.213504638409928282e-01,5.271475014188473640e-01,5.733292761525272674e-01
1.679040898944649529e-01,5.501836695432839042e-01,4.732838287792314746e-01
1.492940729704856917e-01,5.559772510796859857e-01,4.944263380547165299e-01
2.044981682088690411e-01,5.136939858980527074e-01,4.716979510302742318e-01
1.717685104875399660e-01,5.265196551226999366e-01,4.776141338172805173e-01
2.235137016064370763e-01,4.935629196303559230e-01,4.404159199669320235e-01
1.896767488692750747e-01,4.438175632043657171e-01,5.369726141721608004e-01
2.350553587956071833e-01,4.742369820946639170e-01,4.422434281043264304e-01
2.279787761179928318e-01,5.124901073280727637e-01,4.464509666817063072e-01
2.202512980125615472e-01,5.130118126808547174e-01,4.709017240808622828e-01
2.254184912096434401e-01,4.928511610449646252e-01,5.629458058373728591e-01
2.034631740334734151e-01,4.644335244860437473e-01,5.156450320350192129e-01
1.713893787814607939e-01,4.260889859690988324e-01,4.408361110913759373e-01
2.356011705635934206e-01,5.475393023227834721e-01,4.541999276803553864e-01
1.788763135365034618e-01,4.336456999139354784e-01,5.056208483574968771e-01
2.200748773232391597e-01,5.509123384077158070e-01,5.651095963235055475e-01
2.149433972582467101e-01,4.643408036768142400e-01,4.906286855382568923e-01
2.777087952513715430e-01,5.361376594723367139e-01,4.055792489243617571e-01
2.499170086824280268e-01,4.596766746185068642e-01,4.367080111220627003e-01
2.029359284240965511e-01,5.764839573062969791e-01,4.767718189927536709e-01
2.759501008873081473e-01,5.725671844333929394e-01,4.825009961759318400e-01
1.828478070414836787e-01,4.770945192594591155e-01,5.006323491046748009e-01
2.009648351311804082e-01,5.028735707068506811e-01,4.871988017124794235e-01
1.768776090667369405e-01,4.824675753636747388e-01,4.606169180920495765e-01
2.788624353339911877e-01,5.243437154045622606e-01,4.808637786478887621e-01
2.269293571520441810e-01,4.600071998944645357e-01,5.691989166794075850e-01
2.065126528957957897e-01,5.410358511096288181e-01,5.327119337400412213e-01
1.736722925983957000e-01,5.713206305018259101e-01,5.383825295873255756e-01
1.941463525765135811e-01,5.500906613709715121e-01,5.508620248752825743e-01
1.612283725322143924e-01,4.987726053056040776e-01,5.554286743324913234e-01
2.109279592362365563e-01,5.622741820769683319e-01,4.953212249376785503e-01
2.468059945155036405e-01,5.899593582096012145e-01,5.586303803483223529e-01
2.026758918076791705e-01,4.858530189837345081e-01,4.697317649218013536e-01
2.374400075992781356e-01,4.617166309951030168e-01,5.402506679084656538e-01
1.516629909933625564e-01,4.577089700204744482e-01,4.464122045673022954e-01
2.494574328915243056e-01,4.430330130312712944e-01,5.162651449452992924e-01
3.129550504797214416e-01,4.781392595007528112e-01,5.754259409188153818e-01
2.661680064852450234e-01,4.569195913722903790e-01,3.988119329242728606e-01
2.432005706361613506e-01,4.579614728020265368e-01,4.812650947200263762e-01
2.574570343829566399e-01,4.825648648362140802e-01,4.961048266354234904e-01
2.152801145373519909e-01,5.464614193011231302e-01,5.930840249379876195e-01
2.192899903539202444e-01,5.292970191325802043e-01,4.735090844422333300e-01
2.549663372914340864e-01,4.976085767416347228e-01,5.139789436000287148e-01
2.273123875372564939e-01,5.515054519020401447e-01,5.562972319832339974e-01
2.353373125128104537e-01,5.357688872707598859e-01,5.216120445962196817e-01
2.814283145454513080e-01,4.100801826742548339e-01,4.446504392486156920e-01
2.343640527486871294e-01,4.547620205486115341e-01,4.614497693341302886e-01
1.271693981477364510e-01,5.353398774551443307e-01,4.450828090116865088e-01
1.863167690989780412e-01,5.090402671484409725e-01,5.213303556083116463e-01
2.475906009942846486e-01,5.870531442265014554e-01,4.700034206498273637e-01
3.372289219534659321e-01,4.926867540051123040e-01,4.866529215005623299e-01
2.665521495584045608e-01,5.332766633620141805e-01,5.695064348191604120e-01
2.445118440115407465e-01,5.283361621889115511e-01,4.853875495849020449e-01
2.855959333548356849e-01,4.778970769110152395e-01,5.188310747649604870e-01
2.712904446703942041e-01,5.148635744559747485e-01,5.044028186152300641e-01
3.501999355843774531e-01,4.941967287722054403e-01,5.116741812104635967e-01
3.123904559079435095e-01,4.239009682551941882e-01,5.317733603565502065e-01
2.757227495444670162e-01,5.186248038206519029e-01,5.338561354263973158e-01
3.208434003194904349e-01,5.074322685466802207e-01,4.896192952769490292e-01
2.837958130578450699e-01,5.419384446170071312e-01,5.071462485013538135e-01
3.327484593195454421e-01,4.955239850421178094e-01,4.171656764762305958e-01
3.471771626686325218e-01,5.040793075692094893e-01,5.496766168856680457e-01
2.654136263806318174e-01,5.160470787800535142e-01,5.152274346254859250e-01
3.031739868930755089e-01,4.912767008689508663e-01,5.366607963068065201e-01
2.669745338936043710e-01,5.684607110477601921e-01,4.260983812628168499e-01
2.613143544305632782e-01,4.807199151823010608e-01,4.389632713527124031e-01
2.407872752550463402e-01,4.954798404168718751e-01,5.230084501814795672e-01
2.683130216945110447e-01,5.006935602886070091e-01,4.675327864426758184e-01
2.915228680187233468e-01,4.880070732895639973e-01,5.103862555137330670e-01
2.823433486352521782e-01,4.709904174596677984e-01,5.173938420945277672e-01
2.981748249199916989e-01,5.320103828609871188e-01,4.700019738936086489e-01
3.276332035758686145e-01,4.698986513172415669e-01,5.693665766509615755e-01
3.084629441814740192e-01,5.207626880755827914e-01,4.320474052698983214e-01
3.294339971749700724e-01,4.385074922623219407e-01,5.877703487902850021e-01
3.308858508813275479e-01,5.337505378162238356e-01,5.558106779681906140e-01
3.195815847296240020e-01,5.151304570882409006e-01,4.838192991285141242e-01
3.265092652100816117e-01,5.315793678139471012e-01,4.150019492095609608e-01
2.408786746794099043e-01,4.996969861292039905e-01,4.924253520175956300e-01
2.429598328611676517e-01,5.307454467210999116e-01,4.402618182367497024e-01
3.019594173108595125e-01,5.062075604626178338e-01,5.018867664222268488e-01
2.590006041783184942e-01,4.308787602512954007e-01,4.282549769613463453e-01
3.410543175760655799e-01,5.015549317588013922e-01,5.031403830524221465e-01
2.643569978701565404e-01,4.904920915447927854e-01,5.134285777043786636e-01
2.411909774614988400e-01,4.861684563392482672e-01,5.496700776303786729e-01
2.694860799417314601e-01,4.965968514141728130e-01,5.168476216965828263e-01
2.086131557126740255e-01,5.646825535604916846e-01,5.412670099584705463e-01
2.599589044784295089e-01,4.786423325632523373e-01,4.849321607713713567e-01
3.062990428780591468e-01,4.366717521862916174e-01,4.438073666223091851e-01
3.104751585156486637e-01,4.955095389578965670e-01,5.128066000027375893e-01
2.829421614029268839e-01,4.776145018935578634e-01,4.835047932408790272e-01
3.206086874053244440e-01,5.297358593435506080e-01,3.892940942159636708e-01
2.818210914377899945e-01,5.784395780969254774e-01,4.789618050439486963e-01
3.574237619581227543e-01,4.598698859412174711e-01,4.696995400551042810e-01
3.031251136232855359e-01,4.943995545669785940e-01,4.795217748284272274e-01
2.827746276643940959e-01,5.191703848247348763e-01,5.125831811193918286e-01
1.840923863102886249e-01,4.355358889609980411e-01,4.576176059231132354e-01
3.333031429975877868e-01,4.729803245392146804e-01,4.943616768339008649e-01
3.099116601628660317e-01,4.669599820547828406e-01,4.665318444101987927e-01
3.689142291889562220e-01,5.006067210479553387e-01,5.181950077794365006e-01
3.457080547222698974e-01,4.592780187890914689e-01,4.973420316020321641e-01
3.474071751605103953e-01,5.477157543406473428e-01,4.560102726716515065e-01
4.212260817163807070e-01,5.403495975104282145e-01,5.097472487899008531e-01
2.799132707575812118e-01,4.522562789121672977e-01,4.894568144781429320e-01
4.025366242460091670e-01,4.987213585327858745e-01,4.993098452476967264e-01
2.826038781606068362e-01,4.905842935714500586e-01,4.696139843051138074e-01
3.337744191724738019e-01,5.089960412210944307e-01,4.269614817658473060e-01
3.574669193232331010e-01,5.172869330789459097e-01,5.243163275415601010e-01
3.103751428864214290e-01,4.560854965580357634e-01,4.878730718960110346e-01
2.632271799887508923e-01,4.398353764044565795e-01,4.449434677093850876e-01
3.268621315378779646e-01,5.493523592772028286e-01,4.735568451823658487e-01
2.654611639568275061e-01,4.237718225041495756e-01,5.351996950133143249e-01
2.599125698925257577e-01,4.650742896267905935e-01,4.955613055637660413e-01
3.308901819495153052e-01,4.607180100357983199e-01,5.382183289183600783e-01
2.747263428036094690e-01,4.626680445556514143e-01,5.737413937807928077e-01
2.223382960279153553e-01,4.911565492118968312e-01,5.387722469106200895e-01
3.545811225983949155e-01,5.109791358706589071e-01,4.364901098404312951e-01
3.499878787466946806e-01,4.811649406433146647e-01,5.588335119592816591e-01
3.182095093208854308e-01,4.895153624068938059e-01,4.398388528219181470e-01
3.569069947824087263e-01,4.836928919945064353e-01,4.338234730457746768e-01
3.462422905337085854e-01,5.355676541211147335e-01,5.766233506342627324e-01
3.317121221847718626e-01,5.095912054130821156e-01,4.748055907924526586e-01
3.142832810669138333e-01,5.130225680427573653e-01,5.492307235822387890e-01
2.646086696196587318e-01,5.620539000507692728e-01,5.518886041109882790e-01
3.419276869167167665e-01,4.844010696525020143e-01,5.502543223401720196e-01
3.364071675534758277e-01,5.083267184879345368e-01,5.096613055777077239e-01
3.193584799083309389e-01,4.258490082635857377e-01,4.520609280994442591e-01
3.447340726598033811e-01,5.001615019314514798e-01,4.669755767088827891e-01
3.753365811486107928e-01,4.589114967548937329e-01,4.294866625160477236e-01
3.081894232274255407e-01,4.839726307574022113e-01,4.809888130548857776e-01
3.247047290490979732e-01,4.806471803044789493e-01,4.456975020760876038e-01
2.909801237489240688e-01,5.456345477647240871e-01,5.001413825070798458e-01
4.267712722925898206e-01,5.428149485708581024e-01,4.910009071534998659e-01
3.666496800436287451e-01,5.656790395934949700e-01,5.133553979305489623e-01
3.951471881638478068e-01,4.858289318699323123e-01,5.290688071937555970e-01
4.066318443496015345e-01,4.047665680653700360e-01,5.261822606963652005e-01
3.569835409680502392e-01,4.926312463060710245e-01,5.227992037316387952e-01
3.324962264785009114e-01,3.494840026464426375e-01,5.332830978668204880e-01
3.760858672946410519e-01,5.076741485891803629e-01,4.343638990685605439e-01
3.993756909181597758e-01,4.673285626845501417e-01,5.678272914482008771e-01
4.048876198108453117e-01,4.230984725896803633e-01,4.560572818516920313e-01
2.711160664710052237e-01,4.491821006564508112e-01,4.535649367758666228e-01
3.071755308170982524e-01,4.855072514000073891e-01,5.348242860954250943e-01
3.916570363223972340e-01,5.283790106403473130e-01,3.892186852985698997e-01
4.139165995170760448e-01,5.606264004957255409e-01,5.449587110677787116e-01
4.565535948164437530e-01,5.084545664714762436e-01,4.847040193350637405e-01
3.570695851576185520e-01,4.620556706592252594e-01,4.908569973357184701e-01
3.152670192305954133e-01,5.033577020050573614e-01,4.706077034865030484e-01
3.692539299824978416e-01,5.433140467126487128e-01,5.140935449900326804e-01
4.431682236857586998e-01,4.761039407525664569e-01,5.358688067516571563e-01
3.524974391436970222e-01,4.241156589777423935e-01,5.221999803923645933e-01
3.872078784621184600e-01,4.630183551966932654e-01,5.044712960887517417e-01
3.120255795882815875e-01,5.367927478195088087e-01,5.537915689355600302e-01
4.034154066207321088e-01,5.276681064238937235e-01,5.603736585090677291e-01
3.079325253639994542e-01,5.450018110946700522e-01,4.694525787335518952e-01
4.012379368253220502e-01,6.014770577526189488e-01,4.110881536562921434e-01
3.815255723360578277e-01,4.956610715854444238e-01,4.609519878325447628e-01
3.394509902102752497e-01,5.165269820012573510e-01,4.375579452719168816e-01
3.450997543071275819e-01,4.558802012426510508e-01,4.143909537747031413e-01
3.612623949010960733e-01,5.434358334574784788e-01,4.930056339064750048e-01
3.121194704096047490e-01,5.166065935070237591e-01,3.910098301775616902e-01
3.635442297879029061e-01,4.331544968382680660e-01,5.119027052016189572e-01
4.050832758562381564e-01,5.492174535571007210e-01,5.327120737864946554e-01
3.918331929085064891e-01,4.426203518783155544e-01,4.457658092682322271e-01
3.071421035624330442e-01,4.870649443977565496e-01,4.940587870578399543e-01
4.002047616797069773e-01,5.261607044528208155e-01,5.555728985483180393e-01
4.233877255226114467e-01,4.604491636270102717e-01,4.832718782431074112e-01
3.620576630816507158e-01,3.986387368936270548e-01,4.534311217303889641e-01
3.267646848831513573e-01,4.985301673720388127e-01,4.603198520087512513e-01
3.348938289279784208e-01,5.566544336149362726e-01,5.189036403751620119e-01
3.644201225038635750e-01,4.740912245748920562e-01,4.825772514693981163e-01
3.892404194456794975e-01,3.818924870382196524e-01,4.852707714306414011e-01
3.990266026351169670e-01,4.952313747801294075e-01,5.355884475264280908e-01
3.671935297960609579e-01,5.186214114922107488e-01,4.637983059065232672e-01
2.763589429738254610e-01,5.013852529033859806e-01,4.330678945671036506e-01
3.588399681389585760e-01,5.211527228925983968e-01,5.280343801929443526e-01
3.154180530022402396e-01,5.348582027829530405e-01,4.729353950481012814e-01
4.031233624170334484e-01,4.556865601028836088e-01,4.566436471774760197e-01
3.870527354682185006e-01,5.122683317462499719e-01,5.701088186542220271e-01
3.727783101091279305e-01,4.689246666154049392e-01,5.780056126420004547e-01
3.464474509193866680e-01,5.130998860305671094e-01,5.093462386791637320e-01
3.146204670341222753e-01,4.633910688878593587e-01,4.463987040989397803e-01
4.154179435550999777e-01,5.077466951839523235e-01,5.471862738824604389e-01
3.346264895410319129e-01,5.180700947001071199e-01,4.405108094909294669e-01
3.973918092889383025e-01,5.003430081389658168e-01,4.853561119171745375e-01
3.341250262504034674e-01,3.928412779802523680e-01,4.897040273250607423e-01
4.142158116705250137e-01,3.869414475414883481e-01,5.476084196800797832e-01
3.504925674071773245e-01,5.545526932523263675e-01,4.738512793301188353e-01
4.480358715557450355e-01,4.741750278670237018e-01,5.284712198303186392e-01
3.021214056070526399e-01,4.929161653542866173e-01,4.832352031752674693e-01
4.124791343974679170e-01,5.074308081351198707e-01,4.975463604647740179e-01
3.987258246749137425e-01,5.133774371482919818e-01,4.817151535030479992e-01
4.582067626984456243e-01,4.230794878100054834e-01,5.163998242216429890e-01
4.282286479522358635e-01,4.530976495129990234e-01,5.552324063549096689e-01
3.771308024713061480e-01,5.433069399601171412e-01,4.851573992493075638e-01
4.229451911173244261e-01,5.258321835034307501e-01,4.334992688989947052e-01
3.541663121944294557e-01,5.202685560756017402e-01,5.017717439049037553e-01
3.528184852874434729e-01,5.091107307737696708e-01,4.799615494748660782e-01
3.646590214884043446e-01,4.935241076929970383e-01,4.903261500430313169e-01
3.437658740740212049e-01,4.856501243932725975e-01,4.964479145644487557e-01
3.147289026958746128e-01,4.176352514825146245e-01,5.220458453600083093e-01
3.524504791690971639e-01,5.476847742323897039e-01,4.767208603399294420e-01
3.784826714686502225e-01,4.626515891424281546e-01,5.149110318331128200e-01
3.747456918132645587e-01,4.740637436956678941e-01,4.775975152385386058e-01
3.529895652948761287e-01,5.218218691709534118e-01,5.271464569795848432e-01
3.861987776601164546e-01,5.548782608306189745e-01,5.185720678694814012e-01
4.087378779487396141e-01,4.700323118533227817e-01,4.684519721806052472e-01
3.772785992906265151e-01,4.894234805496693874e-01,4.989390349896487553e-01
3.672933382212043574e-01,4.311621309126315027e-01,5.069373946307711432e-01
4.006291363331417887e-01,5.826691429964847568e-01,5.014918882634801234e-01
3.912274908458415745e-01,5.200715997516053291e-01,4.836179719966317014e-01
3.268462135013830983e-01,5.283851936230912205e-01,4.662140507550490143e-01
4.451765975285413290e-01,4.599501983093037816e-01,4.950210609898431091e-01
3.510988643756013383e-01,4.788242390087358857e-01,4.706822965996054209e-01
4.400018236679627548e-01,5.286245845850444658e-01,5.143419328661276158e-01
3.331645690751906530e-01,4.920727050717460527e-01,4.988358988272779682e-01
3.784069296774822400e-01,4.921961834636576771e-01,4.298154046830940933e-01
3.727017109006103279e-01,4.977168105168942036e-01,4.865747805957104100e-01
3.928206240389291448e-01,5.406421097945460774e-01,5.963876090185187273e-01
4.032921309395771092e-01,4.703891817581186130e-01,4.971556505094385514e-01
4.196876243977267218e-01,4.860129356557026936e-01,4.503565250716795587e-01
4.465104352977465330e-01,4.624816127948863653e-01,4.738283716922199740e-01
4.179292541656097759e-01,5.333048190822132772e-01,5.217285659897596961e-01
3.308318324089982165e-01,4.708065286855150910e-01,5.029377322052068777e-01
3.871192960049931742e-01,5.392556981230465230e-01,4.513941773454420159e-01
4.206667022906828701e-01,4.726215765385602952e-01,4.963331585738868235e-01
4.218825878997543577e-01,5.234710973297697079e-01,4.365083691321325898e-01
3.550048550273298686e-01,4.568048499574882682e-01,5.429526422139560049e-01
4.132723217186496378e-01,5.304644787527217353e-01,5.022728359672200549e-01
4.080524925156610028e-01,4.970465015749838122e-01,5.080246287719913934e-01
4.454788512621617458e-01,5.406092291404267502e-01,4.881032823049833991e-01
4.181934269065237242e-01,5.866170219780052486e-01,5.852909615198107485e-01
4.281686538078247617e-01,5.148185455220106732e-01,4.593462673669334584e-01
4.249419944413684314e-01,4.117490345155994658e-01,5.440877445907454923e-01
4.310036610758434250e-01,5.886896136606176722e-01,3.853421835364208570e-01
3.475127887732152310e-01,4.455753021084418730e-01,5.363742268940414615e-01
4.748616078026188791e-01,4.798532720874362223e-01,4.666548463971633143e-01
4.948892164124085169e-01,4.781694729887815409e-01,5.180288728255666442e-01
3.951536001010817478e-01,5.475502681190396181e-01,4.347604183125677313e-01
4.410618206063567359e-01,4.730409647484031255e-01,3.956527596877810193e-01
4.210157280412051839e-01,4.752657946992004945e-01,4.771189565634902374e-01
3.567737343002018169e-01,5.381853338928535013e-01,5.345047755649723342e-01
3.498735235934035126e-01,5.218895483002198299e-01,4.624063529493482871e-01
4.605336277954136248e-01,5.127689461164328666e-01,4.597437814976296777e-01
3.929244415946856472e-01,5.264802081753717777e-01,4.965646193735000491e-01
4.089541566318815602e-01,3.740295106850024531e-01,4.588271872838523557e-01
4.229006006202608581e-01,4.609409986552399086e-01,5.417747246912254511e-01
3.285516988060232513e-01,5.113047509720408668e-01,4.676502412121588681e-01
3.942075668915867026e-01,5.031795042198401458e-01,4.821734085456279018e-01
3.695689082974016326e-01,5.257732423218489659e-01,4.700690900603755051e-01
4.281128016474269327e-01,5.856142340446421901e-01,5.415825552973364543e-01
3.463272944957403454e-01,4.716285837481276055e-01,5.776714436991711166e-01
4.303980323192638791e-01,4.730444622676994171e-01,5.351633003468111438e-01
3.500213771540583996e-01,4.746039072627830646e-01,5.605646666448415028e-01
4.403381715767984428e-01,5.146352724068793405e-01,4.548883717118241687e-01
4.276420348519511250e-01,5.355965645892565297e-01,4.397170079473271542e-01
3.378552806835278810e-01,5.020633289574347735e-01,4.488748091824317221e-01
3.723939539096904894e-01,5.492552085698604314e-01,5.213659841502563674e-01
4.782847646762397043e-01,4.657818607394742516e-01,5.229565754776343001e-01
4.422274470578316241e-01,4.014788945309387125e-01,5.130508881326723003e-01
3.900574264495780819e-01,4.906985208702465684e-01,5.393262643463151429e-01
4.271891175732918655e-01,4.695216662817211506e-01,4.762221585202573992e-01
3.966762816742284703e-01,4.740643997546951094e-01,4.680258895594225921e-01
4.020382616312928037e-01,4.862635955859126446e-01,4.778192041869108175e-01
4.604797793908262937e-01,5.155305225993180862e-01,5.127039759116789330e-01
4.176542684581797116e-01,5.702091158982208752e-01,5.275763874708905288e-01
3.975935319562621251e-01,5.094178763772893026e-01,5.372943425751685043e-01
3.943587353656634042e-01,5.294016637392202629e-01,4.147820245143031825e-01
4.016966696764487366e-01,4.889130941836307143e-01,5.159902503515733097e-01
4.560592507676787810e-01,5.656095418719313539e-01,5.148448644371709237e-01
3.456281633765720951e-01,4.796929705493009344e-01,4.807022145953309678e-01
4.034665078575095931e-01,3.860765728853264855e-01,5.352663942035826850e-01
4.235986719389856492e-01,4.826327741046960162e-01,4.939022418243314005e-01
3.986419160943786011e-01,5.254210314133397342e-01,5.296596144201421996e-01
5.006559643620412947e-01,5.079529209263722311e-01,5.071395102396023535e-01
4.938439469467221232e-01,5.456122640695323378e-01,4.548827137428467782e-01
3.681947573552689090e-01,4.777106867216666664e-01,4.911091854786007183e-01
5.029465732974518488e-01,5.122201355495459296e-01,5.289282190899580183e-01
4.153180974639849032e-01,5.252915399660673668e-01,4.403545661794699417e-01
5.019083727179943777e-01,4.888160103413234370e-01,4.746685275606978283e-01
4.125569535193996940e-01,4.291447663437784055e-01,5.600100767126303669e-01
3.992951441318814965e-01,4.391401895375449116e-01,5.040128349540883290e-01
4.618296603786178345e-01,5.108428141723816429e-01,4.916943412008378256e-01
5.228339976795085553e-01,5.126437697564889540e-01,4.750420294282846068e-01
4.195148382562295941e-01,5.481977125623471725e-01,5.145144861223114319e-01
3.948431337107718431e-01,5.331554474051494186e-01,4.883021015830531497e-01
4.348210747640475771e-01,5.092837105498719819e-01,4.630623930586408310e-01
4.377450676746010849e-01,5.508083966528009023e-01,4.190608120907409750e-01
3.809889696740283993e-01,5.135545401008884125e-01,4.806721918212986111e-01
4.554785711010128635e-01,4.995224299702974990e-01,5.052762505751666744e-01
4.051106046095412916e-01,4.887089943032861816e-01,4.808577766706845225e-01
4.241442581768338771e-01,5.246605699835794612e-01,5.851864926832688329e-01
5.179939303781617710e-01,4.651248093388326010e-01,4.279912903158218929e-01
4.555425484449574514e-01,4.025178759614406743e-01,4.026445630976229761e-01
3.607567031316314399e-01,4.605523550820395662e-01,4.486001915342764379e-01
4.280299225400716057e-01,5.200497660555941648e-01,4.426314228874091428e-01
4.117357987423467258e-01,5.429341190944684259e-01,4.090058854412069178e-01
3.794094500367613532e-01,4.611309105920258222e-01,5.448135586016188414e-01
5.027153982124555887e-01,5.214608738473609506e-01,4.327747922505980616e-01
4.559147050103547483e-01,4.687580957001803994e-01,4.635370829179366048e-01
3.711055931769586258e-01,4.807812539500713189e-01,4.462749496631843726e-01
4.141842867646419735e-01,4.238286673166860585e-01,4.535468832305649123e-01
4.081439772913363351e-01,4.728529626482554371e-01,5.389727763579977848e-01
4.467429037481391307e-01,4.906310145262600120e-01,5.168800079727697838e-01
3.996305472599204767e-01,5.492417559689254380e-01,5.485601084516857906e-01
4.678233860417276291e-01,5.407397903646757875e-01,5.024492720437272464e-01
4.595704061047954925e-01,4.396558626254983837e-01,4.845464185173211646e-01
4.586456999940398682e-01,5.332695462473865389e-01,5.155009005987468695e-01
4.836248098902798387e-01,4.871602812990760700e-01,5.551700402280514979e-01
3.811319503742923720e-01,5.119127044102489421e-01,4.664440629593159526e-01
4.645081995907299199e-01,5.309430574570219719e-01,5.226751453728619712e-01
4.380509899391588635e-01,5.735243504637488332e-01,5.583291267869157082e-01
4.378910886374336453e-01,5.032646759671831616e-01,4.726402430457445902e-01
4.433702327841266277e-01,4.433472800752885079e-01,5.733796436545459674e-01
3.527313419633836822e-01,4.439468448654675381e-01,5.205640523350661963e-01
4.319653982472827503e-01,4.808629281513925324e-01,4.389895792924518036e-01
4.678797036060708958e-01,5.817619931457018723e-01,5.390375502268377472e-01
4.017630269469144588e-01,4.625416868999090436e-01,5.296661812430994987e-01
3.906215703476440537e-01,5.023955619515115822e-01,4.324559822011782573e-01
4.458022277099564223e-01,5.281410890806658154e-01,5.425811201589039179e-01
3.984991996425463756e-01,5.322182565826963918e-01,4.620117977030732126e-01
5.084454099905971747e-01,5.959393883000309033e-01,4.808565846282119582e-01
4.735351145196537992e-01,4.897331223664040944e-01,5.816795625215042120e-01
4.272573974633077087e-01,5.512997811036021156e-01,5.967946313164033123e-01
4.244463441024993733e-01,5.001261466880704276e-01,5.117335090332967296e-01
4.614904890551257965e-01,5.005891974158500624e-01,5.331664673242919594e-01
3.857626651395655304e-01,5.112667012219570539e-01,4.883535519974652739e-01
4.198858152188947868e-01,5.316659845564379872e-01,4.836506912736230346e-01
4.752343054766897112e-01,4.343730034709978871e-01,5.179556577260010508e-01
4.602422969640085348e-01,4.976166341685617223e-01,3.766066476753271997e-01
3.750096229572932316e-01,5.043695201724692767e-01,4.754626842800827036e-01
4.721593319248199583e-01,4.969078594713072228e-01,4.513356366112907248e-01
4.141296451964750491e-01,4.842215019725663594e-01,4.257967429587794506e-01
4.645170963651109042e-01,4.526544071979887174e-01,4.988799436413652311e-01
4.584417240778479452e-01,5.446658943252840057e-01,5.132301316537801750e-01
4.329467182213339038e-01,5.196081600990481997e-01,4.872874549014467038e-01
4.623274633567111547e-01,5.812682509199502690e-01,4.289538432739684604e-01
4.583857634594503683e-01,4.380691920859457467e-01,4.712349109571351002e-01
4.724532209265884797e-01,5.449009751504549914e-01,4.658052918085319738e-01
4.867233868655890250e-01,5.016848089173925329e-01,4.229661943687167414e-01
4.506293916622015061e-01,4.856135615537056638e-01,5.206263772136914270e-01
4.324076082485647232e-01,4.087689512746921494e-01,4.849072618462461071e-01
4.344221286193575282e-01,6.015551819197706429e-01,4.782586487398967634e-01
4.157763178691938344e-01,5.040065128328101718e-01,5.309915823083721786e-01
4.226770345204102775e-01,4.979118517387608467e-01,5.369222352178731894e-01
4.340035274974443080e-01,4.491785175286939769e-01,4.888005695470831191e-01
4.504808636163852298e-01,4.977974157769722852e-01,5.281711274606687434e-01
4.590737656705723424e-01,5.410127944684083312e-01,4.062913383315918114e-01
4.698947034099370534e-01,5.615203920181316422e-01,4.705442224822054542e-01
5.025615572598510772e-01,5.813400504229185861e-01,5.839024891549108309e-01
5.414750353426274199e-01,4.822647087645786090e-01,5.039514412723321568e-01
4.512392061868579773e-01,5.042343676305183209e-01,4.599971320658536866e-01
4.802533753977283881e-01,4.536780246134767824e-01,4.822090494893564450e-01
4.443429550715473075e-01,4.385126103586256541e-01,4.889437928609223216e-01
4.807203525568644054e-01,4.438492871091263559e-01,4.837996263223544036e-01
4.222981985826997353e-01,5.381122989073772178e-01,4.996180955943863022e-01
5.064539363680909956e-01,4.601216287880899869e-01,4.446308267330031372e-01
4.169426989664873906e-01,4.887384842888022884e-01,5.359730571257047549e-01
4.836809211134827091e-01,4.576577104560280995e-01,4.670821913417498861e-01
4.591272676701813604e-01,4.737765288862929580e-01,4.651433479073999733e-01
4.400247485560506711e-01,4.865758033085745837e-01,4.227436807243202255e-01
4.247509975030108742e-01,5.587508842517885377e-01,4.501295868801121203e-01
4.580585514465827512e-01,5.485302820066392249e-01,3.961948018342967837e-01
5.140067847699643089e-01,5.798092259008224003e-01,5.305450841808003748e-01
4.626709285424662754e-01,5.235884414987419522e-01,5.161569033327209066e-01
4.876083253586357968e-01,5.371356308665922175e-01,4.824123896528054178e-01
4.355922230681687490e-01,6.011036349399860867e-01,4.042001630946939761e-01
4.386932351749768810e-01,5.439822892376430241e-01,5.561853569389686447e-01
4.392733398270542433e-01,4.518510572802747483e-01,4.517704930901512150e-01
4.418715599309626096e-01,5.659800847475335850e-01,4.410388328383315071e-01
4.246357024196749097e-01,4.883417883054246844e-01,5.348550234855150576e-01
4.627820458916865887e-01,5.557431974204189995e-01,5.035946510858730907e-01
4.957005072705237270e-01,4.931439165055367391e-01,5.229887268539257228e-01
4.687311293686434177e-01,5.016322318441067685e-01,4.975001481975787065e-01
5.182193376850983135e-01,5.025128512778972434e-01,4.861509805243976468e-01
4.144944359215333995e-01,5.275614221806906867e-01,4.385221396642687841e-01
3.882777065455103038e-01,4.477158624333159587e-01,6.137672998909474709e-01
3.019790161493804415e-01,4.467900747112625304e-01,5.696124281573289316e-01
4.171669733012517978e-01,5.024016010068991234e-01,5.689036151889180770e-01
4.601434459785251896e-01,5.393566929322545223e-01,4.366746348939956612e-01
5.020185114105774060e-01,5.060917572170595680e-01,5.307512718772338101e-01
5.477746766690533287e-01,4.750036881746519390e-01,5.114707768016014677e-01
4.662512780920416988e-01,4.601386648168698801e-01,4.809423491940570394e-01
4.387321221162877594e-01,4.999272048607580898e-01,5.503083298159618941e-01
5.214318846313519273e-01,5.158955688408870532e-01,5.229000719613307036e-01
5.089338867998998150e-01,4.405448023718475103e-01,4.534107066185801282e-01
3.754965314984055058e-01,5.449933410116029053e-01,4.852108236968170618e-01
4.222201812055537129e-01,4.501779200080327503e-01,5.333207619194160198e-01
4.952557725644768372e-01,6.060453333885367222e-01,5.075007235373850678e-01
5.209254805118638254e-01,5.078923969727914267e-01,5.000863750825809140e-01
5.343387677900670596e-01,5.669380990578113400e-01,5.479964212434526027e-01
5.297441885805250772e-01,5.324728744460545116e-01,5.173952590912749283e-01
4.756953432903501811e-01,5.720122231863136175e-01,5.107949443737505035e-01
5.050975871179118615e-01,4.570921398833785454e-01,5.039975280897470711e-01
4.341122653310922064e-01,5.282458947990367193e-01,4.430198416227245639e-01
3.968990442405753716e-01,5.333875533751628595e-01,4.297503586694993438e-01
4.540308068664255514e-01,4.853616830395411363e-01,4.987571921500503214e-01
4.928766838814297446e-01,4.781584941795616328e-01,4.607985977878238382e-01
4.109724558373739067e-01,5.348323104042088660e-01,5.019324687269144381e-01
4.849856838513723623e-01,6.074608471853688574e-01,5.580099816558551362e-01
4.169208133350519319e-01,5.294957690360571068e-01,4.838729609046902858e-01
4.381589621586771122e-01,5.004150675370447887e-01,4.209311566293517104e-01
5.035159015898506008e-01,4.633292185505160643e-01,4.567650878097871403e-01
4.843475966436410762e-01,6.125962324203918508e-01,4.808003305160467034e-01
5.058807487335098552e-01,5.592819646600666328e-01,4.711722603341026439e-01
4.365209969549510016e-01,4.937023484991152067e-01,4.845987674539448120e-01
4.815688780881924869e-01,5.493900540803428045e-01,5.480166192703437300e-01
4.692464463907223826e-01,5.311344174457941492e-01,4.837399264119714437e-01
4.247563818901179400e-01,4.732495210399599861e-01,5.297583818159014024e-01
4.103205857607534202e-01,4.908196081811681544e-01,4.412150250688626207e-01
4.892501445586163733e-01,4.716968567440418814e-01,4.947645583033622452e-01
5.164944257785590853e-01,5.615938135429854317e-01,5.134267234673629554e-01
4.775770822799733084e-01,5.736059834093839571e-01,4.909920851101167161e-01
3.983082917033652359e-01,4.817786702060060655e-01,5.702703444643646424e-01
4.456511582548648431e-01,5.403165854950673364e-01,5.475674588585341951e-01
5.074355792786223729e-01,4.978662615318105167e-01,4.559796747904216740e-01
4.756321084374324215e-01,4.804872124187739568e-01,4.976510672538950186e-01
4.652850113306562507e-01,4.850571374959865567e-01,5.118355929548042971e-01
5.233155501792063902e-01,4.817275512860593745e-01,4.892601874092543102e-01
5.109327822167821775e-01,5.075822164027138372e-01,4.526021025015647958e-01
4.785817031611108718e-01,5.461600129347740085e-01,5.020034375456510212e-01
4.404880965831624029e-01,5.011689463112442011e-01,5.577396765686247759e-01
5.136908689748332923e-01,5.055405202081937333e-01,5.185501143893599396e-01
4.729499561507861105e-01,5.323112827755512866e-01,4.136983069862574247e-01
3.682566656727219723e-01,4.340188624469196177e-01,5.493858978692472972e-01
4.568414708417992687e-01,5.056927521918732626e-01,5.164833972136965157e-01
5.111681923832218644e-01,4.857428412417223451e-01,4.836662524274610853e-01
4.455809339549156034e-01,5.149806442158465503e-01,4.743791967393235498e-01
4.154711244267452197e-01,5.407904908073896122e-01,5.057605498165536062e-01
4.629916034526632140e-01,5.841540420759989694e-01,5.188198557722640825e-01
5.041909326142225423e-01,5.276400615495594471e-01,4.819597943989548661e-01
4.954829316090340052e-01,4.810281462228395144e-01,5.394473119508031989e-01
4.751687385288340670e-01,5.094463200857288765e-01,4.669826061432725273e-01
5.045742709042775331e-01,4.556243969686166739e-01,5.521386606784344231e-01
4.402836126623264623e-01,5.578301117894565175e-01,4.727927467181297638e-01
4.418148692246301468e-01,5.039346097801267188e-01,5.427886957218674979e-01
4.858349958690894588e-01,5.074056807855752416e-01,4.818337127629707117e-01
4.437103607114491477e-01,4.957100568379640970e-01,5.306602351127545081e-01
4.943876602550370536e-01,4.856699372755394761e-01,5.260312590096589691e-01
4.639420470976591826e-01,5.381044366845308957e-01,4.047943527985310985e-01
4.761851247738589921e-01,3.905527190187647602e-01,4.789059755014971054e-01
4.703492658698946727e-01,5.265705562295973641e-01,5.524686227490505086e-01
4.588967549761486242e-01,4.888555275089541130e-01,5.397246522201738506e-01
4.174007407545568538e-01,5.013479177833246592e-01,4.859631992679513957e-01
4.919494840502615096e-01,4.508408206373895610e-01,4.781757333818925648e-01
4.068585577724452285e-01,5.027375978776943422e-01,5.611932391936303999e-01
4.319188891311303014e-01,4.992469317661628048e-01,5.160042238349663579e-01
5.139176206392973567e-01,4.625975979610249533e-01,5.311234666683283256e-01
4.204105773873396124e-01,5.020220527586579662e-01,5.909947568314291022e-01
4.575186947348144906e-01,5.720992071637361898e-01,4.356965119946503706e-01
4.902073585468498251e-01,5.034699607119279552e-01,4.691265633642010546e-01
4.480120263617265453e-01,5.416188583738432705e-01,4.900228010557841629e-01
4.989121302915681677e-01,5.384976213082428576e-01,4.492641875954123121e-01
5.398072066180064077e-01,5.744407341317316895e-01,4.991863596730240493e-01
4.681054538856141978e-01,5.523691558570471560e-01,4.833300840648926955e-01
5.085355874009909183e-01,5.390782799866036257e-01,4.782581191079440242e-01
4.708326239300387739e-01,5.371123137876094855e-01,5.126079991332210817e-01
5.421217398042700308e-01,4.044193618963372039e-01,4.798675120953279638e-01
4.840654797611549931e-01,4.961775910434943482e-01,4.723334178749132306e-01
4.383593558008728741e-01,4.662637896350113609e-01,4.856950384145536370e-01
5.435514542050811082e-01,5.048850052912864372e-01,4.651807314108435953e-01
4.477011251153973914e-01,5.276099090621537702e-01,4.964719909490726835e-01
4.636707919882336881e-01,4.764038710623315076e-01,5.137558668513633187e-01
4.557974550975389949e-01,4.419041328194605600e-01,4.802604251377506905e-01
4.670684655168294563e-01,4.802514462739346235e-01,4.394549089932329178e-01
4.016550789618192896e-01,4.958399975807342153e-01,4.811781271869359222e-01
4.779814887125941048e-01,4.346229275943435111e-01,4.899453248330236654e-01
5.207462717879428604e-01,4.811684688224901474e-01,4.696401785363963910e-01
4.276895868170096371e-01,5.285765521658831734e-01,4.921220721184895175e-01
4.681427958517532240e-01,4.632553587391979866e-01,5.239092075854425712e-01
4.662336682428748214e-01,5.166671392334850621e-01,4.807080993334954533e-01
4.549675529320623690e-01,5.471962413314993556e-01,5.168467465940302930e-01
5.067214839129676740e-01,4.262034613966765861e-01,4.504866773562342663e-01
4.464841531453173640e-01,5.205551672459720614e-01,5.111530313894592226e-01
5.648883753908023886e-01,5.729352490585590818e-01,4.857714649141312013e-01
4.515456773388768497e-01,4.898008332480155436e-01,5.353299665400836904e-01
5.296708775848438799e-01,4.632521283143446467e-01,4.947238120897672897e-01
4.944016285575427161e-01,5.209017436880540863e-01,5.046634146553140576e-01
5.554439060695444130e-01,5.428131813653239712e-01,5.267195594716324036e-01
4.135363666179520670e-01,4.689739759173678912e-01,4.652557034012559378e-01
4.949222695810272521e-01,5.160013334984021593e-01,5.200643097244920243e-01
4.511009688520366545e-01,4.556101936157671006e-01,4.894179959201956920e-01
5.167317416447193557e-01,4.775555267601908072e-01,5.091310864517469836e-01
4.872731576821928146e-01,4.678587181270474904e-01,4.530763646663232835e-01
4.769906485347366609e-01,4.609324267574274048e-01,5.922704722956225742e-01
4.702331671946018421e-01,5.548098858285819279e-01,5.585778957361445807e-01
3.834841223722625925e-01,4.850406410291917547e-01,5.297763328618385614e-01
4.443595500480222449e-01,4.747616245216670361e-01,4.569459332721800271e-01
5.305041511632220264e-01,4.596767929922285778e-01,5.791979180513434633e-01
4.979517677401683051e-01,4.909220984817654343e-01,4.184441102224168429e-01
4.829892296326662171e-01,4.618193754354613656e-01,5.182299457356189798e-01
5.288155421381554033e-01,4.808720564490362448e-01,5.201272102918979012e-01
5.114507578477960337e-01,4.626700871281121952e-01,4.506972519288146017e-01
4.570781906415566365e-01,4.736680062595923779e-01,5.272247193141300636e-01
4.733768062969313517e-01,4.714673852799215470e-01,4.744474465513780492e-01
5.050872385639896267e-01,5.238929786764581209e-01,4.760265359109389638e-01
4.590807081592723771e-01,5.194006350217654777e-01,5.036593599868930404e-01
5.762916333523836476e-01,5.294948176071553325e-01,4.725280896471343306e-01
5.360369388823749137e-01,5.330919596735902433e-01,3.697125135390999517e-01
4.112205556510399873e-01,5.018416665666390886e-01,4.557589865367734916e-01
4.400104306939348064e-01,4.852499605117149839e-01,4.673692907764454008e-01
4.418082485623779365e-01,4.723413312196436120e-01,5.037063772040186738e-01
4.577351282398975929e-01,4.492292607873697996e-01,5.070968829300032121e-01
5.012558000834758110e-01,5.569039775613365828e-01,5.374727552928690866e-01
4.939778803588158462e-01,5.705391810347547610e-01,4.390563257816583187e-01
4.856302538921621337e-01,5.447828677840187428e-01,5.448120661068867054e-01
4.969023324656945406e-01,4.887477258191704199e-01,5.910473865214194156e-01
4.718024092571020955e-01,5.025848324546959844e-01,4.780009529415804037e-01
4.793416938084880674e-01,4.639447631657956927e-01,4.500789597817262400e-01
5.716797630016656750e-01,5.139319631499316143e-01,4.758111360934615397e-01
4.473628819663936773e-01,5.233571529683953560e-01,4.677251412065813185e-01
4.356209064679319454e-01,4.475877656649109859e-01,5.180504342751216518e-01
5.577246358327180298e-01,5.004476633387654472e-01,4.468776158414863864e-01
4.939665667381865632e-01,5.179736394848469816e-01,5.478647397130377295e-01
5.470517718070452284e-01,4.799886455555786302e-01,4.726996013867928448e-01
4.448193421716955531e-01,5.404110213802413298e-01,4.760339586148286117e-01
5.340959691369513429e-01,4.871033566586032149e-01,5.593958829577019287e-01
4.227956756184003684e-01,5.213298146108845676e-01,4.990074677303393824e-01
5.047645367969196828e-01,4.828562289303022226e-01,5.696591206916568062e-01
4.168996002322598038e-01,5.274044335340736245e-01,4.642177613862841778e-01
4.100716636386398384e-01,4.278858561220688639e-01,4.793320906089953426e-01
4.732903771847616348e-01,5.171829245516574858e-01,4.819279090553709732e-01
4.684959953840611702e-01,5.595853342109401440e-01,4.859116609510915619e-01
5.332190721359262309e-01,5.583231999939001211e-01,5.622669856712210201e-01
4.839815404919359243e-01,5.380851794949406131e-01,5.613707400638597855e-01
4.892968177724803525e-01,5.769051834806655510e-01,4.886484558169203463e-01
4.847379929917874919e-01,5.022007409484234852e-01,5.215359408834610022e-01
4.280569814624460845e-01,5.444576724499433640e-01,4.723950958904498676e-01
5.238166750484714029e-01,4.999914551233058391e-01,4.748305941581891787e-01
4.179522366037681791e-01,4.877954127843918131e-01,5.318199359564586004e-01
4.657326888537323129e-01,4.565354526378354594e-01,4.447039937363307383e-01
4.998936720344860363e-01,5.171898735766310429e-01,5.696904107392702921e-01
4.901985014443185906e-01,4.845785970555155919e-01,5.185497278662372089e-01
4.717423469974554862e-01,5.630781906092071631e-01,5.212690069742923482e-01
4.426560683437201771e-01,4.961174072750683672e-01,5.133686147485746476e-01
5.173842702214963563e-01,4.487687629885811491e-01,5.129784042848969383e-01
5.077559895767893572e-01,4.740636040989838484e-01,4.239934670222075264e-01
4.389370386740651941e-01,5.254521963033809140e-01,5.393309010989911778e-01
3.610910135045580227e-01,5.409750002669947433e-01,5.115256649244646070e-01
4.959504509584733434e-01,5.125259826246431061e-01,5.066057848329048596e-01
4.633447107228659823e-01,5.461400876669599835e-01,5.169302574480395540e-01
4.379981404212234253e-01,4.959858473063196160e-01,5.286832220670727445e-01
4.283789319522916528e-01,5.784291950825237727e-01,5.743266330511825890e-01
4.679095206922669337e-01,4.710973513255408696e-01,4.913321278866195074e-01
5.002896676238980378e-01,5.325313747711034607e-01,5.367570115376236739e-01
5.465521528170941279e-01,5.154057620954356489e-01,5.107827168708015675e-01
4.582513161913854827e-01,5.109110203692545094e-01,5.750671916655629712e-01
4.574678727130504496e-01,5.302462978733923915e-01,5.424908358173944345e-01
