accel_x (m/s^2),accel_y (m/s^2),accel_z (m/s^2)
-1.003184348716124191e-01,-8.816183277098119220e+00,-1.001821774323316955e-01
-9.692286793999353722e-02,-8.814389687249201799e+00,-9.588954692033910265e-02
-9.870898814343151417e-02,-8.807101929215452429e+00,-9.794882831304811688e-02
-9.198092434273461016e-02,-8.806833496038535714e+00,-9.853960994911493965e-02
-1.009329331707439492e-01,-8.825820266022207150e+00,-9.036871279333287543e-02
-9.473336588389438817e-02,-8.799169935261078379e+00,-9.116203312211978993e-02
-8.688800987428432765e-02,-8.814880761914219320e+00,-9.871292130547248966e-02
-9.820370883525494921e-02,-8.822809659684571315e+00,-9.667264922252233328e-02
-9.501974705431284751e-02,-8.813181638074905067e+00,-9.326194316375757687e-02
-1.033128622830135623e-01,-8.815428504268037813e+00,-8.804078737206064154e-02
-1.007714206909330334e-01,-8.815003606349762322e+00,-1.002189678050461330e-01
-9.829502394431313683e-02,-8.812893469186603213e+00,-8.977716322503483115e-02
-1.034185330279714932e-01,-8.813423654979308353e+00,-8.667648354182459769e-02
-9.753132178679435604e-02,-8.812658439550762779e+00,-9.013416194155676742e-02
-1.027801375687969337e-01,-8.820150532937145016e+00,-9.628212738893514311e-02
-9.994110250157375863e-02,-8.821394332845146735e+00,-9.372892531407922556e-02
-9.611787163881732599e-02,-8.808960319761107272e+00,-1.005507151565382395e-01
-1.013577867695324708e-01,-8.813407737903821371e+00,-9.361476698489770709e-02
-9.134039841894665834e-02,-8.811139028489780145e+00,-9.002486662902739467e-02
-9.312660914677126089e-02,-8.816844347002817273e+00,-9.282170741664245994e-02
-9.242579967066287538e-02,-8.820636548785133257e+00,-1.011116906160023227e-01
-1.004040133340760865e-01,-8.815586435365354134e+00,-9.621894138891591564e-02
-9.872195285173854251e-02,-8.811493050704420682e+00,-1.076292177103597980e-01
-8.999465757122206144e-02,-8.812556491165477013e+00,-9.624315579836764667e-02
-1.009675186288392229e-01,-8.811587981300981198e+00,-9.922302172910851814e-02
-9.404802629006335513e-02,-8.820608494110432574e+00,-9.685008145456447393e-02
-9.873041049493715138e-02,-8.809863374137924197e+00,-1.035666869329392031e-01
-9.043818083960102061e-02,-8.817257179709011794e+00,-1.014147574941948043e-01
-9.775098427002859580e-02,-8.814764111973852678e+00,-1.033773525324471199e-01
-1.016858187932008079e-01,-8.823369888588505461e+00,-1.008677142623222722e-01
-9.402448404907394475e-02,-8.810471752670142820e+00,-1.005280767638389028e-01
-9.482882700324704595e-02,-8.813911271232596434e+00,-9.106094742700596156e-02
-9.238801113390285313e-02,-8.828589148990863222e+00,-9.837919821149071486e-02
-1.016267539409408116e-01,-8.817434673894782193e+00,-9.516121177245261131e-02
-1.001813172448240280e-01,-8.817645341394145575e+00,-9.879429775970476058e-02
-9.381744176429930582e-02,-8.821497237122969182e+00,-9.744467133398626579e-02
-1.079721194872866330e-01,-8.815216538996049067e+00,-1.030400780853306386e-01
-9.462406313863799823e-02,-8.811490012555351470e+00,-1.000255408365854221e-01
-9.876610046388792363e-02,-8.808971401116782118e+00,-1.024023412602454719e-01
-9.783869428792264789e-02,-8.812309538623589233e+00,-9.250228798515099105e-02
-8.053636911654694919e-02,-8.827829971666421471e+00,-9.556498238062366424e-02
-8.716308791180536752e-02,-8.809462376940638606e+00,-1.013478531514797332e-01
-9.185605820578243708e-02,-8.815798593322341503e+00,-1.029444126097893569e-01
-1.058804630899035648e-01,-8.809315220910255206e+00,-9.099757000295105591e-02
-9.589916309478047074e-02,-8.818254516526922160e+00,-9.023935468545493666e-02
-9.535808207078255716e-02,-8.819734855215846991e+00,-1.023194477300722327e-01
-1.000875157678106642e-01,-8.820527783318311776e+00,-1.001092079154869280e-01
-9.547856222973111207e-02,-8.810908439165004324e+00,-1.002035364938756862e-01
-1.002059592881437006e-01,-8.820926846438206681e+00,-9.579706151316713658e-02
-8.691624902708673661e-02,-8.819299119179245139e+00,-9.630914174406648987e-02
-1.007522378541256536e-01,-8.812119681219027001e+00,-9.557531733752033798e-02
-1.071732531835705576e-01,-8.818112688594613502e+00,-9.504773242721541171e-02
-8.975133839471793884e-02,-8.821352016213040770e+00,-9.532857352652419902e-02
-9.309412361118636625e-02,-8.813490426037414949e+00,-8.970897876036434959e-02
-1.038111413034426833e-01,-8.817225053949643510e+00,-9.717117686279097555e-02
-9.423428428053810813e-02,-8.818499215149714132e+00,-9.569601027343002664e-02
-9.114615631214699476e-02,-8.814557926125086595e+00,-9.849564054039612604e-02
-1.098038771072528397e-01,-8.821310882085613869e+00,-9.842720625779201316e-02
-9.742383572159601934e-02,-8.811002021264560113e+00,-1.009578957264142124e-01
-8.882733173429771534e-02,-8.816378447034519894e+00,-9.918876117272967807e-02
-1.030968602819479912e-01,-8.808018289228916942e+00,-9.710423289143414738e-02
-9.488640412535655211e-02,-8.820894528253873546e+00,-9.883620073660442928e-02
-9.962026344086055696e-02,-8.813723187038547735e+00,-9.355875547285613658e-02
-1.053792976415702520e-01,-8.816144354385215820e+00,-1.002806746918954162e-01
-1.008370779826086583e-01,-8.810672748284124722e+00,-9.880532853362082590e-02
-1.000200777375200578e-01,-8.820302244699364635e+00,-9.381084185719938684e-02
-1.023681534837702078e-01,-8.812236038073663735e+00,-1.005214711564600683e-01
-1.068376403088390492e-01,-8.821296826912250921e+00,-8.828462240968071306e-02
-1.103651596425247183e-01,-8.817897825959111202e+00,-9.357452682743340466e-02
-9.431998295697262280e-02,-8.813626444664706128e+00,-8.786016553994882572e-02
-9.563476648086823018e-02,-8.807391557349630418e+00,-9.723098439139916949e-02
-9.243154217662492844e-02,-8.813837101311735367e+00,-9.645045313514058472e-02
-9.592207206053084134e-02,-8.818999427664799384e+00,-1.017605791173274848e-01
-1.028499785396863736e-01,-8.819123845296950037e+00,-9.769372345960858350e-02
-9.654693132710574777e-02,-8.808747052610744532e+00,-9.936476964781280896e-02
-8.190321280052623165e-02,-8.817474123864036173e+00,-9.257482985289547384e-02
-1.007698854036317287e-01,-8.809939984123628776e+00,-1.003750798762224755e-01
-9.725604412232519147e-02,-8.816934695469527128e+00,-9.846857262298902569e-02
-9.317348056721135030e-02,-8.821809644357623270e+00,-9.891983956594128935e-02
-1.101637189991613724e-01,-8.816387491577669877e+00,-9.837060710962866605e-02
-1.003896421159626434e-01,-8.816381291315739333e+00,-1.014265757129934609e-01
-9.870058630830784441e-02,-8.815353678645337254e+00,-1.007071067835759032e-01
-9.343704903929340999e-02,-8.814483204901902624e+00,-9.174062612055039478e-02
-9.605460328407337822e-02,-8.811499497410679282e+00,-9.322748774014788520e-02
-9.956094933216724785e-02,-8.806806331363013385e+00,-1.001798653128257582e-01
-1.021170778845817417e-01,-8.808878228955613565e+00,-9.558184016477525025e-02
-1.070479676994273849e-01,-8.822427427272215184e+00,-1.054408181409042244e-01
-9.950674301839416980e-02,-8.805902376946290744e+00,-9.150948891917792816e-02
-9.718854641044670506e-02,-8.812612830594799718e+00,-8.891199869809204848e-02
-1.047979225177750606e-01,-8.815518236392257734e+00,-9.979197941794797078e-02
-9.998518797832817162e-02,-8.813362564616369355e+00,-8.967815095539191650e-02
-9.322057236452901963e-02,-8.811914336458105623e+00,-9.533388266906817066e-02
-9.616660618041340813e-02,-8.820570468217797000e+00,-1.069907897330188845e-01
-9.624665231030171686e-02,-8.822742693809942693e+00,-9.896012788701076535e-02
-9.802188541785408771e-02,-8.812939513163769334e+00,-9.212082492479389817e-02
-1.026189821765823296e-01,-8.816767215203830332e+00,-9.532218537158844429e-02
-9.074927874342979262e-02,-8.808788195710954838e+00,-9.985120180990304795e-02
-9.584116821314016266e-02,-8.805727633512484331e+00,-8.858656804009866492e-02
-9.609574926698069564e-02,-8.812417325251926670e+00,-1.025849355956022502e-01
-1.017841643318383865e-01,-8.822162556971516523e+00,-1.006292543778046916e-01
-9.439049894156002762e-02,-8.819949593293761936e+00,-1.026281128516772639e-01
-9.612787066294530003e-02,-8.816494082658513420e+00,-9.441527554055582916e-02
-1.004886823090274106e-01,-8.810854743328214056e+00,-9.548217381785516211e-02
-1.058843271892482701e-01,-8.813109768044705916e+00,-9.691880149616266538e-02
-9.952993580896295212e-02,-8.821319835618913530e+00,-9.436336151041821441e-02
-9.886994896936603106e-02,-8.811962807945374010e+00,-1.021160686613258040e-01
-9.084138300203448146e-02,-8.810728422735115473e+00,-8.632330080760096391e-02
-9.856905435774221402e-02,-8.818303628131516803e+00,-1.016910590708067774e-01
-9.144786095721267605e-02,-8.807389497926045863e+00,-1.019632455035384272e-01
-9.815659575757190725e-02,-8.815252788351136459e+00,-9.625566989589630362e-02
-9.918731914180962950e-02,-8.816418170925354403e+00,-9.809308321607775050e-02
-9.264321986784017360e-02,-8.811245990518610682e+00,-1.042429607073970255e-01
-9.501730268558954140e-02,-8.823537780139456999e+00,-9.973008144205593173e-02
-9.960041717940885941e-02,-8.817500295226576412e+00,-1.040549618734699505e-01
-9.656644333660811819e-02,-8.806412538044886773e+00,-1.042817321206322007e-01
-8.880527696623960465e-02,-8.808200923636560375e+00,-9.848936447566317143e-02
-9.773429838682171078e-02,-8.820430960246756769e+00,-1.007794085561497244e-01
-9.272452414265869303e-02,-8.814935585743878477e+00,-9.043043921653086403e-02
-9.391998708751637948e-02,-8.817583849631063231e+00,-8.898360112236440578e-02
-9.965676580329926870e-02,-8.813792214750071352e+00,-9.417829916482667318e-02
-1.022486073016775632e-01,-8.813313403810454361e+00,-1.045846618177559556e-01
-1.011113180537591555e-01,-8.817723886470080430e+00,-9.303317892792938026e-02
-1.030956497176016978e-01,-8.809442414343459760e+00,-1.003489630645167108e-01
-9.605074987713520251e-02,-8.817760521760952486e+00,-9.509979212908287183e-02
-9.669281833840713547e-02,-8.811876573143342384e+00,-9.764387719513906161e-02
-9.980936970865453284e-02,-8.816514209773702149e+00,-9.960854008118641412e-02
-9.212355746627459707e-02,-8.812234416545944526e+00,-9.892328100737535213e-02
-9.819878421423008930e-02,-8.813780736223991497e+00,-8.743546104797818297e-02
-9.917120726710344780e-02,-8.814400132161084755e+00,-1.011127949782158197e-01
-1.011749497805977532e-01,-8.816359727256092071e+00,-9.907228601305273497e-02
-9.950092728832844735e-02,-8.808280899762189975e+00,-9.106949048261811508e-02
-9.538090749570793392e-02,-8.821506486874600483e+00,-9.981399997143701464e-02
-9.380980077968252562e-02,-8.816940535175815441e+00,-9.686248650504930557e-02
-9.382399108971806179e-02,-8.817207670252582119e+00,-9.207598677326379877e-02
-9.871268597602508854e-02,-8.817443005778237364e+00,-8.803004753886961575e-02
-1.018794743792910129e-01,-8.816210087493812964e+00,-9.597324527614278789e-02
-9.669392917251415365e-02,-8.820064597127116102e+00,-1.007647873336371680e-01
-1.028344701096448738e-01,-8.814056935435729656e+00,-9.955891506779486477e-02
-8.973670789574923756e-02,-8.805667603127229626e+00,-9.444690879029400687e-02
-1.001170166697397668e-01,-8.809508320639537260e+00,-9.994180031353736005e-02
-1.030489401332898985e-01,-8.810004100032658769e+00,-9.772589117385524493e-02
-9.416659806590614579e-02,-8.813913821769304491e+00,-9.709072219569613027e-02
-9.882793067191988912e-02,-8.812465902073602919e+00,-9.157016595852326968e-02
-9.988679243583724332e-02,-8.812902999356165168e+00,-9.095608835815303939e-02
-9.519031864626710526e-02,-8.822109106309660831e+00,-9.467131164173835101e-02
-9.773714712062535337e-02,-8.814965570651958515e+00,-1.067218052959435365e-01
-9.723298972643303062e-02,-8.816401038526022305e+00,-9.198051929882079814e-02
-1.001640188665155612e-01,-8.813429760094614096e+00,-9.717629992870932543e-02
-8.940398482526100421e-02,-8.812586141487086522e+00,-9.739360319562724577e-02
-9.661684796415553889e-02,-8.802896952362534222e+00,-1.014513180970463557e-01
-9.753259869415605021e-02,-8.814073573627073444e+00,-1.013846162403217316e-01
-9.776018071569339551e-02,-8.817311353534275753e+00,-9.883783033046213140e-02
-8.750891014589691486e-02,-8.812742668376987609e+00,-1.030038709595016561e-01
-9.023011509467984692e-02,-8.803186585895572236e+00,-9.388276462506137121e-02
-1.001420870187724327e-01,-8.805229771438234820e+00,-9.312362130877037403e-02
-9.465723592421279586e-02,-8.807702592356775995e+00,-9.640341880744614234e-02
-9.592945560957927276e-02,-8.821317095757006399e+00,-8.870124957432179436e-02
-9.715127047768443158e-02,-8.821446587718847709e+00,-9.840261239675211768e-02
-9.404450225253620232e-02,-8.816996689463248771e+00,-9.948521289292662495e-02
-1.076842051610129580e-01,-8.807397926520536657e+00,-9.665198409543958313e-02
-9.325122639370354849e-02,-8.813455326517575017e+00,-9.764701671888004197e-02
-1.049645220559416586e-01,-8.818938085457908471e+00,-8.803266636656253974e-02
-8.612664564012226243e-02,-8.813044094631059977e+00,-1.004293383921016081e-01
-1.009596930991492336e-01,-8.812456034618271872e+00,-9.893478257096131878e-02
-1.010067442441402036e-01,-8.808129538486948462e+00,-1.046709456980647462e-01
-1.000176783589243196e-01,-8.814889522487685980e+00,-9.220848953929192127e-02
-9.612445385359782990e-02,-8.814020281910647014e+00,-1.023717574055252044e-01
-9.558766066450249954e-02,-8.817283208580274589e+00,-8.605518798878299125e-02
-9.570443768123651496e-02,-8.822685050349013736e+00,-9.133326667589168613e-02
-9.299134396576616557e-02,-8.815891825850940222e+00,-1.092569614305353709e-01
-1.024827401529454507e-01,-8.815478224724815348e+00,-9.162901845233274722e-02
-9.598123528744600952e-02,-8.816453269300597029e+00,-8.897913645004358607e-02
-9.397335648045039569e-02,-8.814895786790664545e+00,-9.216988017816497847e-02
-8.959059228869634128e-02,-8.815050799883065835e+00,-1.008100607673097227e-01
-9.757384449880822375e-02,-8.816099811490028415e+00,-9.374703749048800272e-02
-9.195095420404192366e-02,-8.806296011669171975e+00,-9.759094344811754251e-02
-8.910283681477414175e-02,-8.808244517864654455e+00,-9.527617179977247719e-02
-9.983898200054300287e-02,-8.809724363783512757e+00,-9.920402456625733445e-02
-9.962358549914900052e-02,-8.818745026040788915e+00,-8.971603937625470537e-02
-9.522666085607230102e-02,-8.808326046319232105e+00,-9.217604255189923435e-02
-9.383095206457900406e-02,-8.821889400187540531e+00,-1.040159802524208976e-01
-1.094685797080340028e-01,-8.820149433356480273e+00,-9.933268835218206361e-02
-9.877658553855611645e-02,-8.819902461388837267e+00,-1.003165197167574241e-01
-9.780834791635270586e-02,-8.823015716180716339e+00,-9.773835601921671001e-02
-1.100472444622367652e-01,-8.810932321671822720e+00,-1.008909232940918554e-01
-1.037290648078489363e-01,-8.817061120426233245e+00,-9.976401942281111490e-02
-9.993142635362861625e-02,-8.817226116172461658e+00,-9.547430665174598541e-02
-9.315987840589702584e-02,-8.813809012648759378e+00,-9.609640045058424895e-02
-9.154488111344571966e-02,-8.817116149415719306e+00,-9.257935552791676792e-02
-9.780960950246454788e-02,-8.810638941928978340e+00,-9.858716315372580141e-02
-9.404886394910651204e-02,-8.817881681815510575e+00,-1.038909679579244072e-01
-1.043562559861513361e-01,-8.816200049584983489e+00,-1.011763865952184371e-01
-1.008854883378817319e-01,-8.810780728074696810e+00,-9.542979679557292427e-02
-1.049635725586655355e-01,-8.811484214080788746e+00,-9.141535494950320251e-02
-9.483797840024764392e-02,-8.819859308458655178e+00,-9.514629455636898492e-02
-9.179990860199131741e-02,-8.820091488411293312e+00,-9.960401332036265820e-02
-9.351382575539649022e-02,-8.813148693966944336e+00,-1.068076230157434525e-01
-1.015252340720637081e-01,-8.816220878224731550e+00,-9.491418290539711811e-02
-1.057529699037749044e-01,-8.818577231397396687e+00,-9.417868844706486775e-02
-1.071261390868114838e-01,-8.814497642084450746e+00,-9.984488885691798765e-02
-9.595731076496792633e-02,-8.808908441953292368e+00,-8.892978938162424130e-02
-9.813418534421990136e-02,-8.825321691656117906e+00,-8.805149712421911357e-02
-1.107829904916046160e-01,-8.812865038362314607e+00,-9.508371581781598081e-02
-9.075338197656478145e-02,-8.812039527127268457e+00,-9.977231321879434511e-02
-1.011888579754079143e-01,-8.808708003458876945e+00,-9.606681247498430332e-02
-1.011632788780140735e-01,-8.815362356856402570e+00,-1.005708746244132756e-01
-9.497003309427548556e-02,-8.815392249485327625e+00,-9.818271695546401667e-02
-1.006395704034725724e-01,-8.811263621710653027e+00,-9.283944693703538587e-02
-9.608696414759003435e-02,-8.812049447217882303e+00,-9.597991673478312169e-02
-9.428322343850283060e-02,-8.817571609112405895e+00,-1.007342028828676489e-01
-9.405817047966938405e-02,-8.803899589556847260e+00,-9.942758342210929190e-02
-9.602507945911792353e-02,-8.807515305089573587e+00,-8.617707287604660371e-02
-9.717000953691948273e-02,-8.817043903662955984e+00,-1.007194161866138554e-01
-9.335601328890454076e-02,-8.808180021061055243e+00,-9.400085760277578084e-02
-1.007628037038534735e-01,-8.819743930210345084e+00,-9.506403210097841283e-02
-9.043856580503512044e-02,-8.819214329146676690e+00,-9.236690209256027961e-02
-9.907196401254637907e-02,-8.825465414405611497e+00,-1.044071920935800701e-01
-9.926942884841663539e-02,-8.811926772522227225e+00,-9.849977562167706868e-02
-9.795172097421520063e-02,-8.816041021882854878e+00,-9.345920031211522871e-02
-9.924645440122097095e-02,-8.823962888525167969e+00,-9.144907611641579781e-02
-9.483720443257395716e-02,-8.806126038437463777e+00,-9.753316139872625357e-02
-9.455409234292411202e-02,-8.824925835627791315e+00,-9.001313158330542796e-02
-1.033206799350292887e-01,-8.815430759319482945e+00,-9.526258396269737805e-02
-9.366674276199177251e-02,-8.807501614679891233e+00,-9.963099871987596279e-02
-9.610332471654385589e-02,-8.810321448290480362e+00,-9.426014657432366106e-02
-9.980404538635463674e-02,-8.808225703496054493e+00,-9.415529804553202098e-02
-9.598441382343973760e-02,-8.806414364281796026e+00,-1.093437000933476788e-01
-9.768632407032781795e-02,-8.826421250980343913e+00,-9.705867856677682926e-02
-9.246424076269622871e-02,-8.819721391256390319e+00,-1.025530873269547560e-01
-1.015254271524298063e-01,-8.809442742175232155e+00,-1.017475298310935167e-01
-9.398831185463520088e-02,-8.815176841884175829e+00,-9.670482142714445506e-02
-9.685226036633466651e-02,-8.818089446767251260e+00,-9.940927420575576545e-02
-9.488032862426862279e-02,-8.814407029791398784e+00,-9.339365397378951439e-02
-9.290465355587014529e-02,-8.817465164900820440e+00,-9.438644507814346329e-02
-8.420754134016050774e-02,-8.820609152604507841e+00,-9.505396614101857544e-02
-8.959085540009117943e-02,-8.823188655113170853e+00,-9.129574185282142429e-02
-1.046332774148726330e-01,-8.820816620991649870e+00,-9.614123513591585346e-02
-9.979919710498494356e-02,-8.821770871357371036e+00,-9.803209603931413441e-02
-9.350781736928742705e-02,-8.820681384256447544e+00,-1.021495211898174882e-01
-9.542557078168464879e-02,-8.809510435569444908e+00,-9.902174179887912597e-02
-9.497979062586095478e-02,-8.801253618902810771e+00,-1.080705940847390689e-01
-9.012079170310022258e-02,-8.816270865524352018e+00,-9.483826173780648960e-02
-9.780822671276309666e-02,-8.812557744526868575e+00,-9.966580341481397209e-02
-9.845471435153294038e-02,-8.811370189563858091e+00,-1.008545794921207328e-01
-9.326798324181538591e-02,-8.817761827528535434e+00,-1.018908361537320256e-01
-1.036818865086003849e-01,-8.815935850058398415e+00,-9.860325904886189929e-02
-9.809374188736018352e-02,-8.813781175804056289e+00,-1.047747956338369174e-01
-1.039162525846844404e-01,-8.815848736044200606e+00,-9.769286479464141248e-02
-9.588548134115223998e-02,-8.808827203649309823e+00,-1.006401494177838474e-01
-9.253890129309309820e-02,-8.803394804005488794e+00,-9.577111172827833252e-02
-9.624327504227730978e-02,-8.808945009775095869e+00,-9.657579691630746588e-02
-1.147329111067432322e-01,-8.816342158232982840e+00,-1.040697513346264119e-01
-1.008698158656413379e-01,-8.816832566034010554e+00,-1.002425135529643324e-01
-1.025823350935325257e-01,-8.822052437633621125e+00,-9.806549524492046144e-02
-1.083733536527704683e-01,-8.804988752717433087e+00,-1.009616725338474963e-01
-9.690498659035609585e-02,-8.810302765625769084e+00,-9.881443193180990126e-02
-1.000802590690913485e-01,-8.820062562921549443e+00,-9.013426648396249963e-02
-1.017658801939962110e-01,-8.817093152859305505e+00,-9.481899316871843231e-02
-8.525219144810371186e-02,-8.808911172955141922e+00,-9.980179550451630244e-02
-9.496837911088894246e-02,-8.811151441284804875e+00,-9.625904786977469707e-02
-9.250869892002999695e-02,-8.809474514440884363e+00,-9.956911954408584342e-02
-9.515229987354156815e-02,-8.804429588562197040e+00,-9.537499777318528271e-02
-9.415766816780189730e-02,-8.819834133075499238e+00,-9.373572603418217630e-02
-9.681873963555673313e-02,-8.814368638344026508e+00,-9.632011888900492147e-02
-9.623096972505958135e-02,-8.816274413587800396e+00,-9.177554586437432216e-02
-9.549279831627333071e-02,-8.815149158423258413e+00,-9.264424175303889730e-02
-9.687976132774574201e-02,-8.814375561515404911e+00,-9.556453440841942981e-02
-9.097857970479482359e-02,-8.817669318407443058e+00,-8.719265324642752613e-02
-9.372301023365514627e-02,-8.817923801397361316e+00,-9.756564840750402146e-02
-9.723884955078104797e-02,-8.816601408525501782e+00,-9.988739228357389199e-02
-1.043821896274650107e-01,-8.813728559261337026e+00,-1.016659192259368183e-01
-1.004866748812463934e-01,-8.815887880153752576e+00,-9.936414861470982407e-02
-1.007233694887053332e-01,-8.820634941318449052e+00,-9.817867308847690044e-02
-1.090941908642320407e-01,-8.822853105263634532e+00,-9.783946229820120188e-02
-9.086848299508036575e-02,-8.822637915179962320e+00,-9.950270364076134466e-02
-9.270045670801937976e-02,-8.803913715306666887e+00,-9.623433433423453365e-02
-1.016251298483814153e-01,-8.806068567024979643e+00,-9.395829410172977514e-02
-9.682360308588844333e-02,-8.806767568420715619e+00,-9.196131144176127037e-02
-8.497916473423387795e-02,-8.815106706042971751e+00,-8.655454194094522324e-02
-9.685025819587726736e-02,-8.811797957462138342e+00,-9.905346630726957757e-02
-9.376086797965853259e-02,-8.822607752251503399e+00,-1.037545669714130953e-01
-9.311196659399513520e-02,-8.817681047785631776e+00,-9.801379149771777266e-02
-9.294254959621853218e-02,-8.811954419060089805e+00,-9.610728022022274608e-02
-1.004577406504174042e-01,-8.825860563725964170e+00,-9.908158276919479257e-02
-9.928307136276408318e-02,-8.803851479845624439e+00,-1.049949821154964325e-01
-1.023731962707341570e-01,-8.806112129337206440e+00,-9.759743912234723762e-02
-9.647739157708593027e-02,-8.814570316102495084e+00,-8.485854171654111378e-02
-1.001237184604288899e-01,-8.811029103056258194e+00,-9.869465481831581066e-02
-9.986933837643725831e-02,-8.818409188522020159e+00,-9.291424420613515756e-02
-9.402599435413072637e-02,-8.817770390663723035e+00,-9.130770618428152297e-02
-8.960707192644505603e-02,-8.811753262360516814e+00,-9.180679984919674907e-02
-8.722604867367708681e-02,-8.812748630900877345e+00,-9.509074337598123761e-02
-1.022657803435274293e-01,-8.816727228780941061e+00,-1.038113895617134019e-01
-1.006718049749147775e-01,-8.809518787435560938e+00,-1.004953580760965803e-01
-9.350953385499341519e-02,-8.820159109039970247e+00,-9.942301580604215316e-02
-1.099435013023540714e-01,-8.811142080417694089e+00,-8.558065993712410391e-02
-9.265855739146569570e-02,-8.806208416829356622e+00,-9.941322079504036346e-02
-9.638031615384881623e-02,-8.814366542134205673e+00,-9.590148442819179664e-02
-9.235648479090320662e-02,-8.821962847447069933e+00,-9.245962718500941313e-02
-9.769447688567471644e-02,-8.824823678602013999e+00,-9.736624569228403969e-02
-1.002240386220474705e-01,-8.814033692566660250e+00,-9.792349262378204078e-02
-1.004188857840195431e-01,-8.814902897520468628e+00,-9.276853533575241118e-02
-8.881146413607467205e-02,-8.812257552787277959e+00,-1.071136449592501871e-01
-1.061567786164858002e-01,-8.813714809689667362e+00,-1.016630698497134611e-01
-1.008359826612219151e-01,-8.804100923248814325e+00,-9.761448138339538783e-02
-9.740538458115338694e-02,-8.811360340853797268e+00,-1.002050884038933748e-01
-1.089177160847740189e-01,-8.819029257569615865e+00,-9.317838629693486752e-02
-9.349985182815508111e-02,-8.815094622197747753e+00,-1.005635890700294494e-01
-9.952345977921692177e-02,-8.810600559798141163e+00,-9.519352180285753362e-02
-9.883855124746056264e-02,-8.815916128233171278e+00,-9.549507050218818127e-02
-9.872696425918639496e-02,-8.813550097617099510e+00,-1.025113310273593203e-01
-1.023188147553159288e-01,-8.818350228383550871e+00,-9.404513854188809030e-02
-1.006302394353886243e-01,-8.818608429353131939e+00,-9.793973126198102230e-02
-9.716700912048184535e-02,-8.818216158398335835e+00,-9.772571900375248699e-02
-9.728455345512618258e-02,-8.808690405357918252e+00,-1.087662778482436365e-01
-1.032948765663238011e-01,-8.817465306434137062e+00,-9.755652553677533756e-02
-9.085462859796691881e-02,-8.814340145497322254e+00,-1.054248682050182850e-01
-9.187815124295559133e-02,-8.808856170238893668e+00,-9.507743655515905890e-02
-9.190988922733073219e-02,-8.816155702042500764e+00,-9.031925037255193744e-02
-9.980754414337478231e-02,-8.814210385624813071e+00,-9.005978685845655862e-02
-9.914611166992901015e-02,-8.809573912985278810e+00,-9.412833991365802955e-02
-9.282983221288881870e-02,-8.814383050787760965e+00,-9.065389314538070675e-02
-9.239366315999814061e-02,-8.820157354207294631e+00,-9.497296248717390643e-02
-1.042621668460182865e-01,-8.810664824856658583e+00,-9.633952325331782141e-02
-1.062645074936129086e-01,-8.811657928091012337e+00,-1.061462069723201201e-01
-9.473437071279880439e-02,-8.815752190042072556e+00,-1.010418199833558878e-01
-1.005994666638829055e-01,-8.810065474072413139e+00,-8.655166422671752013e-02
-9.301448086918927272e-02,-8.813870719780853236e+00,-9.564380143274665846e-02
-9.787311642402139744e-02,-8.821887423161310693e+00,-9.070682973845653474e-02
-9.981274002742217266e-02,-8.818894610371314613e+00,-9.392064903576634316e-02
-1.038996436527850620e-01,-8.809041228716639083e+00,-1.023910737103551766e-01
-9.818380387367739437e-02,-8.818787514212601764e+00,-9.507975629064030487e-02
-9.677425516659179938e-02,-8.814762661453963588e+00,-8.929456105705757540e-02
-1.009725630711174466e-01,-8.814569851276804258e+00,-1.007645724762365191e-01
-1.026678588327564201e-01,-8.823794903244431609e+00,-9.573462524466970491e-02
-9.580627788140927414e-02,-8.806029735239270906e+00,-9.831714286662104896e-02
-1.017819587400484171e-01,-8.817485138644382658e+00,-1.010851311073233394e-01
-9.265862156503637537e-02,-8.808427224359197893e+00,-8.564509081096613463e-02
-9.802917648795082817e-02,-8.804957719619160628e+00,-9.563686412799060621e-02
-9.932965747816713264e-02,-8.815165646733870375e+00,-9.618130359787133155e-02
-9.990701980482824540e-02,-8.816523385071931784e+00,-9.372607897101330188e-02
-1.024010667661509749e-01,-8.819344008622589826e+00,-9.760212813836277590e-02
-9.695153815913691575e-02,-8.821456536992634767e+00,-9.053653256916308067e-02
-9.338851537001120751e-02,-8.810726821785394236e+00,-1.085521090188193427e-01
-1.014164412174577284e-01,-8.814345527370216260e+00,-1.039888570832537967e-01
-1.005690885728211525e-01,-8.812906785104889451e+00,-1.016075348116801946e-01
-1.051772885632992482e-01,-8.820685798934956523e+00,-9.590364777598724133e-02
-1.008552330336714709e-01,-8.815335092116221460e+00,-1.080082598149908757e-01
-9.708319289027293741e-02,-8.814514900455344915e+00,-1.010416653755832755e-01
-9.001024441482027849e-02,-8.814242236230890981e+00,-1.057332530324396891e-01
-9.736417855963105938e-02,-8.826708235155670934e+00,-9.491573014665916075e-02
-9.628382119313219634e-02,-8.820288291942432579e+00,-9.994143838188983275e-02
-9.688991300088405090e-02,-8.807269191694862442e+00,-9.812182407560043895e-02
-9.954582031999588410e-02,-8.825746569316244461e+00,-1.064145653396968150e-01
-1.105447447004297562e-01,-8.812100913231311949e+00,-9.589754095474210815e-02
-1.007746176300000490e-01,-8.824073628004580172e+00,-9.095212235621275010e-02
-9.154454687814940483e-02,-8.813807398058054687e+00,-9.647670641984677775e-02
-9.137617123855396040e-02,-8.812251420332186669e+00,-9.015603165483715431e-02
-1.004449257829985176e-01,-8.811796813601517897e+00,-9.329839212666408976e-02
-1.055497493228148703e-01,-8.815998141920729836e+00,-9.058472731537635381e-02
-9.730343577263890487e-02,-8.808309645321903858e+00,-9.708554071674821428e-02
-1.027016177479311565e-01,-8.809374499927413282e+00,-9.939609879854297003e-02
-1.012199183257203455e-01,-8.803145055307947331e+00,-1.007808845572076561e-01
-9.408050591139752172e-02,-8.815611352896631558e+00,-9.172006808129350153e-02
-1.026314688803708769e-01,-8.820031455288196653e+00,-9.502162182158052639e-02
-1.031658141488939612e-01,-8.809799393960487279e+00,-1.095798424155857709e-01
-9.599538478223335058e-02,-8.820289980165556543e+00,-1.004309011071403412e-01
-8.742434274785948478e-02,-8.815227625748356388e+00,-1.036796187805649194e-01
-9.856558050159910933e-02,-8.816840691588174295e+00,-9.668270777749499167e-02
-1.005373274738746020e-01,-8.812888488760084016e+00,-9.761572438957506759e-02
-1.021453324336786678e-01,-8.818524746908215306e+00,-9.059223397935234345e-02
-9.333105007274011822e-02,-8.816049638073124584e+00,-9.866884289530510055e-02
-1.001613532604889029e-01,-8.824735635894180419e+00,-9.354135743717539864e-02
-9.352839429137985161e-02,-8.808433676794571454e+00,-8.996603608007257280e-02
-9.235465987442090241e-02,-8.813658249049183269e+00,-8.824204010613535820e-02
-1.025955997161764471e-01,-8.813027060842863136e+00,-9.750076910201563307e-02
-9.287393291422678387e-02,-8.818864563518921784e+00,-9.301237647633768535e-02
-9.470601595536765061e-02,-8.818165221280453991e+00,-9.612929042278239855e-02
-9.383015628142432618e-02,-8.819736795000205021e+00,-1.030843253092158102e-01
-9.706426666383480284e-02,-8.814820429174137217e+00,-1.055066278790992851e-01
-1.053680879717161095e-01,-8.820951824424899002e+00,-1.016939070161594211e-01
-1.022718443865525961e-01,-8.813703577660596977e+00,-9.433309196709467603e-02
-9.691596806019832366e-02,-8.816405333157565138e+00,-9.889337297046810193e-02
-9.529139231937318322e-02,-8.805410469916646221e+00,-9.105953906522115671e-02
-9.428769780968423997e-02,-8.807510670050985979e+00,-9.561846330221052126e-02
-1.040124738185358999e-01,-8.820120760173466579e+00,-9.803068786001306600e-02
-1.027662274327359460e-01,-8.814362931323659112e+00,-9.683989586602498312e-02
-1.010454349784923461e-01,-8.825883537555872849e+00,-9.213148735650018850e-02
-9.927862488886984860e-02,-8.816965574679157314e+00,-9.751893171237084601e-02
-1.013241499421316805e-01,-8.814489719050564887e+00,-9.784852745749046676e-02
-9.784915706848681949e-02,-8.819672898749150391e+00,-1.037828972873566236e-01
-1.003247949887464407e-01,-8.815193890497937446e+00,-9.823216849190667677e-02
-8.639342021886044221e-02,-8.820062296705527771e+00,-1.021122993150467145e-01
-9.074639170438676683e-02,-8.811900937855911664e+00,-9.422868221295943592e-02
-9.891711245606010783e-02,-8.812591295816107007e+00,-9.323122123993271559e-02
-8.784171033556020802e-02,-8.820248877357260042e+00,-8.818475566428929380e-02
-8.695661035851032228e-02,-8.812576480365402531e+00,-1.080975877541027058e-01
-9.849609374293188946e-02,-8.813112920940723072e+00,-9.076293544578903361e-02
-9.630912668512696395e-02,-8.813866738488734143e+00,-1.003101810489843704e-01
-9.838905965718576507e-02,-8.813067842688509401e+00,-9.716513317955619011e-02
-1.029195595813470199e-01,-8.817250951833452532e+00,-1.001035873406740107e-01
-9.751402427433730757e-02,-8.816875305453281797e+00,-1.044384583350742302e-01
-9.860524943471488113e-02,-8.813513822603061598e+00,-1.022914175397177383e-01
-9.615002149764970141e-02,-8.815056491154827256e+00,-8.069459242803003751e-02
-9.505125207475462190e-02,-8.817117626582618328e+00,-9.832118966934826065e-02
-9.459491812491785390e-02,-8.812555876485525630e+00,-9.249596220972282345e-02
-9.262214133602152122e-02,-8.819384460373488110e+00,-9.652895062356203759e-02
-1.047569498218731410e-01,-8.810494867842894706e+00,-9.815465710889192952e-02
-9.354995107197464077e-02,-8.805282354721018834e+00,-9.990988739885484082e-02
-9.988860531977898638e-02,-8.814559269534067099e+00,-9.861331809115495006e-02
-9.136584546130416262e-02,-8.814886890413182741e+00,-9.341323778093507668e-02
-9.830266896299577617e-02,-8.814841902193322198e+00,-9.951735333783127968e-02
-9.306545302796731534e-02,-8.814754545947952380e+00,-1.049959002419595944e-01
-1.009291465001688065e-01,-8.806600166253012674e+00,-9.572398141561130891e-02
-9.824246319223156609e-02,-8.803722577052067066e+00,-9.793728902392458135e-02
-9.512606154553988891e-02,-8.818506290421280980e+00,-1.023940377247580386e-01
-9.659363009435376068e-02,-8.810426956363125228e+00,-9.430222050361729280e-02
-9.807457560512407302e-02,-8.814201138967135307e+00,-1.084928316152045658e-01
-1.017627026576382321e-01,-8.821889994846303651e+00,-9.022109282068152547e-02
-9.157427020666672468e-02,-8.812061131431363492e+00,-9.691617858248523232e-02
-1.026484713769589413e-01,-8.808694070171451784e+00,-8.966697615552086942e-02
-1.021555782320627409e-01,-8.815658026322799046e+00,-9.365865879461010568e-02
-9.591886298160780255e-02,-8.820400870723670295e+00,-1.024126164482789675e-01
-9.586373920555964212e-02,-8.815223962728230944e+00,-9.263357936209407062e-02
-9.238544502429535399e-02,-8.824772312186679457e+00,-9.276439981996391360e-02
-9.474475408300653267e-02,-8.815509785286870681e+00,-9.321064387077848679e-02
-9.822728777795469712e-02,-8.819154838151641584e+00,-9.494336613702139549e-02
-9.661008118223408936e-02,-8.818532505374905739e+00,-9.569621939452975512e-02
-9.440277141185653142e-02,-8.803075527484519824e+00,-9.619344138986041237e-02
-9.669794202988359066e-02,-8.806147842703511586e+00,-9.875433080740890490e-02
-9.180610675247259655e-02,-8.821307134849549314e+00,-9.303493985604366356e-02
-8.855865318975032763e-02,-8.818623410184533995e+00,-9.664112387466124166e-02
-9.407792659473901420e-02,-8.824819989280564769e+00,-9.859592733978812806e-02
-9.858059356644123528e-02,-8.809762352907025473e+00,-1.017320464637095218e-01
-1.012492160081044229e-01,-8.818098339291054799e+00,-9.973292034994601929e-02
-9.905831305984531820e-02,-8.810469259594393421e+00,-9.294722759963161551e-02
-9.792727404375953237e-02,-8.816470080100518913e+00,-8.828041706972766800e-02
-9.541055366831451001e-02,-8.820043786296176691e+00,-9.880757677628508595e-02
-9.299876836305487338e-02,-8.814980795169152117e+00,-1.040700437468193296e-01
-8.862383250007289937e-02,-8.818368503282412618e+00,-9.777827925930264452e-02
-9.786547422778343885e-02,-8.811662051250072736e+00,-1.033420919916930858e-01
-9.813902619445004361e-02,-8.810609431674917502e+00,-9.942023081778184057e-02
-9.403363583276150295e-02,-8.815564720978008140e+00,-9.493564631609249793e-02
-1.037679351911257181e-01,-8.816133109070438678e+00,-9.213814019120861176e-02
-9.575836182487722226e-02,-8.810761832875741106e+00,-8.446147880231255622e-02
-1.043244427016331022e-01,-8.816743788166437668e+00,-1.045994404845907721e-01
-9.103100688634803428e-02,-8.812402731633483199e+00,-9.822338328337729130e-02
-1.058567264933727020e-01,-8.812547542889495489e+00,-9.046573817423159136e-02
-8.864676623695848245e-02,-8.818689950262598387e+00,-1.033871454218235064e-01
-9.515153752290485267e-02,-8.816578565414271651e+00,-8.462482806656405898e-02
-9.913472191165879910e-02,-8.812008246517891052e+00,-9.010630145682491099e-02
-1.028583037087122121e-01,-8.823376386040116870e+00,-9.180188098352387582e-02
-9.148500074889716338e-02,-8.816002445323988468e+00,-9.192426135022732647e-02
-9.836404661884816381e-02,-8.812612024464122840e+00,-9.827185654601486298e-02
-1.005379446726252513e-01,-8.820989257072858081e+00,-8.894948586382894762e-02
-9.915559329463898008e-02,-8.814737210821705915e+00,-9.469968129528680278e-02
-9.557920339296746559e-02,-8.818184664231823788e+00,-1.007491057220566838e-01
-9.575257266269471268e-02,-8.803968853138968598e+00,-1.034681621425563858e-01
-1.061925184854378840e-01,-8.820188753793608782e+00,-9.876330742181139988e-02
-9.745785058309927584e-02,-8.816097884014766350e+00,-9.787830775383407622e-02
-9.683526417402846254e-02,-8.813632885159014663e+00,-9.619120142340627233e-02
-1.065785344449590721e-01,-8.822141708464339871e+00,-9.795697480481031783e-02
-1.011793375344676726e-01,-8.823179790928291411e+00,-9.810536012866140354e-02
-1.032450895666423563e-01,-8.818775218364145019e+00,-1.007384053914907873e-01
-9.538390130251350740e-02,-8.813041695062871383e+00,-9.153865692975035606e-02
-9.088345054896919406e-02,-8.814322239116698654e+00,-1.016513856355881484e-01
-9.827605858289259477e-02,-8.818942116039631074e+00,-1.013613025915830607e-01
-1.054445235035462169e-01,-8.803339363006493556e+00,-9.892681165408452604e-02
-9.443081315974272139e-02,-8.815013419062523781e+00,-8.593764999564662554e-02
-1.019258457942848750e-01,-8.826242209007789441e+00,-1.010838658396137207e-01
-1.006233344957221248e-01,-8.814052954877352519e+00,-1.005345229419153802e-01
-9.867125840845346330e-02,-8.809035867480446313e+00,-1.048550953782912964e-01
-9.403711887217591769e-02,-8.806876074078378025e+00,-1.024808386006502980e-01
-1.029050676154001642e-01,-8.814932525921733486e+00,-9.970207721205794071e-02
-9.656584666048903531e-02,-8.811000931091204080e+00,-8.921189109850080623e-02
-9.699915398543754175e-02,-8.817443504431366819e+00,-9.435952435186681364e-02
-1.050483591974883113e-01,-8.821115273297071013e+00,-9.756956515827619469e-02
-1.023345046129099378e-01,-8.810974319316285275e+00,-9.746346810027052554e-02
-9.384315730445824677e-02,-8.811692087448083299e+00,-9.774380419147742083e-02
-9.850564182228704890e-02,-8.823271896737178821e+00,-9.956066510179364948e-02
-9.268571651959341129e-02,-8.819948683191663363e+00,-9.331201395126359488e-02
-9.265975695837655457e-02,-8.817122921235613475e+00,-9.612587248852602628e-02
-1.007151731774688780e-01,-8.819841381582785189e+00,-9.562261953905031031e-02
-9.545976211535686651e-02,-8.813608783621194931e+00,-1.011867790572502507e-01
-1.010550806892986514e-01,-8.812284370079463969e+00,-1.009194796255686866e-01
-9.481461040479685631e-02,-8.815561380350542819e+00,-9.504705364164796333e-02
-9.667352942277426808e-02,-8.813011512913618617e+00,-9.671300682833722240e-02
-1.026958890563196697e-01,-8.815458302923937950e+00,-1.049578340880567145e-01
-1.064702654185915864e-01,-8.819008346701098233e+00,-9.146374678957032434e-02
-9.884860450864078885e-02,-8.811705647343636372e+00,-9.826997853018772100e-02
-1.033180900055733070e-01,-8.831517171617875306e+00,-8.196076379836836345e-02
-9.709432258301892160e-02,-8.814164603831477152e+00,-9.808839846846893751e-02
-9.994246743421955625e-02,-8.810411078780157723e+00,-9.459991577687695830e-02
-9.311105785408363422e-02,-8.812518717501989229e+00,-9.218397776992201531e-02
-1.076441018208752348e-01,-8.820780712528778267e+00,-9.838041221910949485e-02
-9.971618781586334690e-02,-8.810403052012112823e+00,-9.241663020102780512e-02
-9.695622363566677726e-02,-8.814099829471725656e+00,-9.890980944625030191e-02
-8.550108641513536056e-02,-8.811480066514326026e+00,-9.949260298695497551e-02
-9.973050846112291312e-02,-8.817659832659128227e+00,-1.060662778453588945e-01
-1.097441922079359783e-01,-8.814626276651457815e+00,-9.549022126587561332e-02
-9.742019750630943886e-02,-8.816255744982647968e+00,-1.000152015942108313e-01
-9.626287151546521204e-02,-8.815443739188747685e+00,-1.050577278917121105e-01
-9.996609237804485182e-02,-8.818966410231798392e+00,-1.066666311031160136e-01
-9.769093563472019959e-02,-8.806675689766288784e+00,-1.007986014311214318e-01
-9.810850819234474829e-02,-8.808730400822236462e+00,-9.393094150291692035e-02
-9.705269294442084305e-02,-8.813566901360029959e+00,-9.551959595941593439e-02
-9.954490387357685377e-02,-8.821898696918587746e+00,-1.041094367302573265e-01
-9.734051038903156206e-02,-8.813498137088679130e+00,-9.660736252819400460e-02
-9.720493991070532080e-02,-8.809360991810011754e+00,-1.041103525110163713e-01
-9.371389366793024533e-02,-8.821919446182308278e+00,-9.740205742391462584e-02
-9.668595562785788078e-02,-8.823480337555176689e+00,-1.078865751071692303e-01
-9.907607294738259018e-02,-8.807717556676415427e+00,-9.144257701876062905e-02
-9.632590631860010744e-02,-8.813549996995316604e+00,-1.027018238805834371e-01
-9.663165630217522561e-02,-8.817290509874322169e+00,-1.050064718556414367e-01
-8.838788404892800044e-02,-8.824577642553840917e+00,-9.835510625159331333e-02
-1.011311044151394362e-01,-8.816781365042022145e+00,-9.508388503426658256e-02
-8.837775301618634727e-02,-8.814529977075718392e+00,-1.037284937826263576e-01
-8.636565028484402551e-02,-8.810417140521666468e+00,-1.027441988564323644e-01
-9.867590367525128081e-02,-8.814319932156777782e+00,-9.757508886229206146e-02
-1.038167615126116411e-01,-8.809944106880816861e+00,-9.243190446811297423e-02
-9.339200826650630172e-02,-8.816952522134878123e+00,-9.164699417717467322e-02
-9.260099977116080516e-02,-8.815404179963788778e+00,-9.897449946025850542e-02
-8.884700687437777078e-02,-8.812087359144374688e+00,-9.427499415161416652e-02
-8.936214787872860665e-02,-8.812881024361880478e+00,-9.620238394063899967e-02
-9.600364357930434023e-02,-8.811053129608630741e+00,-9.909737969771975630e-02
-9.697096727923548709e-02,-8.815145890293997866e+00,-1.040922066619137804e-01
-9.328112049086161039e-02,-8.814496257140296720e+00,-9.455230922120273773e-02
-9.343664435121655509e-02,-8.809801810326758797e+00,-9.327054024700924539e-02
-1.006363574434928215e-01,-8.811353766664945297e+00,-9.042885123736381370e-02
-9.680345591989245047e-02,-8.818654384407393465e+00,-9.276642904976661885e-02
-9.471430010124731735e-02,-8.815054263605405893e+00,-1.023484333786428835e-01
-9.708754578945123781e-02,-8.815734712591643429e+00,-8.726948095065416300e-02
-1.039007404410631497e-01,-8.819990087779085997e+00,-9.041273130454097195e-02
-9.179291348483578639e-02,-8.812271990554783940e+00,-1.044251545871819065e-01
-9.642671290112576898e-02,-8.821658662740793133e+00,-9.265237396520907553e-02
-9.822922065737592356e-02,-8.814468928019691063e+00,-9.362720714664800326e-02
-9.247888225618916547e-02,-8.811976233259404268e+00,-9.120281236328245389e-02
-9.178182817700110407e-02,-8.822463764125144436e+00,-9.642273968933195993e-02
-9.643780036176230475e-02,-8.808391208582690979e+00,-9.757316665244382403e-02
-9.558312354299478009e-02,-8.806223058594737196e+00,-9.598066251867373722e-02
-9.634010353472355348e-02,-8.805772487178622043e+00,-1.025937949623672851e-01
-1.000247983031542637e-01,-8.809113325143471229e+00,-9.063666109890031186e-02
-9.539618169619196175e-02,-8.817609858405937473e+00,-9.754504824115647899e-02
-9.222705737119551994e-02,-8.818755489856380692e+00,-1.003094545158141476e-01
-1.027423394650199551e-01,-8.807145489983872366e+00,-1.013653845108877377e-01
-9.566161096035064038e-02,-8.823679128653532544e+00,-9.888082368928799437e-02
-8.804734516941545297e-02,-8.817004192709180899e+00,-9.804773677863166947e-02
-1.018645991552820929e-01,-8.815292355541606284e+00,-9.988162816009142631e-02
-1.003575967088630172e-01,-8.816549293247947006e+00,-9.693589016065751185e-02
-1.032513685048630919e-01,-8.823165554065058203e+00,-1.080135609700372534e-01
-1.065172320094048275e-01,-8.812854745793048394e+00,-9.908577918725583467e-02
-9.313694819952784976e-02,-8.808845341116676053e+00,-9.705160092202910760e-02
-9.303905142674101514e-02,-8.822083573272777812e+00,-9.155499824800672481e-02
-9.205591216368594343e-02,-8.815053137087581092e+00,-9.583546977258254607e-02
-1.008693293350253067e-01,-8.823434581336490723e+00,-9.232813504714450226e-02
-9.473723598669282764e-02,-8.805507775318469399e+00,-8.814416246435952118e-02
-9.668528722522748420e-02,-8.812279452309400796e+00,-8.998153667398975375e-02
-9.427813046513359996e-02,-8.815486190212032724e+00,-1.002145469004454004e-01
-9.818724891992332282e-02,-8.806462157905944110e+00,-1.057073973449982468e-01
-9.423384060580271282e-02,-8.814767185620283385e+00,-9.319864399720745318e-02
-9.263073273308017330e-02,-8.815214194048957452e+00,-9.778833584577774352e-02
-9.671484927496637463e-02,-8.814379811839646806e+00,-9.582159538493255357e-02
-9.528241317225386031e-02,-8.815636235006778065e+00,-9.083484164914633341e-02
-9.850219682189041703e-02,-8.811709880811806173e+00,-9.542671706676086885e-02
-9.729645935008124358e-02,-8.814812996698099923e+00,-9.565695683668686000e-02
-1.013147840340218458e-01,-8.809708510198634102e+00,-9.092853501819815609e-02
-1.011593568081593369e-01,-8.819462650098955692e+00,-1.073601100594698265e-01
-1.002697923655191253e-01,-8.811782697753637095e+00,-9.425401503695168826e-02
-9.161067858082500015e-02,-8.809297448608635506e+00,-9.253730256842317148e-02
-1.028575452680067781e-01,-8.814616877298902864e+00,-1.045270403828093136e-01
-8.472720765434663126e-02,-8.816992373397335214e+00,-1.016190021265049315e-01
-9.974014167802786046e-02,-8.814510815891519968e+00,-1.029728882225831171e-01
-9.856198078778047322e-02,-8.820304968635051424e+00,-9.791971959541558024e-02
-9.821519167482806179e-02,-8.809660305548602466e+00,-9.509752003288710065e-02
-9.500502333646562714e-02,-8.820091620982326575e+00,-9.065163628229123971e-02
-9.692514782240625737e-02,-8.822023033618448196e+00,-1.077459400547009089e-01
-1.010061072450313124e-01,-8.822190570323980907e+00,-9.203493534859451264e-02
-1.011941943477104588e-01,-8.808018539091602150e+00,-9.589548310384977958e-02
-1.053106760487824700e-01,-8.808874648355649484e+00,-9.878573507707444357e-02
-9.608656556805496296e-02,-8.814648647931480951e+00,-1.044757043829156462e-01
-1.054224773334630633e-01,-8.811750749258930426e+00,-9.544015420419021956e-02
-9.470711400760283005e-02,-8.809556088759213921e+00,-9.806498883344921813e-02
-1.022826275846064198e-01,-8.810819975695727280e+00,-9.765733620417685334e-02
-8.866976766127329657e-02,-8.815876536084246595e+00,-9.807902208361246599e-02
-1.013244064680421386e-01,-8.814416353351164801e+00,-9.864041085833191724e-02
-9.337264218252118442e-02,-8.821717476327748386e+00,-9.717288528330957076e-02
-9.666525881050562485e-02,-8.807272334928946123e+00,-1.005499607747312452e-01
-9.633125342356606280e-02,-8.813528112912754509e+00,-9.413594673931313661e-02
-9.352055161805157557e-02,-8.804722694453465337e+00,-9.747010695215066467e-02
-1.002626187568125132e-01,-8.817121629178283015e+00,-9.787556921858085734e-02
-9.449259342369500936e-02,-8.810945352746999859e+00,-1.030779999320900614e-01
-1.040095801731689834e-01,-8.817692860140697420e+00,-9.410494038980669884e-02
-9.975358281919620429e-02,-8.819105039116262645e+00,-9.328390827333819801e-02
-9.508195417763135038e-02,-8.812451737791775486e+00,-9.032150971951381779e-02
-1.045988732980906305e-01,-8.817012035170218809e+00,-8.958470703965917825e-02
-9.352644824822693714e-02,-8.809455746104760010e+00,-9.924619021613152736e-02
-9.368393475594234687e-02,-8.813988375321811120e+00,-1.089946356726629872e-01
-9.825705098049483666e-02,-8.812665979179334030e+00,-1.002258923491185644e-01
-9.722583109448808270e-02,-8.821702597811215796e+00,-1.011232110972997700e-01
-9.540028898552027625e-02,-8.811158555911847046e+00,-8.989787270443837242e-02
-9.867518705146963165e-02,-8.816258795681811478e+00,-9.363479291874532429e-02
-9.213170501099157694e-02,-8.822450082139127403e+00,-1.041760012349784575e-01
-1.086096138829266977e-01,-8.811981147053389307e+00,-9.118219084915490935e-02
-8.852159500004988524e-02,-8.810466505598309794e+00,-9.424237645837783839e-02
-9.937226698473163033e-02,-8.820100486864252076e+00,-9.446720461476737496e-02
-9.995335894921529574e-02,-8.813014079318312710e+00,-1.046142106656428039e-01
-9.786776127076349252e-02,-8.818213228902859413e+00,-9.751076416489358467e-02
-8.496666495686208687e-02,-8.812570941969203986e+00,-9.136345497177512931e-02
-9.856555654290732882e-02,-8.815190859079404362e+00,-9.487244444017581269e-02
-9.915986548753637220e-02,-8.801498900822661398e+00,-9.039124186360056323e-02
-8.491186838560765837e-02,-8.818980835917340499e+00,-9.421378945450173403e-02
-9.318991094576364875e-02,-8.809062713915221110e+00,-9.109734357240235891e-02
-9.657778936878168297e-02,-8.809696545030028858e+00,-9.657370485932197102e-02
-9.154984197365860499e-02,-8.812952510527960470e+00,-1.005163109555385487e-01
-9.332389474692315279e-02,-8.810315841442198703e+00,-9.598227475763429495e-02
-9.473408229842614214e-02,-8.812908287617494452e+00,-1.063287728386799469e-01
-1.133979242713354096e-01,-8.818169061524024244e+00,-9.707279399143235732e-02
-9.850113004945065809e-02,-8.810961891928064560e+00,-9.852682352912459085e-02
-1.028936166217214176e-01,-8.823500039962684838e+00,-1.049688452367494446e-01
-9.596746790693752582e-02,-8.813485467762628645e+00,-9.496077576559906752e-02
-9.698967171017691680e-02,-8.817153103407386894e+00,-9.866820807332636611e-02
-1.015587701458022379e-01,-8.822875394818611383e+00,-9.413930622392788217e-02
-9.174597250337013232e-02,-8.823029115814261303e+00,-9.176847184433419014e-02
-9.725986721876302143e-02,-8.826941138691164923e+00,-9.477817314329352316e-02
-9.534559522174033963e-02,-8.822337156370661404e+00,-1.044213891367782587e-01
-1.000495179242956445e-01,-8.810622371363457717e+00,-8.934821306507496896e-02
-8.619166602560840440e-02,-8.810796311818926085e+00,-8.923118008990188477e-02
-9.681556975299340784e-02,-8.812703505839033724e+00,-1.004921569737746018e-01
-9.871643136652710759e-02,-8.818805182213333538e+00,-9.729800986893762105e-02
-9.782810534635258404e-02,-8.811684513514665085e+00,-9.825102932263668487e-02
-9.878071793281760493e-02,-8.816613973970589768e+00,-1.018365686912772183e-01
-9.786589440803189488e-02,-8.814671759342866508e+00,-9.065401926384535070e-02
-9.379622842116216996e-02,-8.816294462458289516e+00,-1.015314780943173401e-01
-9.941805525572083857e-02,-8.817861126880002232e+00,-9.236939074970007546e-02
-9.997865620171961232e-02,-8.816337328878175228e+00,-1.035327793912457633e-01
-9.530906557867140083e-02,-8.806466694727809852e+00,-9.284647511858304392e-02
-9.455227989601242000e-02,-8.813181016709766169e+00,-9.238060687487613387e-02
-1.018224130433855595e-01,-8.819598891370935334e+00,-1.026735085723030350e-01
-9.370420161809760173e-02,-8.819817080704382306e+00,-1.005016522872362456e-01
-8.882589050999395441e-02,-8.814142308891920408e+00,-9.001998841347171043e-02
-9.272470739879912216e-02,-8.813553549514740126e+00,-9.267600767573351550e-02
-1.006711219009057690e-01,-8.816291217083142229e+00,-9.533733489688203666e-02
-1.034552867466638632e-01,-8.799068277086702139e+00,-9.226909258150325921e-02
-1.099182001958611266e-01,-8.812400664871674394e+00,-1.023219988125811802e-01
-9.952970715231043708e-02,-8.828060333503351842e+00,-9.381590368892769871e-02
-1.047461154417398260e-01,-8.816275200333251405e+00,-9.333441978992759736e-02
-9.662601144212840110e-02,-8.815170251500729748e+00,-9.161815243842419410e-02
-1.005319567869784048e-01,-8.814914373505649436e+00,-9.271348617610924991e-02
-9.998053749993157657e-02,-8.806540558270500085e+00,-9.770265321575694051e-02
-1.004510163275788848e-01,-8.810609528617980857e+00,-9.639776677093182811e-02
-9.649744378456669158e-02,-8.817229513456137369e+00,-8.633122879352032875e-02
-9.769917749669940199e-02,-8.813465224210521143e+00,-1.053255476413737235e-01
-1.070671598491337306e-01,-8.824599818873467783e+00,-9.374484950450656662e-02
-9.372562365661807338e-02,-8.816948229710298790e+00,-1.033073958166706441e-01
-8.700540480203805549e-02,-8.813499398312787392e+00,-9.783886477426591288e-02
-1.043131006398332616e-01,-8.816609899348614832e+00,-9.720174155554939244e-02
-1.051779812361809258e-01,-8.815142086057985438e+00,-9.706540682486407279e-02
-9.261360656712219752e-02,-8.816200142884460078e+00,-1.039035693434460922e-01
-9.740916566984823832e-02,-8.813676013939197418e+00,-1.012156350477973615e-01
-9.366911498705400574e-02,-8.818282184078846342e+00,-9.493018177809875446e-02
-1.029382503296576434e-01,-8.809423897636294853e+00,-9.320244969610352870e-02
-9.557572549777165749e-02,-8.813493718398840215e+00,-1.014706881847639020e-01
-9.905412185006201575e-02,-8.811125002143279872e+00,-1.083999811730508300e-01
-9.924287933590424104e-02,-8.824902578192631353e+00,-9.764774777177798182e-02
-9.825802287518690947e-02,-8.820442284975033687e+00,-8.693222145346027330e-02
-1.024380526418636056e-01,-8.820886700915590239e+00,-9.857752607253315869e-02
-1.025557376440976026e-01,-8.812758771443258254e+00,-9.476456331440233360e-02
-9.451218070780191549e-02,-8.814503009738253070e+00,-9.657717997392951947e-02
-1.061754499981856781e-01,-8.811035179743203827e+00,-9.739227394859373277e-02
-1.023455334592734411e-01,-8.810054180449041539e+00,-9.719810856692868983e-02
-1.004376280702805324e-01,-8.811547925725797370e+00,-9.733767478183635857e-02
-9.863990131847602538e-02,-8.813946293417028954e+00,-9.568762087396276428e-02
-9.759128783921951211e-02,-8.809249898114764221e+00,-1.001797148150199712e-01
-9.248771000409239385e-02,-8.814005818108141099e+00,-9.873454520252940292e-02
-1.058276776884889137e-01,-8.809078128754313397e+00,-1.097732511331124816e-01
-9.964296804399441765e-02,-8.808340169679715004e+00,-9.925159896818658289e-02
-9.235928871989768085e-02,-8.820996462114372605e+00,-9.450527493239663235e-02
-9.781928803107040049e-02,-8.815400026674550915e+00,-9.953069662739977286e-02
-9.282577111763437583e-02,-8.817043748208854836e+00,-9.710412096744006072e-02
-1.023284885254717724e-01,-8.822768766472259827e+00,-9.205246818919501917e-02
-9.750028004632761702e-02,-8.810977322052982785e+00,-9.982233087121800130e-02
-9.596653378128129630e-02,-8.812358498975124022e+00,-9.512195978946103025e-02
-9.815841940414272992e-02,-8.815054805499647372e+00,-1.062036643915301726e-01
-8.840354775945620525e-02,-8.812454872996017485e+00,-9.828223307732751601e-02
-1.057576931267345116e-01,-8.820073285143351427e+00,-9.437755668719034763e-02
-9.318841860028748147e-02,-8.818249160238172735e+00,-1.037023696263298100e-01
-9.000562172420861762e-02,-8.815726056776547637e+00,-8.817383814882404081e-02
-8.894552495157474759e-02,-8.815772325365951900e+00,-8.800592972970110173e-02
-9.598038755376404885e-02,-8.805773450742291786e+00,-9.808854709624571788e-02
-1.014729265098567451e-01,-8.824592484353216193e+00,-9.635444327332735870e-02
-9.441864857759957319e-02,-8.814572721618830542e+00,-1.026368047480716861e-01
-9.952468837039085692e-02,-8.817146732437933565e+00,-1.011497305805333369e-01
-9.226844612863822903e-02,-8.810348329553770341e+00,-1.029159914712190482e-01
-9.941063718519392578e-02,-8.824381491689125667e+00,-1.002591588813355472e-01
-9.777302682922081600e-02,-8.819942965377864041e+00,-9.422400818070567063e-02
-9.751460600162091541e-02,-8.817940405782586311e+00,-9.906827303469445400e-02
-1.009616202271857166e-01,-8.815446771419058081e+00,-1.013016028689950332e-01
-9.299496886231881088e-02,-8.806175418767097085e+00,-1.006836482550258621e-01
-9.490203963267997145e-02,-8.811622602290565709e+00,-1.062551249464916275e-01
-8.821517562894094777e-02,-8.814580141122018375e+00,-1.043590363933799697e-01
-1.041820132728079745e-01,-8.821131298295100009e+00,-9.969399279168449091e-02
-1.081815461173305931e-01,-8.811320129638772869e+00,-9.939590804248688016e-02
-9.487384073064700218e-02,-8.809315817890452038e+00,-1.021986491591184570e-01
-9.421559583808361560e-02,-8.812863906332811581e+00,-1.029555166940637062e-01
-9.476229057310125992e-02,-8.808095051729951663e+00,-9.889915220286625563e-02
-1.005844699134205711e-01,-8.808078583432436659e+00,-9.718701255179486298e-02
-8.556768158887793907e-02,-8.815837641284542059e+00,-9.367761318766830436e-02
-9.800528470971107964e-02,-8.817879761229086455e+00,-8.925316316021129903e-02
-9.044006040035490468e-02,-8.822671224623915620e+00,-9.661501968459765277e-02
-9.348496407582260193e-02,-8.811392999579551244e+00,-9.816298115424242077e-02
-9.256805029384580774e-02,-8.812351965368883100e+00,-9.255865659506665177e-02
-8.896168816531296875e-02,-8.814664242925426052e+00,-1.053222254615489434e-01
-9.637390282319609203e-02,-8.810822168987909819e+00,-9.980466897321781106e-02
-9.129200222346166294e-02,-8.807634237873344318e+00,-9.376493036492865307e-02
-9.926218624185706441e-02,-8.815349266693397468e+00,-9.937416676293409079e-02
-9.333566802404136276e-02,-8.816508030545481489e+00,-1.010619299800895043e-01
-9.948265984797527439e-02,-8.817399575360216346e+00,-1.019467027033340439e-01
-1.009144698202081719e-01,-8.814260541194803622e+00,-9.070162453309818518e-02
-1.010790399455615551e-01,-8.810968365322887408e+00,-9.547181617518486763e-02
-9.490447684143785145e-02,-8.814684085354873133e+00,-9.829289484690219292e-02
-9.469151266155223512e-02,-8.818001052847884935e+00,-1.046633897813187830e-01
-9.842387503163051166e-02,-8.813466537313615845e+00,-9.821767020364272072e-02
-9.210527782846461564e-02,-8.812819181771663679e+00,-9.640610102710607532e-02
-9.749825509583660843e-02,-8.827187588113165617e+00,-9.315224514324214888e-02
-9.938700364755517769e-02,-8.804983990762128343e+00,-9.988457453239352191e-02
-1.023394160498893868e-01,-8.820453921067347380e+00,-1.034594005901114111e-01
-9.906644949285528523e-02,-8.810979414405080590e+00,-8.821005235438421355e-02
-9.802034759390886032e-02,-8.816778769247411773e+00,-1.028928375372676896e-01
-1.008309065799442988e-01,-8.816127885936456465e+00,-9.254617859794718460e-02
-1.051362737269052744e-01,-8.809285853817499401e+00,-8.473051812928138193e-02
-9.082607696122760310e-02,-8.818037315040431423e+00,-9.391949259400839134e-02
-9.736305263281666567e-02,-8.818281198549028588e+00,-9.442510608020356078e-02
-9.779805421306651814e-02,-8.809802564459182861e+00,-9.669664432170899104e-02
-1.049538391909549534e-01,-8.811660983615691833e+00,-9.656975413439490563e-02
-9.732678451440802958e-02,-8.813022673191664325e+00,-1.019722453267224022e-01
-9.167116105787384561e-02,-8.808272378209629494e+00,-9.727667937497203043e-02
-1.015130847620400734e-01,-8.809882568995579533e+00,-9.401998825024231177e-02
-9.432310030189849925e-02,-8.822003256285693595e+00,-1.024507992884388513e-01
-9.809206438524856186e-02,-8.818149631403279898e+00,-9.246888427768462648e-02
-9.586787302236580988e-02,-8.810121682603785587e+00,-1.015106343035663411e-01
-1.017434536465899597e-01,-8.816004092370599565e+00,-1.017367953050773016e-01
-9.295389154304810331e-02,-8.810772309068404695e+00,-1.044688015537947323e-01
-9.192375215119637233e-02,-8.814272880012065770e+00,-1.046349730534628097e-01
-9.690566851655270375e-02,-8.821933000012325721e+00,-9.267469688537648131e-02
-1.007733727765587062e-01,-8.815023802634197381e+00,-9.501950788262869541e-02
-9.631792268804509338e-02,-8.819398837743177566e+00,-9.811894744538869617e-02
-9.549089359284558542e-02,-8.813330324635007429e+00,-9.367021283175132329e-02
-9.927357388042101771e-02,-8.823218561440054231e+00,-9.735363220409579132e-02
-8.874069494757365339e-02,-8.811809607046916071e+00,-9.345434993906805154e-02
-9.986317610946657264e-02,-8.815854527619032766e+00,-9.546221468585669445e-02
-9.077419350845719603e-02,-8.820093719174739277e+00,-9.988113215883979989e-02
-8.990808784275632071e-02,-8.817101624360693890e+00,-9.075545238805572679e-02
-9.393410452066779104e-02,-8.819537215427473598e+00,-9.121513292998646716e-02
-1.006019275104326482e-01,-8.822128150088254017e+00,-9.404166146347819888e-02
-1.004814365071391574e-01,-8.816612409744003287e+00,-1.080112414831398693e-01
-9.561542473515709240e-02,-8.824204422146777915e+00,-1.020646642041841273e-01
-9.123063707167983205e-02,-8.817942683484023547e+00,-9.622698578131159974e-02
-9.840881512253729646e-02,-8.819357489525689431e+00,-9.904605271424836432e-02
-1.056439518427169794e-01,-8.815580935375502136e+00,-8.816915926881342680e-02
-1.037565343224277764e-01,-8.814483450044855672e+00,-9.880151076583376657e-02
-9.675896065005568092e-02,-8.807794690710712970e+00,-1.015246579468363081e-01
-8.935912614751020944e-02,-8.816404658136278272e+00,-9.717256248525961426e-02
-1.029480616145682370e-01,-8.810801043385904308e+00,-9.767828748725693178e-02
-9.382131492295661679e-02,-8.815540561146589127e+00,-9.793893770654188424e-02
-1.056718571474974389e-01,-8.811744709682361787e+00,-1.008676474074513552e-01
-9.517259846311590388e-02,-8.812054294163814916e+00,-9.204136200410999169e-02
-9.623347336172885513e-02,-8.814529518504933492e+00,-1.002645551624514186e-01
-9.902532005842618057e-02,-8.809643340332785399e+00,-1.014865335789400802e-01
-9.616280276272570759e-02,-8.804587621608744641e+00,-9.450455028048428130e-02
-9.903919261898298798e-02,-8.813490432411866138e+00,-1.010272281932498017e-01
-9.696515521993548381e-02,-8.815254406382607044e+00,-9.196101964650438276e-02
-9.685982716367171064e-02,-8.816790824266561799e+00,-9.442557952072917760e-02
-9.471444175019470835e-02,-8.811509240115993791e+00,-9.382016595137152026e-02
-1.017702215925243570e-01,-8.814980951922311903e+00,-9.586751994610978600e-02
-9.399837565114568805e-02,-8.818850958768717163e+00,-9.497800481020464425e-02
-9.252507150168809424e-02,-8.817514466361231484e+00,-9.610756598102516979e-02
-1.031513628078188638e-01,-8.815951781918323960e+00,-8.681070059182184606e-02
-9.790326439059782171e-02,-8.809321417784225616e+00,-9.953520716314441519e-02
-8.689823740145169451e-02,-8.826694707136953255e+00,-1.041815831367304962e-01
-8.938122337001351558e-02,-8.807392780083008077e+00,-1.010350473273329136e-01
-9.899123816758950700e-02,-8.809220567822480419e+00,-9.589577428878154342e-02
-8.879083102926366156e-02,-8.813602744302057701e+00,-9.754973508435327290e-02
-9.228201087342056963e-02,-8.812542747434182644e+00,-9.178569646535301996e-02
-9.641054165039765478e-02,-8.816718534797923112e+00,-9.671776880395205334e-02
-9.340747065344390254e-02,-8.811217670052467810e+00,-9.406044027794098483e-02
-9.470085747395529108e-02,-8.807798307081766254e+00,-9.535589014448044021e-02
-9.680970819716021303e-02,-8.815507388504112640e+00,-9.709359543245683899e-02
-8.626249905092989168e-02,-8.811900713746307900e+00,-9.601982928976972309e-02
-1.000899435178882468e-01,-8.809595956128818628e+00,-1.024045636001027215e-01
-1.047451607146374364e-01,-8.816809057201240307e+00,-9.937853954805113410e-02
-1.073566901936272577e-01,-8.814541357728595372e+00,-9.718909883989643173e-02
-9.459444014732759642e-02,-8.815026423788003385e+00,-1.016010177345572224e-01
-1.029368273872820622e-01,-8.812166502753504105e+00,-9.419436544576134662e-02
-9.479950182361536470e-02,-8.818597893712366798e+00,-8.866273242582972669e-02
-1.031915324728766709e-01,-8.818799055098372364e+00,-9.223023768002391876e-02
-1.039224955782747928e-01,-8.817604326474093313e+00,-1.063070081022862157e-01
-9.953668688206700199e-02,-8.821935187066330286e+00,-1.028960915274356180e-01
-9.221290909595421248e-02,-8.817819025905066610e+00,-9.698518510122385028e-02
-1.047677930451761802e-01,-8.817445522753427412e+00,-9.584917189216921041e-02
-9.731734380803487572e-02,-8.810972383915741446e+00,-9.518297114884487209e-02
-1.009325851151539472e-01,-8.815971780736898467e+00,-9.357578858478632355e-02
-1.099096811602051776e-01,-8.815853277522821330e+00,-1.037037770606455134e-01
-9.695938301293045847e-02,-8.810916931349931147e+00,-9.411988782747712778e-02
-1.046880523633133275e-01,-8.808936743005817860e+00,-9.424395103322565082e-02
-9.475918699893297326e-02,-8.819529396531763155e+00,-9.837623963996758314e-02
-9.493303493854766961e-02,-8.808777658276488509e+00,-9.869144273880491036e-02
-9.751091145343623867e-02,-8.817853561298878873e+00,-9.165349851300148842e-02
-9.980135742969413470e-02,-8.814803881593258339e+00,-9.515393832626987958e-02
-9.393145819055044587e-02,-8.816739203420498328e+00,-1.104400255287692617e-01
-9.851003192918383888e-02,-8.823971343405007772e+00,-9.825136375614255957e-02
-9.185192400298909654e-02,-8.821267312088217238e+00,-9.525129187283623566e-02
-9.275337711321018919e-02,-8.813222159045999149e+00,-9.635752441396737422e-02
-9.959346671177470023e-02,-8.815173094391340669e+00,-9.347202364340691239e-02
-9.098198639331221693e-02,-8.815410329839973969e+00,-9.559189392659829532e-02
-9.962995353214385008e-02,-8.820966377463676622e+00,-1.005426126918788077e-01
-1.009281483463228823e-01,-8.814483155907543832e+00,-9.761266784329275525e-02
-1.041159557532859298e-01,-8.817603269859359827e+00,-1.001120094764519908e-01
-9.929257307956550205e-02,-8.807733047982740260e+00,-9.501023947796397029e-02
-9.852769451365418762e-02,-8.809926216169376545e+00,-9.747395237395173329e-02
-9.641499899705889554e-02,-8.817414313882085963e+00,-9.945054726464544470e-02
-1.055336252772659800e-01,-8.819476760082681110e+00,-9.540520919920121579e-02
-8.960138862001382209e-02,-8.817856514901528442e+00,-1.039011220855333567e-01
-1.015706659170699383e-01,-8.807592743998391427e+00,-8.930785471214686133e-02
-1.051392537090051066e-01,-8.815331508342644895e+00,-9.599462591671316380e-02
-9.842547996702287472e-02,-8.819108249187097570e+00,-1.032164706268586113e-01
-1.052562988058674820e-01,-8.809680372612904264e+00,-8.596535749464680187e-02
-9.895206571696871234e-02,-8.823116355607227845e+00,-9.345402560054866248e-02
-9.560816674178254648e-02,-8.811408855042614618e+00,-1.028647458756558331e-01
-9.715231150689994377e-02,-8.819500647976004970e+00,-9.898877734713003307e-02
-9.682583016029884526e-02,-8.815630882839219140e+00,-9.242834535521982087e-02
-1.023326067341169265e-01,-8.817517463794239063e+00,-9.641521400366070971e-02
-8.920646497071310632e-02,-8.821058241908891873e+00,-9.937177300935801094e-02
-9.491187859531859117e-02,-8.815894617421204060e+00,-8.996707646964466343e-02
-1.005820322952301754e-01,-8.811737151265782941e+00,-9.711048914908096408e-02
-9.446562093529024817e-02,-8.806082730938751268e+00,-9.866719759987072069e-02
-9.667391746059122992e-02,-8.823861370787080105e+00,-9.425317269548774690e-02
-9.684072811355348698e-02,-8.813855906353955660e+00,-1.006034418679156855e-01
-1.010986622298983562e-01,-8.815618376385597088e+00,-9.346645406452243343e-02
-9.655426229486886724e-02,-8.816309875901449544e+00,-9.901476555953139802e-02
-8.789713478724067719e-02,-8.807660442104706888e+00,-9.313539128048142768e-02
-9.744520058906921967e-02,-8.812240630542415687e+00,-1.025031191578967132e-01
-9.772159071551325682e-02,-8.813366242304107701e+00,-9.344162743502838764e-02
-9.684505093699073697e-02,-8.821245128459809237e+00,-9.271894294598892472e-02
-1.004044961884601322e-01,-8.819337353592995754e+00,-8.879014964012223177e-02
-9.790875890027186945e-02,-8.809125705023559405e+00,-9.388403328995781338e-02
-1.051356042921522127e-01,-8.812997969291030742e+00,-9.490678659758636226e-02
-9.577613306344402722e-02,-8.815544494305811440e+00,-9.348857067327896730e-02
-9.533544005650572417e-02,-8.817115437408753920e+00,-1.040350771227429028e-01
-1.046544508656648831e-01,-8.805284072759473446e+00,-9.434106961389489288e-02
-9.534518955259062289e-02,-8.821525409743090407e+00,-9.297584375328217521e-02
-1.008410291115339474e-01,-8.813444632626589836e+00,-9.163994891571033974e-02
-9.706978935105391171e-02,-8.813918685632936345e+00,-9.868782499802002117e-02
-9.683669847286954790e-02,-8.819393909278097965e+00,-1.014159646244551100e-01
-9.695111853054935724e-02,-8.823759596934353411e+00,-9.674698437496070946e-02
-9.623242950427453313e-02,-8.807735237967715847e+00,-1.007917594141806428e-01
-9.815159424686968614e-02,-8.816415798530835346e+00,-9.911291874711619654e-02
-9.479351957625310743e-02,-8.821596128313489160e+00,-9.501871251637453164e-02
-9.504224251398715739e-02,-8.812760856995252468e+00,-1.027717692450476478e-01
-1.023483303508598702e-01,-8.803619818119791773e+00,-9.631243225355509696e-02
-1.021582710758918711e-01,-8.818762786025553524e+00,-1.009251905592696286e-01
-9.895323909255857031e-02,-8.816355632118497709e+00,-9.898175888521161536e-02
-9.506501809403036796e-02,-8.818435025550593664e+00,-9.832242226993422041e-02
-1.051422278580340375e-01,-8.819045276674462031e+00,-9.238009829827310837e-02
-9.146046473315712355e-02,-8.819013454960485277e+00,-9.510680476508205639e-02
-9.875421654978926156e-02,-8.816218344859899858e+00,-8.813685092834853962e-02
-9.167288591574576651e-02,-8.819603710963148657e+00,-1.080677769284951739e-01
-9.368329269863651110e-02,-8.815391936481345780e+00,-9.749587511436130782e-02
-9.589937518741258049e-02,-8.811450601365683255e+00,-9.852297875276691541e-02
-9.402005298257103127e-02,-8.809527133605126181e+00,-9.681226866924101671e-02
-1.079908010635704518e-01,-8.809543866026515957e+00,-8.855367056648857926e-02
-9.573057527399585209e-02,-8.813219241003277915e+00,-9.884575647998961045e-02
-9.802057773343779423e-02,-8.817700208172771781e+00,-9.255939534995470674e-02
-1.080197213887454238e-01,-8.820230285251243529e+00,-1.100780962852589695e-01
-1.093670474427372169e-01,-8.821174624049378465e+00,-1.031657862232208400e-01
-9.871138256067339689e-02,-8.815341985132997493e+00,-9.514942371469820026e-02
-9.072973240036315279e-02,-8.809745209500031038e+00,-8.843652652602228270e-02
-9.485967441807216516e-02,-8.813996712705812087e+00,-9.652807810854181769e-02
-8.424711315789763788e-02,-8.812862624616800034e+00,-9.883745211231574623e-02
-9.019108611320256208e-02,-8.815232805072110267e+00,-1.019382143432120136e-01
-9.485722974923357920e-02,-8.821282474721474642e+00,-9.973573783572640961e-02
-8.398392280779967689e-02,-8.818204628521733923e+00,-9.680617977686716003e-02
-1.013648314545883694e-01,-8.809770925774508044e+00,-9.563179312354277983e-02
-9.506992951302879746e-02,-8.821738526872312747e+00,-9.329243439111090108e-02
-9.971940070104230724e-02,-8.806239703213863734e+00,-1.030898958231089430e-01
-9.150433799896373621e-02,-8.812766923847714651e+00,-9.620156129426922498e-02
-9.422508456386642639e-02,-8.817760921817106023e+00,-1.023132781425441645e-01
-1.010315497073415447e-01,-8.822731020364832588e+00,-9.990340611277841176e-02
-9.667265404873963408e-02,-8.816797187563349070e+00,-9.853790153940579499e-02
-9.560972762217620491e-02,-8.824776358904271589e+00,-9.590718268101552924e-02
-9.433978546992392855e-02,-8.817115115348519438e+00,-9.914983701288583584e-02
-9.938570794471200676e-02,-8.816604349013696051e+00,-1.052998308945155836e-01
-1.023273522853778150e-01,-8.812695406109764207e+00,-9.666595612679169947e-02
-9.218818489204619326e-02,-8.816226087490832697e+00,-9.179112009229804803e-02
-9.991872299800313995e-02,-8.817689139742626026e+00,-9.633928742329340988e-02
-8.854005174020657121e-02,-8.817122580257684916e+00,-8.947088633534192037e-02
-1.063969707242727603e-01,-8.813484932632453805e+00,-1.012170258198261119e-01
-9.586309473080277532e-02,-8.809416182033819709e+00,-9.857755254820255164e-02
-9.507562501988078840e-02,-8.810993418812474332e+00,-1.017535252251640931e-01
-9.698425014041714420e-02,-8.814900855675544378e+00,-9.569731658827071441e-02
-1.032101519178422605e-01,-8.811306097118377423e+00,-9.164533725011922427e-02
-9.318127943145386449e-02,-8.815293462451650797e+00,-1.090008738291977919e-01
-9.470539214932453820e-02,-8.821690167889711276e+00,-9.836546789022519721e-02
-9.637730162643726173e-02,-8.820666820666749786e+00,-1.019618990205695963e-01
-1.035134410934431676e-01,-8.821113891684722930e+00,-9.259343779326148494e-02
-8.916139820415586170e-02,-8.825169629048659203e+00,-1.010161446127762069e-01
-9.165266247949330203e-02,-8.818899012522916081e+00,-9.702788176972296230e-02
-9.846430849566804866e-02,-8.817424109188355175e+00,-9.801231435784622803e-02
-1.073222288164324828e-01,-8.808222912977058172e+00,-1.066438254997757462e-01
-9.843365002523789264e-02,-8.822911815260512824e+00,-9.951262080346191807e-02
-9.606874846652287137e-02,-8.819927437184556851e+00,-9.609407040226353169e-02
-9.345018925170854585e-02,-8.813444887635109026e+00,-9.838649807709995421e-02
-9.930871163602110474e-02,-8.817606481936714147e+00,-1.032638625402265836e-01
-9.054798396264787663e-02,-8.814813355175790122e+00,-9.211740493106446159e-02
-9.709107348676226934e-02,-8.811523656360396473e+00,-1.011064269390048176e-01
-1.043862203655369636e-01,-8.812385891887592138e+00,-9.751321963550557692e-02
-9.491817888466028141e-02,-8.813955088328775389e+00,-1.032254880257524321e-01
-9.263962944731299332e-02,-8.809932874572258044e+00,-9.519826654016379230e-02
-1.023687777368424145e-01,-8.822216002888399800e+00,-9.537098059770685032e-02
-9.539046048365262820e-02,-8.813460456833748680e+00,-9.810082395294503210e-02
-9.658738506391312262e-02,-8.804990300112109480e+00,-9.627715794769045599e-02
-9.895946748376399649e-02,-8.812887986532937035e+00,-9.730494331685198006e-02
-9.484679783306518286e-02,-8.813591263555345279e+00,-1.013621909970132129e-01
-9.475582070227314690e-02,-8.819373911502561114e+00,-9.518012936423071724e-02
-9.516066773914627630e-02,-8.817446212794514793e+00,-9.825076132736164369e-02
-9.783885667908640005e-02,-8.823047503495535793e+00,-9.872966418815611045e-02
-1.006061511606946013e-01,-8.824685239514929336e+00,-8.345890194933440476e-02
-9.772289105793384445e-02,-8.813931763217482285e+00,-1.010108646554413181e-01
-9.825364304560907369e-02,-8.820040937401829595e+00,-9.701129812173193978e-02
-9.017436831266066599e-02,-8.816564764150502498e+00,-9.787554254599786785e-02
-1.036247087697410030e-01,-8.804159970782691857e+00,-1.034005692973038598e-01
-9.894814157953123190e-02,-8.804784613418473072e+00,-9.549571716543198141e-02
-1.034205054259805107e-01,-8.812207883588159874e+00,-9.741297004073039278e-02
-9.401256329534025957e-02,-8.811404811780564117e+00,-9.897902377932975282e-02
-9.340817804829742999e-02,-8.819118686009302266e+00,-9.714532472896343640e-02
-1.004701657918630336e-01,-8.802489626877381568e+00,-8.804010132909105557e-02
-9.420709414070561893e-02,-8.818975744162836250e+00,-9.681735688468944001e-02
-1.003739943094437564e-01,-8.810673770183420572e+00,-9.874985954015375045e-02
-9.259909294865154017e-02,-8.804793953408761809e+00,-9.327615483172231603e-02
-1.011226044268526414e-01,-8.816761080560565844e+00,-9.825144525444284849e-02
-1.003531435889169210e-01,-8.819904450033355658e+00,-9.294445749887303432e-02
-9.862571973210869369e-02,-8.819058045454603700e+00,-9.522157718052877418e-02
-8.531406523643653150e-02,-8.809616774721337862e+00,-9.251925052331488875e-02
-9.884103268767317763e-02,-8.814882988107788364e+00,-9.652341126780532299e-02
-9.563775512813166291e-02,-8.833460127408670814e+00,-9.109827508828050036e-02
-1.036553401068883579e-01,-8.819277231941411443e+00,-9.977168329399532798e-02
-9.954193861659554887e-02,-8.817909784512631077e+00,-9.777863781102288931e-02
-9.418016820921137899e-02,-8.812063435531031885e+00,-9.651693443858086474e-02
-1.059564654145828677e-01,-8.815484905222493950e+00,-9.433487794837176754e-02
-9.983816843430598498e-02,-8.821210938473413421e+00,-9.822570708325453759e-02
-8.747337319874118333e-02,-8.816944238475690199e+00,-9.568793137877232291e-02
-9.684559474407102020e-02,-8.817210451742575117e+00,-1.048524195562018091e-01
-1.018433811188679955e-01,-8.812911982029048019e+00,-9.587742363623545649e-02
-9.720496274294899985e-02,-8.817471138918429929e+00,-9.442470161733412803e-02
-9.882790851969662504e-02,-8.809415306108133947e+00,-9.369125129826219589e-02
-1.037036577813157112e-01,-8.815289038605977012e+00,-9.848527947327287424e-02
-9.769007289865001831e-02,-8.821246021506137680e+00,-9.639433598658329883e-02
-1.032996691948343398e-01,-8.831059599116503733e+00,-1.033819285772499957e-01
-9.565561830092021711e-02,-8.809579633920227693e+00,-1.017164087496710556e-01
-9.927961157572151585e-02,-8.814802376438564124e+00,-8.971036971066527477e-02
-9.958840783116201800e-02,-8.819509207323266153e+00,-1.073996208891702109e-01
-1.123133507223675887e-01,-8.814354664967069652e+00,-9.451162311484487266e-02
-9.993177533632985332e-02,-8.816297292176351164e+00,-9.720888181987009935e-02
-8.974536590806295178e-02,-8.804924141706615970e+00,-9.370638261611141662e-02
-9.648115881461975796e-02,-8.820057249520818488e+00,-1.005695516891555036e-01
-9.626018394453135507e-02,-8.820884157982760598e+00,-9.795447856423948607e-02
-9.572847219110659778e-02,-8.809517073027850032e+00,-9.787267332915002005e-02
-9.466279035056845981e-02,-8.816857817720471502e+00,-9.187978844109075116e-02
-9.513581115255741183e-02,-8.813985999444739150e+00,-1.006815708837151130e-01
-9.707060027452392437e-02,-8.816719862969419452e+00,-1.034271786812210742e-01
-9.647535350298855339e-02,-8.823718108997477216e+00,-9.791014834740074946e-02
-9.998023569120675913e-02,-8.815143917862766187e+00,-1.067887346062994375e-01
-9.081562448834086532e-02,-8.808553531403470416e+00,-1.019026263744776256e-01
-1.034095925202685728e-01,-8.814914489505234485e+00,-1.017825304236945755e-01
-1.009830417790213153e-01,-8.810938908482913945e+00,-9.107634488367291614e-02
-8.790659208461315544e-02,-8.812749551931846170e+00,-1.035357019718756016e-01
-9.901293992168212765e-02,-8.817599643847263025e+00,-8.690461714445127384e-02
-9.713535531985971472e-02,-8.806112031590371814e+00,-1.060050366281039824e-01
-1.007211810414935932e-01,-8.816876106131482871e+00,-1.022410352649151116e-01
-9.927369080158898740e-02,-8.819168997048297598e+00,-9.624511562970557155e-02
-1.047865609233771117e-01,-8.805530451181553531e+00,-9.812855763462607905e-02
-9.781689562316257802e-02,-8.821543232507069732e+00,-9.429980710896741780e-02
-1.020099357271426893e-01,-8.807888528532851424e+00,-1.003258451394113404e-01
-9.348816340763167754e-02,-8.815389997376442466e+00,-1.015675545086222042e-01
-9.836994737137289002e-02,-8.811502621109287503e+00,-9.938076561045976198e-02
-9.197116957994767861e-02,-8.812571555675910773e+00,-1.016548651302540407e-01
-9.663567646811342671e-02,-8.817361931080155202e+00,-9.869687167171033171e-02
-1.021526926074149272e-01,-8.816007225304041128e+00,-9.571874228014910779e-02
-9.728965716077417336e-02,-8.817803874583027834e+00,-1.016352057831199640e-01
-9.551205815831287360e-02,-8.802910995784044346e+00,-1.044845507205598711e-01
-9.619625656840517791e-02,-8.806171051753933554e+00,-1.067712804397581705e-01
-9.524231997923379711e-02,-8.817675670146671862e+00,-9.738507490090614338e-02
-1.023736667617242690e-01,-8.815694861622747069e+00,-9.510666806627300629e-02
-1.002126994709458541e-01,-8.812963400226761834e+00,-9.585917085295529716e-02
-9.707888763205316240e-02,-8.818739911923199060e+00,-1.013780873068794441e-01
-9.712397837196168338e-02,-8.816712800822656959e+00,-9.076276607573097177e-02
-9.191316059337736877e-02,-8.815854725221695887e+00,-1.050751134311760371e-01
-1.015277191621979658e-01,-8.815110991027465204e+00,-9.628657998361013493e-02
-8.527701460396978905e-02,-8.821636006677815445e+00,-9.837780610751588328e-02
-1.021245287931651369e-01,-8.812667419184290196e+00,-9.560564720951619799e-02
-1.043726622185227049e-01,-8.813292493059543986e+00,-9.661850789954681828e-02
-9.914609967524402878e-02,-8.816768892078298947e+00,-8.741802223396946681e-02
-9.170099357649845462e-02,-8.814341406445581839e+00,-9.933341701005078683e-02
-9.212658841997695136e-02,-8.812886293200623555e+00,-8.845733143805462051e-02
-9.400420386070915124e-02,-8.828476231580825839e+00,-9.552208641150640445e-02
-1.007964051650339782e-01,-8.807663441701127027e+00,-9.811198665368221772e-02
-8.784228338985206053e-02,-8.811101416681234255e+00,-9.878166983525073219e-02
-1.030776540954782272e-01,-8.816883753725390349e+00,-9.449008424080092283e-02
-1.038302257311269489e-01,-8.812921650175001176e+00,-9.607469805858225020e-02
-8.990896176884284607e-02,-8.812878742476355498e+00,-9.851508622860029318e-02
-9.758635779319645154e-02,-8.815023609093923795e+00,-9.293210358124950887e-02
-9.760340446023701988e-02,-8.815144537507018541e+00,-9.422175396696599869e-02
-8.280514009240125262e-02,-8.812636780486377219e+00,-8.923980783098507674e-02
-1.025196718835459098e-01,-8.811316020810524563e+00,-9.809280061380616644e-02
-9.103015796787003455e-02,-8.817357577942321001e+00,-9.654359406904307328e-02
-9.747947311412133442e-02,-8.809953984296013729e+00,-9.480860900307201689e-02
-9.687355102517247740e-02,-8.827180029608475920e+00,-1.017161410886766731e-01
-1.036017540916876617e-01,-8.813104588399465200e+00,-9.891852515621185615e-02
-9.299928392925313481e-02,-8.804787223621177716e+00,-1.066101321603893648e-01
-9.633276517204651668e-02,-8.813175253698515732e+00,-8.646400857866118339e-02
-1.087883727386086963e-01,-8.825056984851318731e+00,-1.035041850126192514e-01
-9.315830251475720747e-02,-8.808462799815860222e+00,-1.033802789446081755e-01
-9.909294958475645121e-02,-8.811712256570491064e+00,-9.048203095184946532e-02
-9.894131405772592369e-02,-8.809537300463338383e+00,-9.804651466852933039e-02
-9.534184444571128236e-02,-8.813928647608694433e+00,-1.004664123555066291e-01
-1.036308022192087563e-01,-8.810392887805505779e+00,-9.933099440458581508e-02
-1.008283695726451545e-01,-8.814853167533968303e+00,-1.037802507881957076e-01
-1.018292870045825610e-01,-8.808659795286203575e+00,-9.245895370504922384e-02
-8.909970467385908144e-02,-8.814922564785401704e+00,-9.564150281095752659e-02
-1.021599325016243759e-01,-8.807961016825830214e+00,-8.478724880808906350e-02
-9.059421604657766358e-02,-8.811417100239799183e+00,-1.036234170045167713e-01
-1.036407934635907718e-01,-8.811156273335246425e+00,-9.506346581951105601e-02
-9.829118959658987575e-02,-8.804310392140545005e+00,-8.972227638156923812e-02
-8.885310152345744783e-02,-8.813745473909341044e+00,-9.356850448205468462e-02
-9.984217092973449170e-02,-8.809984190327455167e+00,-9.342803174737399075e-02
-9.613143414920052865e-02,-8.820786463725958981e+00,-9.331885530394927464e-02
-9.881403605213058550e-02,-8.807571848483718213e+00,-1.022478378074015981e-01
-1.036633728890967859e-01,-8.813227779732159206e+00,-1.001024868944970364e-01
-9.292316952307358435e-02,-8.817166569934284936e+00,-8.975419600632572603e-02
-1.023202148631295744e-01,-8.816146074376062458e+00,-9.012798145055467280e-02
-9.974298225985739341e-02,-8.810480748152036412e+00,-1.040377643351833581e-01
-9.824477362806253999e-02,-8.815779484126961663e+00,-1.031514064088243643e-01
-9.282797743060268447e-02,-8.820018531345041879e+00,-9.666121955698023238e-02
-9.831135233070496804e-02,-8.821085481405978257e+00,-9.810569050929771051e-02
-1.021912657973715888e-01,-8.821323600466708825e+00,-1.047031548567020909e-01
-8.911085633061399669e-02,-8.819365898859679476e+00,-9.220103394268319708e-02
-8.728202197273035590e-02,-8.818653059486829093e+00,-1.013309639160994702e-01
-9.097367456649232964e-02,-8.812947134623691170e+00,-9.430527939657508407e-02
-9.888979035721565114e-02,-8.809986150491935675e+00,-9.886822744719871159e-02
-9.523284735702462755e-02,-8.814410340798135124e+00,-1.037410839619457292e-01
-1.040559015710043334e-01,-8.807601650548807726e+00,-9.055247778674752057e-02
-9.615943764846120179e-02,-8.823229069872972730e+00,-9.319948279220081899e-02
-9.072091138441780445e-02,-8.820095483090746313e+00,-9.186605245611748072e-02
-9.125273674935781287e-02,-8.809965391287251535e+00,-9.264129138257218288e-02
-9.849882890836617055e-02,-8.823201023754482009e+00,-9.469735674111232071e-02
-9.920745915716819296e-02,-8.811427465013853322e+00,-1.040999001805210100e-01
-9.170749718069166889e-02,-8.808804610385083222e+00,-9.705591016980850971e-02
-9.267425381500252191e-02,-8.821056469921805032e+00,-9.623622117401547937e-02
-9.565994745637196317e-02,-8.829858526074090719e+00,-9.708646728080171096e-02
-9.885818867489588879e-02,-8.820647134760763564e+00,-9.245774869340679658e-02
-8.847304694111415846e-02,-8.809689836688082920e+00,-9.597644150605647018e-02
-1.030690483083529368e-01,-8.813460107593478199e+00,-9.234953204205241517e-02
-1.026650229296835193e-01,-8.810860653414417598e+00,-1.010901158625902158e-01
-1.020966378438900313e-01,-8.816362408567332665e+00,-9.932608846942997394e-02
-9.664962953512719335e-02,-8.820391899305928263e+00,-1.010728963105101547e-01
-1.045599075099579167e-01,-8.807382553045979279e+00,-9.789714253809082833e-02
-9.244860807282825887e-02,-8.809043134474324077e+00,-8.983967440191462095e-02
-9.596576268607361071e-02,-8.822147116796129396e+00,-1.046275825660904213e-01
-9.420600060364529849e-02,-8.813582987032377858e+00,-9.335771242675254544e-02
-9.456712995769095409e-02,-8.816154251643174788e+00,-1.078105573483125884e-01
-1.059288967303873563e-01,-8.811480232779985045e+00,-9.385820103718638119e-02
-1.040927347894338995e-01,-8.816144593766825466e+00,-9.598105478378954336e-02
-8.617350897807114773e-02,-8.811937567767342827e+00,-8.768249473568126562e-02
-1.042956946747151115e-01,-8.817016056893390186e+00,-1.030237934549360079e-01
-1.013884413360663511e-01,-8.810801111502348348e+00,-8.926594851448310663e-02
-1.001077505189299915e-01,-8.817174415310040203e+00,-9.437009155972214680e-02
-1.007930481107004173e-01,-8.819165599744700046e+00,-1.026701666939258545e-01
-1.028496527568169699e-01,-8.820783001661178346e+00,-1.006812114036289979e-01
-9.645610594979225905e-02,-8.812600292447514860e+00,-1.014792050548300184e-01
-1.003022277373870341e-01,-8.819893509991961977e+00,-1.025713196919282866e-01
-9.818773903771627065e-02,-8.813349422697511315e+00,-9.242668062894726644e-02
-1.020956262368886147e-01,-8.810684380456615727e+00,-1.023768828168699352e-01
-1.047586434903197139e-01,-8.811346715339979596e+00,-9.892111515752403939e-02
-9.134890277804919023e-02,-8.821608768699356062e+00,-9.842322395056116169e-02
-8.930685605425883744e-02,-8.820180286641081224e+00,-9.582756485987692363e-02
-9.932863566075474104e-02,-8.811307078691401173e+00,-9.343306744564430777e-02
-9.634500181629368498e-02,-8.815084892021163299e+00,-9.525879587396167414e-02
-9.863331734728143785e-02,-8.811109449735354815e+00,-9.091832971889933501e-02
-9.131672102973380223e-02,-8.809392265031876335e+00,-9.775243834806660037e-02
-9.961975844812286096e-02,-8.808916954817014755e+00,-9.313788609615165914e-02
-9.569977508325083759e-02,-8.809914835992499249e+00,-9.586848697385634555e-02
-9.940243543176681407e-02,-8.815681602094915803e+00,-1.044310125973922504e-01
-9.634881245394671945e-02,-8.815900014038266619e+00,-9.722407269123420348e-02
-1.012682650209344587e-01,-8.812922523812662945e+00,-9.075780736167346485e-02
-9.723974214004757477e-02,-8.811753890540954259e+00,-1.032211932302269652e-01
-1.007883049791115926e-01,-8.820076843010378198e+00,-9.860156257609872799e-02
-9.911138254155303640e-02,-8.817776846944566316e+00,-9.304173055173123319e-02
-8.901910282749872505e-02,-8.819856702595949116e+00,-9.498684919481710509e-02
-9.626216042529361916e-02,-8.821058064111223729e+00,-9.801664753086541948e-02
-9.445612612360125560e-02,-8.822551418714313698e+00,-9.965631997657806163e-02
-9.871382699420405693e-02,-8.814642850383220818e+00,-9.626020985299019173e-02
-1.015702379704143815e-01,-8.816254625897270714e+00,-9.834567156877695171e-02
-9.402710006357530015e-02,-8.818709788955052531e+00,-9.661712023347658607e-02
-9.820066788046286077e-02,-8.812476088972330146e+00,-8.779211125789933290e-02
-9.379349997624705781e-02,-8.817184488775733797e+00,-9.764572447199429406e-02
-1.015491525967865127e-01,-8.812643878187184754e+00,-1.007549763851236235e-01
-1.025693712447355577e-01,-8.818234491863217173e+00,-1.061241899056480920e-01
-1.019972419721642820e-01,-8.812329340259211108e+00,-9.192472646738536479e-02
-9.502242744314016998e-02,-8.820288660081798682e+00,-1.017150020933932641e-01
-1.037885165345390909e-01,-8.816034403270290198e+00,-8.915271630464874364e-02
-9.703826590094616344e-02,-8.817122809365468328e+00,-9.669037370157261557e-02
-1.069147723261157507e-01,-8.816862618116793726e+00,-9.505239184445600509e-02
-9.208466420476929537e-02,-8.816723679834367999e+00,-9.661782181209215004e-02
-1.030936856967145376e-01,-8.822577627263376243e+00,-9.578277673090103417e-02
-9.574239843381897319e-02,-8.812369468034276565e+00,-9.660402900480784261e-02
-1.036540563321445979e-01,-8.811700264230147184e+00,-9.563415695505091130e-02
-8.790355060334582860e-02,-8.815626526261475249e+00,-1.027518049289621177e-01
-9.534989135170716945e-02,-8.824358101246641439e+00,-9.808977232230987886e-02
-1.066312384409393438e-01,-8.823576538711810358e+00,-9.764478438121254600e-02
-9.423862285388120985e-02,-8.817264448971933177e+00,-9.952694069953825495e-02
-9.441230091829638793e-02,-8.815659151023698570e+00,-9.585773797324015355e-02
-9.889657269874908840e-02,-8.816895005079013359e+00,-9.245509994037372226e-02
-1.008833934044769121e-01,-8.809729904229596897e+00,-9.146676154183196183e-02
-9.540334295405027143e-02,-8.812068031690461822e+00,-1.029490975558548793e-01
-8.920822155817771659e-02,-8.813937544838234217e+00,-9.405021494335155663e-02
-9.802444722806644140e-02,-8.821432357117030776e+00,-1.020917014310247367e-01
-8.772817505362792700e-02,-8.807846685013506871e+00,-9.682473443297449911e-02
-1.066377577996950321e-01,-8.818180756927564090e+00,-9.997173964180423866e-02
-9.544525538895327899e-02,-8.807340459061865801e+00,-9.692850121152887799e-02
-9.545239534188589003e-02,-8.818519371273604079e+00,-1.006238456840234385e-01
-1.001320092075453499e-01,-8.819195413581347509e+00,-9.404720312600176046e-02
-9.149406256909635438e-02,-8.820507572823132136e+00,-9.540752171286868977e-02
-1.014663989433844948e-01,-8.817069854668277529e+00,-9.532674763628015691e-02
-8.952400875434361749e-02,-8.815265491522229269e+00,-9.781347339609419711e-02
-8.756774035385687938e-02,-8.825276201504401286e+00,-9.543598181461958319e-02
-9.715963664095704500e-02,-8.821564324622899633e+00,-9.451193614272089538e-02
-9.399550945206903985e-02,-8.811191166523983043e+00,-9.197659729970135423e-02
-9.139339483691286126e-02,-8.828561442987655994e+00,-9.185015379431338278e-02
-1.005853486257865664e-01,-8.812179972905280323e+00,-9.792376794015911212e-02
-9.279292366004633641e-02,-8.815127711419762591e+00,-9.698962998477669850e-02
-9.424159556664947479e-02,-8.811673734539178682e+00,-9.561560973370218652e-02
-1.018580362201708528e-01,-8.806783778988624078e+00,-1.021577005691156059e-01
-9.481872427814741489e-02,-8.818588900122673380e+00,-9.740360083953397696e-02
-9.878790958694962099e-02,-8.815938363736803396e+00,-9.618015110290149827e-02
-9.865838336472361469e-02,-8.817839742214877319e+00,-1.033228409823347821e-01
-9.099403027236524499e-02,-8.804203025048543907e+00,-1.067805223283669197e-01
-9.641334683376925896e-02,-8.805077516365981793e+00,-1.032951077793416300e-01
-9.817844286083245164e-02,-8.815703907530334504e+00,-9.652814914371973809e-02
-1.032794460328185643e-01,-8.813814276355186550e+00,-1.000473057479371458e-01
-1.004443384687408597e-01,-8.816137812717157018e+00,-9.397239044932019503e-02
-9.406506757338348179e-02,-8.814039052299255772e+00,-1.001576198687401525e-01
-9.877068295359335559e-02,-8.818342782631026111e+00,-9.559857413672857851e-02
-1.007182286598657661e-01,-8.804322807635127646e+00,-9.382765080397445501e-02
-1.022622851032012892e-01,-8.810826886860455787e+00,-9.799662356390256845e-02
-9.715667548760603678e-02,-8.823196716396878969e+00,-1.020304869218865290e-01
-9.801833956352570820e-02,-8.811978112665633134e+00,-9.799208786233035151e-02
-9.900128855856472898e-02,-8.816130577133650448e+00,-9.851369488058686619e-02
-8.690712092782405807e-02,-8.814209123953993696e+00,-8.670409778007158452e-02
-9.829514258821131500e-02,-8.801296332702518654e+00,-9.322228875774631052e-02
-9.304832521142457347e-02,-8.816309681187018299e+00,-9.673333652357438139e-02
-9.223624055721502124e-02,-8.815857647449142576e+00,-9.990730889648001545e-02
-9.480828889868396503e-02,-8.804945114004166129e+00,-1.026932225606295296e-01
-1.014050610670787639e-01,-8.817024864038330634e+00,-9.313265571666101694e-02
-9.651610948784390687e-02,-8.808269674407721794e+00,-1.014469324943611112e-01
-9.235962557664152695e-02,-8.814763945966504366e+00,-9.437100141916276996e-02
-1.036650218694607634e-01,-8.820100840469082826e+00,-1.028027415056104593e-01
-9.309950786745553597e-02,-8.818826578876121758e+00,-9.601670838438147726e-02
-1.067318915063314860e-01,-8.815194153990594472e+00,-8.551200203447230364e-02
-1.009425266723764231e-01,-8.817007358386948823e+00,-9.435095206862412209e-02
-9.791050021510928902e-02,-8.814366993356811619e+00,-8.975016543705865990e-02
-1.006671388793503735e-01,-8.820389953083724421e+00,-9.038831767782416760e-02
-1.000541627973407233e-01,-8.825751669437478242e+00,-9.903815409822205873e-02
-9.464578468600036432e-02,-8.807294268270419835e+00,-9.092434559152587359e-02
-1.013394362256214848e-01,-8.819009702389161376e+00,-9.157904596903135297e-02
-8.690511388171681673e-02,-8.813530852213567357e+00,-9.687891397512786440e-02
-9.836263132484968086e-02,-8.810925916047931850e+00,-9.376166692576878847e-02
-9.681807349542835561e-02,-8.807943845679760742e+00,-9.717295912331519459e-02
-9.141784534087105119e-02,-8.809975111020959204e+00,-1.015418413851384011e-01
-1.040827881921866788e-01,-8.805297195308600777e+00,-1.045758423385999697e-01
-9.954636882462798708e-02,-8.816705249970983260e+00,-9.052193597085034238e-02
-9.800203421831382711e-02,-8.820930721066046587e+00,-9.672571515680210286e-02
-9.416803675916315952e-02,-8.808279745330748867e+00,-9.782260730592834408e-02
-9.791400872908642694e-02,-8.817392097079695290e+00,-9.388557458036017600e-02
-9.347291135269206186e-02,-8.816212333746907603e+00,-1.035069321451535101e-01
-9.361493310718110861e-02,-8.813752401483409216e+00,-1.001339420917836953e-01
-9.816900803397274333e-02,-8.817372450815762264e+00,-1.025939806630484646e-01
-9.481259828332415374e-02,-8.812161761694047968e+00,-1.045010795724667235e-01
-1.019208872172999297e-01,-8.819783410582047622e+00,-1.079966020134002225e-01
-1.009507455504317364e-01,-8.814491571366387390e+00,-1.038816084155984171e-01
-9.771323452888974748e-02,-8.808995161776417504e+00,-1.063818656358356679e-01
-8.997106386407774381e-02,-8.815705989518148655e+00,-9.743867367312274153e-02
-9.381298882051671006e-02,-8.808300912304691366e+00,-9.389961035509367115e-02
-1.010098544829039074e-01,-8.822079013389011237e+00,-9.442953480858418125e-02
-9.031293400519738168e-02,-8.817544772559392285e+00,-9.900100035108018448e-02
-9.982974396843423415e-02,-8.816457799608050649e+00,-9.852264311932215635e-02
-1.003019239582582933e-01,-8.814161859063093019e+00,-9.921038620437877542e-02
-9.358545095288091364e-02,-8.814822261232976075e+00,-9.484974217061746538e-02
-1.024748891973420312e-01,-8.814471252783926403e+00,-8.998841128672054046e-02
-9.672416025109430160e-02,-8.813391916405251436e+00,-9.708304217132018854e-02
-9.925808091945083345e-02,-8.811864852650234781e+00,-9.468930957060817111e-02
-9.182814359094536305e-02,-8.802534468963775893e+00,-1.004375630070109271e-01
-1.029205821208550864e-01,-8.811237331008550555e+00,-9.972481702008605120e-02
-9.116295191525949915e-02,-8.804621163027913866e+00,-1.029401108121599101e-01
-1.014821828438036977e-01,-8.822374121027623417e+00,-9.524311325254523897e-02
-9.749539514083717384e-02,-8.818494441446642185e+00,-1.058523325820301397e-01
-9.713615949782312964e-02,-8.807457190400072022e+00,-9.344575232901417006e-02
-9.691767052066237176e-02,-8.819623025695035423e+00,-9.971585690912576627e-02
-9.805039467736093028e-02,-8.821320209584268213e+00,-1.137488336321335475e-01
-9.077544113742151699e-02,-8.814555239783455676e+00,-9.778574729519921849e-02
-9.169342146676873195e-02,-8.809688136834941119e+00,-9.624821007638592607e-02
-1.079862051195536188e-01,-8.818891585155439472e+00,-9.096983498544036761e-02
-1.027151304562133188e-01,-8.823793080924549059e+00,-1.015332836493697127e-01
-1.003891861821321618e-01,-8.822353962737309985e+00,-1.005436888691946945e-01
-9.652748350863446514e-02,-8.807407209079217481e+00,-9.789621591148926771e-02
-1.019591544653345588e-01,-8.815853874279245161e+00,-9.727174059724842670e-02
-9.766744916974243185e-02,-8.816686439712595913e+00,-9.315268797061514172e-02
-9.436081133106206942e-02,-8.806239685576404241e+00,-9.884088115587283396e-02
-9.552900361496927117e-02,-8.806423335679715692e+00,-9.673333459276463320e-02
-1.017644604691247817e-01,-8.812698280510172566e+00,-9.968321944543036273e-02
-9.637496708807070933e-02,-8.818929126129633644e+00,-9.312410871837403792e-02
-8.858172087895938018e-02,-8.814411019997864472e+00,-9.238228053518561522e-02
-9.931423994892560336e-02,-8.808466335745366749e+00,-9.255801259206257459e-02
-1.029274625317864594e-01,-8.809454165730892683e+00,-9.839796924604692074e-02
-9.682023927165253618e-02,-8.802799829691762667e+00,-1.092746401020407987e-01
-1.003097031600466427e-01,-8.818722853483681234e+00,-1.108495291767403329e-01
-1.010690617202490704e-01,-8.816488498116420658e+00,-9.579396928591626947e-02
-9.126595291566509671e-02,-8.809114979938641454e+00,-9.675032983679320020e-02
-1.021996906015468776e-01,-8.813969911920240818e+00,-1.015376395918777958e-01
-9.983122896444576733e-02,-8.819855590427350123e+00,-1.054395383709278017e-01
-9.298812967969614929e-02,-8.817580811726342560e+00,-9.762293994015298904e-02
-9.397411221206432297e-02,-8.817952668529477123e+00,-1.012651587324015640e-01
-9.751075994667564306e-02,-8.810330902662764530e+00,-9.790753449668387898e-02
-9.634982471123557102e-02,-8.811239949218922618e+00,-9.076207216520890131e-02
-9.574086241082363502e-02,-8.813637049049393823e+00,-8.848045247139860181e-02
-1.102977681582198721e-01,-8.823010444430336108e+00,-9.275618892608097910e-02
-9.421343465073916956e-02,-8.814885304217080275e+00,-1.025003856270642749e-01
-9.392876470367386710e-02,-8.814260722546697124e+00,-1.025770470179754867e-01
-9.943885024098178538e-02,-8.818739547985552818e+00,-9.908492424324501224e-02
-9.973331373509178310e-02,-8.808207501231226644e+00,-9.598310463671223813e-02
-1.009908170583637410e-01,-8.813982884628936532e+00,-9.033755674768779997e-02
-1.017639068586131817e-01,-8.818951647894422763e+00,-1.018709278912522664e-01
-9.627068640396367616e-02,-8.815583915840470297e+00,-9.594159201465328468e-02
-9.934705418516090458e-02,-8.812951966989256647e+00,-9.213225608817915413e-02
-9.450168300849723368e-02,-8.813803987220618197e+00,-8.941811762882882764e-02
-9.496793593313701543e-02,-8.810048101286398037e+00,-1.075765515851242471e-01
-9.875195982913982651e-02,-8.817731267306378129e+00,-9.078118718600258763e-02
-1.011611092673353890e-01,-8.814277005823159428e+00,-8.905170771589222822e-02
-9.670538942980516639e-02,-8.814600884403795078e+00,-9.216812935829184206e-02
-1.021748169857229355e-01,-8.807234455133650997e+00,-1.025969716487477729e-01
-9.762267240327424100e-02,-8.806159819191385907e+00,-9.984109841254873441e-02
-1.070272676923183092e-01,-8.812874055839859722e+00,-9.818097241982849666e-02
-1.027023039762817724e-01,-8.819972314967902349e+00,-9.019288828785007595e-02
-9.516893526117277402e-02,-8.817492056549388835e+00,-8.949157530574029795e-02
-9.355429592390164528e-02,-8.808415978452703854e+00,-9.062908296464462776e-02
-9.886076203056232137e-02,-8.816074906520956489e+00,-9.947733318513184153e-02
-9.429780792898939668e-02,-8.801116442868066159e+00,-9.057832553915082241e-02
-9.942255867624630317e-02,-8.819265409607385919e+00,-8.553690790682741407e-02
-8.878990393343831611e-02,-8.815720107309189757e+00,-8.795755827708545693e-02
-9.697440682490734987e-02,-8.816266448237270126e+00,-9.603841930473525079e-02
-9.245647342159242499e-02,-8.817615382591153406e+00,-9.672609307862853334e-02
-9.547407603850695257e-02,-8.821557452558199230e+00,-9.646177947045155021e-02
-1.011076934595463300e-01,-8.820930297027837597e+00,-9.338710760450251447e-02
-9.276660755048164730e-02,-8.807109018935753042e+00,-9.379603538980893496e-02
-9.214025947729936883e-02,-8.815190888102247158e+00,-9.386875916307793610e-02
-9.424734591155121965e-02,-8.812858687022771420e+00,-9.580706080756594412e-02
-1.045129470040156161e-01,-8.824489989735122109e+00,-9.719186384249285660e-02
-1.033187798726876994e-01,-8.802377997136499488e+00,-9.262974442343886727e-02
-1.000774208149674549e-01,-8.816735492485175740e+00,-9.554428753426344456e-02
-9.134990192358355410e-02,-8.814481976712697175e+00,-9.545197897110223317e-02
-1.046221166099678274e-01,-8.815659406363007378e+00,-1.026311728507943305e-01
-9.979931411770133487e-02,-8.813724259317913479e+00,-1.019441657869576273e-01
-9.528589297629702637e-02,-8.821693724207346321e+00,-1.004478502379335531e-01
-9.600595700519028164e-02,-8.807603958985048109e+00,-9.682427605639007395e-02
-1.042707401980273035e-01,-8.814361592397387923e+00,-1.001100990308612521e-01
-9.263827821236672588e-02,-8.805238595418874326e+00,-9.306969230377713787e-02
-9.758479922109554450e-02,-8.818351189363804465e+00,-9.859288027442383862e-02
-9.928694672382433473e-02,-8.815191876247510550e+00,-1.005508130092575281e-01
-9.429209922887221706e-02,-8.822645877931817537e+00,-9.795203375378983002e-02
-9.898636136495474191e-02,-8.807220043706305290e+00,-9.514144639076907439e-02
-9.458091399672820254e-02,-8.823899765796932471e+00,-1.007285386715700143e-01
-9.754244638488297758e-02,-8.826202525476377403e+00,-9.514355246702586866e-02
-9.866434541946643433e-02,-8.813201212699436127e+00,-9.538768650451506792e-02
-9.529334043033785284e-02,-8.811054774478746410e+00,-9.555192552223279456e-02
-9.568140964461495368e-02,-8.812543810379692033e+00,-9.836199486046799667e-02
-9.298913664576442806e-02,-8.814362657752447205e+00,-9.068197299817734591e-02
-1.003385768440995390e-01,-8.819372764049784763e+00,-9.842493092073037464e-02
-9.793271430408535816e-02,-8.808853611362836844e+00,-1.064313361713464523e-01
-9.683826918714708021e-02,-8.819658095114892404e+00,-9.733022344537094195e-02
-9.931505202754904726e-02,-8.821517773340692870e+00,-9.888656626183654763e-02
-1.007179645067083074e-01,-8.809824670903273258e+00,-1.014491110101430615e-01
-9.133488680332690901e-02,-8.821254623203634182e+00,-9.412959434945369908e-02
-8.558699190881854935e-02,-8.816028542546014535e+00,-1.018584161742323718e-01
-9.673990305278495905e-02,-8.817729237934166520e+00,-1.100313106171593308e-01
-9.640121859024351758e-02,-8.805460580650473545e+00,-9.866029590158709173e-02
-1.015005205950285927e-01,-8.807462459428545998e+00,-9.416825110941332011e-02
-1.047128200046040375e-01,-8.815878970124353842e+00,-1.057215728939735894e-01
-1.055538794659156843e-01,-8.806160425381229118e+00,-9.989490767563447005e-02
-9.786098443821435178e-02,-8.816643346248236313e+00,-1.058328812511029476e-01
-1.047624446679710219e-01,-8.817292886738853142e+00,-9.403611301231032393e-02
-1.035514836454260179e-01,-8.813678720714021253e+00,-9.299486610076856952e-02
-1.017138430729635223e-01,-8.822078780216731531e+00,-1.014927051245058526e-01
-9.640641405046471157e-02,-8.810321925147944100e+00,-1.037545213716662001e-01
-9.653502105964834046e-02,-8.811790584673664384e+00,-9.796293889080259776e-02
-9.864479326857160391e-02,-8.815101564013319901e+00,-9.297863187599218759e-02
-9.787061382974959756e-02,-8.816308180700090702e+00,-9.945302359592478325e-02
-9.581105202652075159e-02,-8.807545543144662759e+00,-9.810310197101214380e-02
-9.546667189070359716e-02,-8.824381319330598217e+00,-9.119889281540941028e-02
-9.306356874679039271e-02,-8.810858775663023224e+00,-9.493809565598289313e-02
-9.330335529507094439e-02,-8.816586248146876414e+00,-1.092800952518360041e-01
-1.002816484905103972e-01,-8.813911673607263353e+00,-9.386048446700387404e-02
-9.683925414278089783e-02,-8.814437666765394752e+00,-9.362863523982647984e-02
-1.003346523489890146e-01,-8.811180673771939809e+00,-9.845059371939342274e-02
-8.823765138978989508e-02,-8.817524764577735041e+00,-9.187325711724377009e-02
-9.467612598361140053e-02,-8.825694761187060422e+00,-9.128898665788058586e-02
-1.003256050233931190e-01,-8.811463227541732834e+00,-1.010988122306475251e-01
-1.047809834325165029e-01,-8.824160991351286398e+00,-9.158017725452878566e-02
-1.020121342572084533e-01,-8.816520913775713453e+00,-9.330301492825091025e-02
-8.889384827491092489e-02,-8.821702710960408922e+00,-1.025832550062213133e-01
-9.209356877146185338e-02,-8.816888401335123859e+00,-9.915003776978409400e-02
-9.492519748329412976e-02,-8.820858077113568285e+00,-9.833584375250617460e-02
-1.011921608689390767e-01,-8.815406398481343331e+00,-9.207609905009002393e-02
-9.636131195341823830e-02,-8.813312606878174194e+00,-9.683333945548773525e-02
-9.255694805897164701e-02,-8.815076626913352698e+00,-9.592514751572016329e-02
-8.909499736564389927e-02,-8.810497709869263616e+00,-9.641973231407174882e-02
-9.493655134836470610e-02,-8.810451333081308789e+00,-9.264307454192537150e-02
-1.084083958495071220e-01,-8.821310019143627557e+00,-8.860748571690726938e-02
-9.353661563748788543e-02,-8.806768488487280777e+00,-9.634547360847285635e-02
-9.613324056943413354e-02,-8.817729578522172318e+00,-1.074173598055096768e-01
-1.004522072908600738e-01,-8.813168468284642287e+00,-9.253735796870972419e-02
-9.703257730532957592e-02,-8.816213227049484402e+00,-1.054060211132395730e-01
-9.565241654544857919e-02,-8.812403424507021299e+00,-1.009670864903983167e-01
-1.050146070233970441e-01,-8.816053031657931527e+00,-1.022141790760271590e-01
-1.051666221814674396e-01,-8.819820120050021472e+00,-9.530471631842335478e-02
-9.884611053311759266e-02,-8.807420192872235987e+00,-1.013339646822932760e-01
-9.556251258768097556e-02,-8.813997837275337588e+00,-9.665797811416881880e-02
-9.408987914787378393e-02,-8.814953180135882249e+00,-9.911528581676791461e-02
-9.698072861913105414e-02,-8.817269945778212659e+00,-9.883720638312455675e-02
-1.032388810468033435e-01,-8.813231148343406929e+00,-8.905674359627080428e-02
-9.762040394725307602e-02,-8.828092302340479591e+00,-9.083276436382345387e-02
-9.563911491790641484e-02,-8.819968115556704902e+00,-1.001846626514348443e-01
-1.042622341345757209e-01,-8.812233480480099246e+00,-9.701841702266737755e-02
-1.036618221891840858e-01,-8.808086066936997582e+00,-1.050689562259105592e-01
-9.262925307292232957e-02,-8.823116206143309270e+00,-9.943737085281080523e-02
-9.236164909990675354e-02,-8.814392889802403985e+00,-1.005170503176027186e-01
-9.271596091501452253e-02,-8.817723388292982634e+00,-9.364559286802603966e-02
-9.569836191849692697e-02,-8.813408863455903131e+00,-9.787000707497518770e-02
-9.725438791519440407e-02,-8.817156143188437767e+00,-9.612095761885797174e-02
-1.017590398840038796e-01,-8.818003756074119792e+00,-1.016203479715739322e-01
-1.001824355113154347e-01,-8.818207244135892964e+00,-8.888658904432410190e-02
-9.557291783044909173e-02,-8.820307832440223095e+00,-1.006519076057084683e-01
-9.482443401292341145e-02,-8.806575769339687554e+00,-1.003399603410440460e-01
-1.039272788919027302e-01,-8.816140856819643545e+00,-9.159494661073143418e-02
-1.013334569958309617e-01,-8.805015390837318989e+00,-9.422621480627599300e-02
-9.238744382902483454e-02,-8.819901712979920205e+00,-9.850619676114186207e-02
-1.068174463309638500e-01,-8.814498148700572244e+00,-9.833681944929725804e-02
-9.946772231700151679e-02,-8.813043070986385175e+00,-9.984224744224332038e-02
-9.015761143765073371e-02,-8.814238167912284538e+00,-1.014699850225311423e-01
-8.801326563486974730e-02,-8.812612367977784800e+00,-1.007683204061425031e-01
-9.335786435446292997e-02,-8.814876839079557769e+00,-9.101107849503216329e-02
-9.680463947983741768e-02,-8.806984697183711575e+00,-9.056762320884104156e-02
-1.070169073088235029e-01,-8.816742255878516232e+00,-9.237113942687548429e-02
-1.003092582709503577e-01,-8.821677440009423776e+00,-1.038105559593220650e-01
-9.356660264419022766e-02,-8.819551370186397676e+00,-9.926490701437788722e-02
-9.295336505730023013e-02,-8.820544948926981377e+00,-9.813425944060535921e-02
-9.575036690873264811e-02,-8.817570144900180651e+00,-8.553505378663456282e-02
-9.019796077071268181e-02,-8.817705783177849810e+00,-9.399238300149413694e-02
-9.486406785042673928e-02,-8.825224283639766298e+00,-9.600173604751556511e-02
-9.452356572675255086e-02,-8.813105493094779419e+00,-9.680032101521897359e-02
-9.995395571652908318e-02,-8.816379892775861649e+00,-9.201339272178922501e-02
-9.908069737409791466e-02,-8.816819180173375514e+00,-1.012575158944379466e-01
-9.210018882719531175e-02,-8.817378486824059891e+00,-1.007847355724929700e-01
-1.009627081187173814e-01,-8.817670811864187996e+00,-9.131428274468077200e-02
-9.216081497441630521e-02,-8.812882206137677699e+00,-1.054593196578591657e-01
-9.168533471497151977e-02,-8.822835174863733698e+00,-1.014670886249238457e-01
-9.839524895096278534e-02,-8.826339710370815439e+00,-1.006665246341954673e-01
-1.004932206333067762e-01,-8.825411134599702834e+00,-9.870336467763152211e-02
-9.693815117899107214e-02,-8.814021057785559776e+00,-1.068330602020208797e-01
-1.006602887180928774e-01,-8.804729882320851075e+00,-9.339778258910995390e-02
-9.545865138350510815e-02,-8.808924048123344619e+00,-1.061775740616953817e-01
-9.725232972568514933e-02,-8.816338297198520024e+00,-9.160617166097524688e-02
-9.675345871489943184e-02,-8.807858084688168887e+00,-1.062013755735350534e-01
-9.833641661265614398e-02,-8.815069184751425979e+00,-9.778650316390909147e-02
-9.535438724774165931e-02,-8.820634106331453950e+00,-9.829439363951431030e-02
-1.030214909032637349e-01,-8.822393313342081100e+00,-9.273157428487839582e-02
-9.535950774546606001e-02,-8.811257113180872125e+00,-9.496806856170295075e-02
-1.046152508712490520e-01,-8.813149016776032241e+00,-9.817955320704324640e-02
-9.639938744300542706e-02,-8.816633097640433903e+00,-9.105006708303277352e-02
-8.646036234551372768e-02,-8.817062696256954268e+00,-8.956848365510611254e-02
-1.001822117913311189e-01,-8.808462045979791100e+00,-9.753672532665681738e-02
-9.190354598064714997e-02,-8.810529553457907781e+00,-9.603199325815282850e-02
-9.453045139531346397e-02,-8.816999122894110030e+00,-9.363246101760823448e-02
-1.049662656675812017e-01,-8.809775512813198262e+00,-9.636781197374214014e-02
-1.011620105408746473e-01,-8.817223311972263389e+00,-9.747789210610857680e-02
-1.027369678541640297e-01,-8.818185639835412815e+00,-9.441253700634202883e-02
-1.013183398038329519e-01,-8.802864703135139024e+00,-9.345556566172899537e-02
-9.772334297529366998e-02,-8.811640975408469245e+00,-9.318554584609126112e-02
-9.301801825091042530e-02,-8.805339434360481832e+00,-9.823083800417586886e-02
-9.608978888339313185e-02,-8.812081820492727147e+00,-9.616004778324861724e-02
-9.874478812813743123e-02,-8.819415420211928591e+00,-9.063895361655388561e-02
-9.012338331375607803e-02,-8.810274369843874354e+00,-8.924667313628947829e-02
-9.887518251339554032e-02,-8.817469078645803648e+00,-9.812217447291277095e-02
-9.855939476760169904e-02,-8.814053987084303543e+00,-1.003763860419275011e-01
-1.022670242105688521e-01,-8.810060102280489858e+00,-9.740537194384339681e-02
-9.504507205263675040e-02,-8.812458525621131855e+00,-9.187312722603871440e-02
-1.000553218261603927e-01,-8.816680322065828079e+00,-8.902007866473196640e-02
-8.740803297598714883e-02,-8.812800583728977344e+00,-1.017938007635231928e-01
-9.938272595888041072e-02,-8.810054509934069245e+00,-9.123768320652302088e-02
-9.971427079168564134e-02,-8.812647090643499936e+00,-8.697645933853254130e-02
-9.829727657027480248e-02,-8.818823463006399521e+00,-1.013324226017364160e-01
-1.050711197934343782e-01,-8.815905476345996306e+00,-9.966645089702684535e-02
-1.015237744722266022e-01,-8.819568438525996257e+00,-8.957224140118663636e-02
-9.983576890033786511e-02,-8.814488234471880901e+00,-9.985569651277799441e-02
-8.963695271261248876e-02,-8.813556815936655298e+00,-1.006741359033033190e-01
-9.885224807841166972e-02,-8.820291473463532483e+00,-9.395920149146259892e-02
-9.980841255271341583e-02,-8.811736037992691450e+00,-1.007565182109106949e-01
-9.815094321046070880e-02,-8.818710743321583223e+00,-1.075562973122048543e-01
-9.467794888114679230e-02,-8.815156037676942447e+00,-1.018377914426591840e-01
-9.414746568683170225e-02,-8.802783640980090141e+00,-1.036344311304013832e-01
-9.290694781798299051e-02,-8.815633845661130508e+00,-9.945775739313925112e-02
-9.274770547115950003e-02,-8.806609733467416490e+00,-9.299364068171915576e-02
-1.004568177040886523e-01,-8.813249255624469924e+00,-9.665095550106486688e-02
-9.760294010194223158e-02,-8.822041498395641668e+00,-9.177354103532524288e-02
-9.779038197234042606e-02,-8.809099990415909076e+00,-9.576409439345619223e-02
-9.619982821625498726e-02,-8.817704526017440259e+00,-9.580677974069229386e-02
-9.805348480460776561e-02,-8.813116788477262986e+00,-9.439852577400102696e-02
-1.089037402378676828e-01,-8.813934686627371562e+00,-8.977509912185073493e-02
-1.027368024163219234e-01,-8.826041440339730926e+00,-8.546311107957885178e-02
-9.357916270952781890e-02,-8.809286268018574617e+00,-9.925169339737001384e-02
-9.990392548193144373e-02,-8.814999354824470501e+00,-1.066845453959501810e-01
-1.027687747864241274e-01,-8.817873907001887446e+00,-1.015767625870764579e-01
-9.740717124881304034e-02,-8.812263793308241944e+00,-9.500340490190818665e-02
-9.495872124495159661e-02,-8.818190510160466289e+00,-9.771850828438377601e-02
-9.418981249829574964e-02,-8.816704452290929694e+00,-9.437665677778352136e-02
-8.919068925338001497e-02,-8.810101387631416259e+00,-9.528767145513437897e-02
-1.017988595740207808e-01,-8.813112488531146482e+00,-9.925129611399841068e-02
-9.679131026381138092e-02,-8.815062745256588173e+00,-9.812566568216916918e-02
-9.926135971673899494e-02,-8.808493012845680425e+00,-1.047706825390338492e-01
-1.036215363372417486e-01,-8.817712235572585655e+00,-1.022102818208268926e-01
-1.037345045655605202e-01,-8.817064133987646102e+00,-9.965051348844830570e-02
-9.562850488683757866e-02,-8.815986520157959916e+00,-9.355313829853867391e-02
-1.036843071096220370e-01,-8.820791851524417027e+00,-1.079316132772832615e-01
-8.963172351146600492e-02,-8.818649771713459984e+00,-9.731738680056144231e-02
-1.046608322649050793e-01,-8.813127696216891849e+00,-1.017334126389022320e-01
-8.285304659075749811e-02,-8.813542333674751816e+00,-9.889441604689834520e-02
-1.008622271499986511e-01,-8.816842475773160714e+00,-9.464543515334290780e-02
-9.708534440409334609e-02,-8.809817372661104429e+00,-1.064712925646092712e-01
-9.983108402098471446e-02,-8.813841456966276411e+00,-9.127835443513104829e-02
-9.618018829743299469e-02,-8.812835659333179805e+00,-8.946089484628272359e-02
-9.527907079714190153e-02,-8.819094689260237985e+00,-8.769933400488001685e-02
-9.372366371137619279e-02,-8.816978116439448954e+00,-8.870952888775054945e-02
-1.028265972100146086e-01,-8.809109429566740701e+00,-9.683997454047971187e-02
-1.040758762563123024e-01,-8.822711314602363686e+00,-9.336033712419630759e-02
-9.706640163768781582e-02,-8.815952901902406325e+00,-1.027297833876196220e-01
-9.786009867001405071e-02,-8.811163246754071920e+00,-9.803699369674248598e-02
-9.152884508317676859e-02,-8.812542562079697106e+00,-9.973283275991373653e-02
-9.539618313932186899e-02,-8.816653126666389895e+00,-9.896217931393300193e-02
-9.206438291612654978e-02,-8.818852296997093276e+00,-1.018711724457395384e-01
-9.583844937732353964e-02,-8.813902085029202027e+00,-9.231784990894971454e-02
-9.997183013466819090e-02,-8.811208088786875336e+00,-1.055216490838798565e-01
-9.502677022867705992e-02,-8.807902662607490996e+00,-1.007674458404645840e-01
-1.020979728862091290e-01,-8.808502107789388802e+00,-1.051376735828646325e-01
-8.894370320241135053e-02,-8.815421149299456971e+00,-1.016226893493805961e-01
-1.027948705347966202e-01,-8.815306142334739192e+00,-9.493561512977763406e-02
-9.996634509902616039e-02,-8.815452359669441407e+00,-1.006098093364560381e-01
-9.560675169237106696e-02,-8.817399144096311758e+00,-9.331372304894400282e-02
-1.015090022174080647e-01,-8.807528603624870556e+00,-8.949800541650278218e-02
-9.741171817348283357e-02,-8.816002254399769811e+00,-1.060459484238684968e-01
-1.060605151473362762e-01,-8.822163578769291803e+00,-9.857239626815475497e-02
-1.079333010396824749e-01,-8.811439645488249539e+00,-9.041556819226606589e-02
-9.951880572202564945e-02,-8.808522439291186501e+00,-1.005606704603270035e-01
-9.145577922143934002e-02,-8.815977881096356938e+00,-9.409112114860537779e-02
-9.652668640917316800e-02,-8.816848941221572034e+00,-9.772696565981381367e-02
-9.466528626722024720e-02,-8.808869004740234487e+00,-9.137714612380898327e-02
-1.031613984248979099e-01,-8.811148203998243389e+00,-1.008934633199257830e-01
-8.826311172981640696e-02,-8.820878697648181443e+00,-9.987461966815330827e-02
-9.603304717440608318e-02,-8.823478219096715591e+00,-9.981798820605572442e-02
-9.739455882536028619e-02,-8.810465118777708327e+00,-9.187123260145076131e-02
-8.993312901169960016e-02,-8.817539821850456150e+00,-9.526372038154407029e-02
-1.028797500363534539e-01,-8.810802504796519941e+00,-9.855857352969663032e-02
-8.768352298256765209e-02,-8.818746781540593105e+00,-9.554882089610082507e-02
-9.453560965533222560e-02,-8.822186941926529968e+00,-9.161661598110173998e-02
-9.617525983620361929e-02,-8.809457409305192499e+00,-9.910671646207881713e-02
-9.557301054925289308e-02,-8.816399798513334218e+00,-9.367747085874020274e-02
-1.012895046042400216e-01,-8.814672743693540369e+00,-1.003251788979095671e-01
-1.039253395245588046e-01,-8.814570899554356131e+00,-8.985425155000527353e-02
-1.011698572263847185e-01,-8.807009038313266203e+00,-9.411856949178548648e-02
-1.052620039161587667e-01,-8.812351136902357496e+00,-8.804883595346083003e-02
-9.522960984250367078e-02,-8.821378586537452549e+00,-9.865506300609631907e-02
-9.732921705982115756e-02,-8.820316238216046045e+00,-1.027705541097120867e-01
-9.889380860167122644e-02,-8.817786507106692540e+00,-9.872745179172866259e-02
-1.003527816188407445e-01,-8.822587564814071470e+00,-9.830240423777565628e-02
-1.030666413025392858e-01,-8.814686616928181451e+00,-9.860473413350780147e-02
-9.946310505373230637e-02,-8.810322417112681492e+00,-1.045375210224538665e-01
-9.430229364330715291e-02,-8.811370717772849304e+00,-9.265376971526943783e-02
-9.503600486647496848e-02,-8.812468555946511017e+00,-1.031368624116070776e-01
-9.230426864492978500e-02,-8.813712397110739616e+00,-1.014340456669106660e-01
-9.719174817199759120e-02,-8.815036419635511322e+00,-9.729768907669268663e-02
-9.174401719043609460e-02,-8.816168021420613954e+00,-9.315345878227575260e-02
-9.407058853705108081e-02,-8.812366467291328220e+00,-1.056990159308687643e-01
-9.448003359225605469e-02,-8.821925698723619647e+00,-9.701379112692318230e-02
-9.687422391822410328e-02,-8.816255587915797776e+00,-9.760650756254506122e-02
-9.723704787371055536e-02,-8.823313832871543028e+00,-8.958630851736069933e-02
-1.038041165064540056e-01,-8.814696847924997414e+00,-9.996792051599709406e-02
-9.702563552310511374e-02,-8.811306230144566598e+00,-9.782359109358082505e-02
-9.814319342912550259e-02,-8.812413763286485846e+00,-1.040626957724988672e-01
-9.959978249697040709e-02,-8.811503058685339340e+00,-9.306584736703900351e-02
-9.417311843130135585e-02,-8.821949533907686103e+00,-9.586036418925497626e-02
-9.338469682278251194e-02,-8.814516713726620267e+00,-9.892105969386395803e-02
-1.071747142488910925e-01,-8.819601864846267958e+00,-9.794037387292803265e-02
-1.046402384841646216e-01,-8.810031808403870457e+00,-9.654295650585605071e-02
-1.058432000603347078e-01,-8.809666322615514744e+00,-1.001335908056601165e-01
-1.010056461270085471e-01,-8.809489053133960468e+00,-1.001482461495491055e-01
-9.064116709103310632e-02,-8.815488890100329655e+00,-9.086633668800592201e-02
-1.031124642499668953e-01,-8.815088527373292848e+00,-9.223929830202962088e-02
-9.935220318192652944e-02,-8.807000753945693816e+00,-1.006972953661275233e-01
-1.008902271912322651e-01,-8.813601798781894203e+00,-1.012152445180780347e-01
-9.596587325720051798e-02,-8.819474476090698900e+00,-9.897244159443571720e-02
-9.655363178372812494e-02,-8.809143093648200917e+00,-8.704129201536084381e-02
-9.546316166541433945e-02,-8.818357180573904941e+00,-9.148216808151840573e-02
-9.957891990571923757e-02,-8.817998242397775854e+00,-1.042853946764480122e-01
-1.017475611977054217e-01,-8.816029692864297829e+00,-9.437290255917955839e-02
-9.119162547460282764e-02,-8.818091866941450974e+00,-9.464770042116656124e-02
-1.078191123348683639e-01,-8.817651894567237747e+00,-1.079067942558324528e-01
-9.684095134146747386e-02,-8.809654554196544751e+00,-9.460284024011847426e-02
-9.580965255255255442e-02,-8.812641179146460502e+00,-9.560953541875616413e-02
-1.063025886457333036e-01,-8.806105386160879789e+00,-8.948948600573820855e-02
-1.010485064609572270e-01,-8.811053398039923934e+00,-9.507361163277440463e-02
-8.976280058200226952e-02,-8.812887504325541244e+00,-9.591447024294498525e-02
-9.857578457451536547e-02,-8.828511282638730862e+00,-9.972335767809242801e-02
-9.141331119323840848e-02,-8.811256693499048609e+00,-9.479046241709677967e-02
-9.377727199374019662e-02,-8.820775105487921763e+00,-1.091486113875199948e-01
-9.425537113066451145e-02,-8.804734676218812339e+00,-9.643971401500181506e-02
-9.299837189251719538e-02,-8.817924874269222002e+00,-9.282844004892154555e-02
-9.556184991306156118e-02,-8.822444496503052846e+00,-9.684438453326800478e-02
-1.027595601015081350e-01,-8.822048053357596231e+00,-1.019623773548188894e-01
-9.657963826174860433e-02,-8.809160049336755449e+00,-9.144969093253021986e-02
-9.986427021894851708e-02,-8.811389892028556048e+00,-9.866219072462861783e-02
-1.015685423142648758e-01,-8.817529433139462469e+00,-9.758306094488550242e-02
