gyro_x (deg/s),gyro_y (deg/s),gyro_z (deg/s)
5.236398626106651966e-01,4.447182094705937061e-01,4.779360007016255074e-01
4.219300643805172779e-01,4.913732036109970114e-01,4.732261187822341397e-01
4.675311629454650397e-01,4.678947448967852307e-01,5.114799352992944748e-01
5.166307230523384808e-01,5.061089316767188873e-01,4.922950514869698369e-01
4.470651382129349760e-01,4.655630567667901620e-01,5.052689148097568861e-01
4.668781214665453927e-01,5.255551352029672607e-01,5.798242937116518947e-01
4.378846430563584358e-01,5.390806726343378985e-01,5.064925536758337898e-01
4.960315275049599348e-01,6.025307049926652558e-01,5.185651316440095249e-01
4.381520820172424835e-01,4.789896730815248471e-01,5.114971670506858192e-01
5.213656740852240512e-01,4.900127910853172009e-01,4.241397579731668865e-01
4.783585010626064116e-01,4.653795309001492742e-01,5.351745438789412557e-01
4.495820171368762885e-01,4.269810019411967583e-01,5.115064300463789682e-01
5.133341220590699194e-01,4.980750052106113213e-01,4.630777024242765383e-01
5.623011871600802625e-01,4.476836661368598924e-01,5.295288568755130987e-01
5.504071720131018530e-01,5.037713891617007222e-01,5.367420365764649093e-01
4.891203070945477904e-01,5.037889064967800978e-01,5.667789468985870993e-01
4.904832069903030667e-01,4.908351512268508410e-01,4.643392316222759719e-01
5.268566976288638903e-01,5.268615092448701853e-01,5.451083975231573175e-01
5.429631875424524301e-01,4.496272746167701007e-01,4.946744795621505486e-01
4.488053134447064219e-01,5.327124836487301396e-01,5.134774661078090885e-01
5.056963761246123790e-01,4.203946235767355155e-01,4.526418430691742101e-01
4.928163767126954586e-01,4.523244232886823868e-01,3.781499720896692729e-01
4.396623250896035673e-01,5.999406369826786323e-01,5.167156955467024915e-01
5.018128452232168968e-01,4.485182940152989128e-01,4.468529256771012204e-01
5.192928261552181013e-01,4.744585926311061796e-01,5.116733861222021451e-01
5.376078305690583647e-01,5.233513403903816696e-01,4.749581039848324027e-01
4.278485227678430758e-01,4.595602429130528632e-01,5.579608297180997933e-01
4.938924015353363672e-01,4.696819019397066586e-01,5.395152489159694698e-01
5.452115550257072840e-01,5.537265311336794227e-01,5.247390543206049696e-01
5.446319121407310337e-01,5.473712589685838514e-01,4.395719847666203495e-01
4.478024855416021244e-01,4.958425630151865326e-01,4.828650174582123644e-01
5.358344547278678371e-01,5.968452228495828571e-01,4.323707036171714480e-01
4.789023968193735215e-01,5.815461689494284547e-01,5.020937162631097239e-01
5.097875211663266404e-01,4.350211014936269938e-01,5.404425690248304548e-01
5.368766195374434780e-01,5.580546280067070208e-01,5.151911146296290767e-01
5.207505780608618906e-01,4.816084457088560811e-01,5.178212527285130928e-01
4.382719114409587835e-01,4.934341957470921303e-01,5.230478256418593652e-01
4.688880840242645731e-01,4.647813818338824010e-01,5.574640222382114541e-01
4.716433103655306991e-01,5.292249989889730166e-01,4.901061512095717942e-01
4.458573666181932516e-01,5.874621336911468594e-01,4.923463180377329329e-01
5.185963290554880256e-01,5.313123686116090205e-01,5.012101315912325106e-01
5.470891506962221040e-01,4.840909556525995194e-01,5.420488537734087231e-01
5.238259368847939523e-01,5.011785327881516094e-01,5.543508370527391316e-01
4.677305148940057444e-01,4.522261391302953570e-01,4.388141914261549648e-01
5.068813836807458673e-01,4.891115627954790712e-01,4.618148223657911333e-01
4.983750368158405553e-01,5.139706661450099690e-01,5.637225781963537408e-01
5.863092005101381288e-01,3.971083867017853319e-01,5.708788253661657430e-01
5.802789299991478744e-01,5.219992265793377273e-01,5.299141111213996336e-01
4.276075089753695324e-01,3.818285805752832940e-01,4.162771840211025309e-01
4.747427760188834833e-01,5.251661792021556918e-01,5.115887612329581557e-01
5.047916997333241618e-01,5.212164264026007965e-01,5.210740143948837666e-01
5.462856446720754100e-01,4.571319080050533779e-01,5.170258936703773234e-01
4.944012824781174320e-01,5.368011572972017920e-01,5.211670706803605002e-01
4.761132472336039312e-01,5.948469532761899714e-01,5.047457850350089981e-01
4.776080927583419289e-01,5.355512057339929521e-01,4.953587367179542178e-01
4.524352638717807351e-01,5.132002852665629167e-01,4.853409061790326384e-01
4.620583085019653868e-01,4.404985609833967364e-01,4.938629446417450719e-01
4.206809488008002584e-01,5.095833389635060495e-01,4.469194715667660356e-01
5.153841380979374831e-01,4.845547012931397113e-01,5.071861596732105681e-01
5.768772961452701686e-01,4.932239668712104508e-01,4.807911708139831486e-01
5.588683036186580244e-01,4.917484493366919840e-01,5.264454128863105264e-01
5.596066220612894160e-01,5.001512579886319143e-01,5.252682342920115266e-01
5.003853575438348411e-01,4.986817637242176859e-01,5.046720562781431552e-01
4.723529110615249937e-01,4.673845420047383348e-01,4.729008318432531000e-01
4.720424631157877915e-01,5.880466689989253259e-01,5.237605988770650534e-01
5.208682812475770030e-01,4.674230728678905322e-01,5.167637523594992288e-01
4.976503829524574485e-01,5.389725724989077316e-01,5.265821016661024201e-01
4.858472723995850839e-01,5.510680606178517404e-01,5.411235650508700035e-01
4.882786054154711342e-01,5.524917566746798681e-01,5.096782010616500713e-01
4.951453626041719125e-01,4.912344554696194687e-01,4.643783549781459463e-01
5.256692153054645100e-01,4.689000553481642575e-01,5.348453625051667881e-01
5.040795666555509813e-01,5.392192714594060687e-01,4.443846623117150285e-01
4.968237549194446379e-01,5.555512401929066924e-01,5.644604620041444587e-01
4.797996434833674551e-01,5.136056785509584000e-01,5.286477787906902481e-01
5.242317648904876171e-01,4.681256857716092901e-01,4.892600663341159506e-01
5.131483104329517264e-01,5.424181167646946466e-01,4.850954581627703877e-01
4.723286837653974946e-01,4.846536080523095036e-01,4.824363928461388173e-01
5.629529422304645481e-01,5.379568914337508057e-01,5.727526140473351290e-01
4.633500661837460233e-01,5.552746169882336602e-01,5.610142160381338394e-01
5.262378706356378721e-01,4.716212636147613102e-01,4.639175223856032426e-01
5.028178565134814315e-01,3.983259982326048942e-01,5.704576558628982053e-01
5.405516664028113816e-01,4.481897383569575233e-01,5.438702100400644168e-01
4.852442856279994832e-01,4.142655631646254832e-01,5.726457282403826232e-01
4.939233230871348246e-01,4.835421627711166126e-01,5.258601110183867000e-01
4.982326156449849996e-01,4.847702707255073795e-01,4.262014483371903695e-01
4.984951770875219457e-01,4.601037725524365629e-01,5.723699576863839900e-01
4.313134511879637145e-01,5.274986691967098462e-01,4.476496263243555651e-01
4.889125164249222277e-01,5.277901211534087311e-01,5.705552110115150732e-01
5.358439919990745093e-01,5.057152164827555252e-01,5.103835881200976532e-01
5.417521391360233807e-01,5.132949769847537924e-01,4.691843719763396092e-01
4.878154448080487260e-01,4.790129429486281731e-01,5.732387288302761563e-01
4.336028541660100766e-01,4.551990624616366610e-01,4.895924130098884830e-01
4.426642324018709163e-01,4.994332286107994734e-01,4.916916845448566775e-01
4.149229967231518601e-01,5.432944246214578277e-01,4.959368081690939678e-01
5.208763383438428374e-01,4.643028068560576815e-01,4.782469046146219371e-01
4.328481786225831796e-01,4.717354450512120656e-01,5.243232531689525633e-01
5.204370491797638554e-01,5.799710273298662733e-01,5.014907514494646446e-01
5.061637512890725388e-01,4.633009343572228600e-01,4.582623391491806863e-01
4.979111891025599923e-01,5.447074812024251811e-01,4.545445480793439130e-01
4.853241627042279571e-01,4.998700910365857508e-01,4.746078692118503861e-01
5.025254680935401508e-01,4.823727242103666990e-01,5.466148327720644629e-01
4.476851330905701198e-01,5.346658030844289033e-01,4.883689023282831165e-01
5.277484370166131145e-01,4.648290923527620411e-01,4.697302443312041387e-01
4.551779675089319688e-01,4.882795313866754028e-01,4.803377975721527249e-01
5.159674204943752729e-01,4.156097394146709423e-01,4.745502254973433809e-01
5.718679115263706203e-01,5.009992075490232732e-01,5.527499217936414633e-01
4.693148585684659979e-01,5.034819384896312977e-01,4.169063838483981210e-01
5.479978935371965232e-01,5.460896822382935722e-01,5.513266272135034507e-01
4.885220856730639327e-01,5.893251212937795636e-01,4.726582557862433753e-01
5.460209861685292321e-01,5.742374814178188291e-01,4.154572621350556827e-01
5.600395137759546227e-01,5.095855097823619451e-01,4.946490329494556693e-01
3.803941493303337196e-01,4.583104911468059428e-01,5.060042459801122883e-01
5.051472159384805538e-01,4.940488882174808860e-01,4.637481105907662604e-01
4.782928424354304098e-01,4.401575410262977273e-01,5.361306537864294341e-01
4.513449089890795851e-01,4.956951302774973978e-01,4.839567128059444334e-01
4.533611596580557901e-01,4.643408201337342334e-01,4.407354533163333477e-01
5.184136021693130925e-01,5.389382425905880902e-01,5.168405695406372846e-01
5.774836976677893974e-01,5.683075335285647789e-01,4.985911710452240464e-01
5.475094358492829105e-01,4.618320287413500980e-01,4.949961568446261118e-01
5.165846738528661053e-01,4.793176595564934694e-01,4.893465421357716671e-01
4.477472354434468560e-01,4.504444254769367495e-01,4.674679290773606222e-01
4.673714964781699455e-01,5.226839556092950367e-01,4.844657440903768486e-01
4.442100093624991586e-01,5.107967196322803494e-01,5.123433398695079743e-01
5.325268017172779533e-01,5.364552543052150124e-01,4.900996575974533309e-01
4.699588245139639797e-01,5.159869379767136888e-01,5.539997283532950290e-01
4.364644663815895886e-01,5.253087856952090018e-01,4.945115612820673578e-01
5.384101937578018582e-01,4.613621781204892969e-01,5.318013342984528879e-01
4.573432757129862747e-01,5.534348790464598267e-01,5.341864933886122380e-01
5.208686169621938866e-01,4.947122128351571502e-01,4.700475087087245263e-01
4.826835006064218447e-01,5.687104239495953673e-01,5.268663316058819213e-01
5.335149187049881281e-01,4.785778261466159811e-01,5.073369944753408634e-01
4.789987182884577477e-01,4.182200927106477506e-01,5.319614769033627066e-01
4.740561315596634184e-01,5.512908908647312645e-01,4.897863184220495603e-01
4.995206665716224181e-01,4.403775435057040166e-01,5.028305602706525379e-01
5.765039524434425466e-01,5.597410962837570114e-01,4.836855484902276014e-01
5.076590449780780112e-01,4.609539680370314252e-01,5.139369873006289779e-01
5.776155167502832199e-01,5.723607571669560024e-01,4.996503770007911793e-01
5.772043360697284298e-01,5.009099571920874183e-01,5.050075450109012820e-01
4.965438507613721963e-01,5.216801024004532605e-01,5.398709831897474665e-01
4.679388260097816499e-01,4.704728972127313891e-01,5.134587365991040153e-01
4.757596790370071105e-01,5.013185512036812952e-01,5.473342565275332028e-01
5.239287470547739911e-01,5.086074160325609883e-01,4.861448110536180089e-01
5.606215091710951004e-01,5.412241931446045706e-01,4.698915282069709987e-01
5.142906521326239266e-01,4.498293295737557651e-01,5.216746189989746041e-01
5.238764687908548101e-01,5.276125416444580329e-01,4.885418571903814566e-01
5.842513333644567819e-01,5.238003844935444908e-01,5.623014666815021600e-01
5.542808332569730823e-01,4.642486021378820493e-01,4.676002403159938425e-01
4.924172632575107289e-01,5.840996666353068800e-01,4.894851274268856578e-01
4.467130656078662776e-01,5.536351507715630005e-01,4.841062762448045120e-01
5.781196749188235451e-01,4.729145676305634982e-01,5.677407746015713519e-01
4.735879340109430680e-01,4.965108662620087987e-01,5.269083096653109921e-01
5.163484398279687415e-01,5.167098490235089159e-01,4.721718579124484783e-01
4.355556644523236876e-01,4.393048413156769860e-01,4.833561529271962476e-01
4.454500253133947818e-01,5.052190784228491882e-01,5.302788634268883472e-01
5.155613775786853648e-01,4.532860930694583290e-01,4.595330283105895086e-01
4.393972762901378615e-01,4.074015479406349338e-01,4.994730042769273681e-01
4.970547225539800329e-01,4.497674466034812801e-01,4.777608841305545084e-01
4.291562785510627531e-01,5.222933854712880075e-01,4.714847299825479787e-01
5.274768798374357415e-01,5.283859274520905647e-01,5.373159556968960526e-01
5.126514254108595070e-01,4.942224241907930415e-01,5.737843150122000635e-01
4.758091697988043878e-01,4.618047446928918998e-01,4.695061583501160540e-01
5.912184051533501128e-01,4.702329061650753483e-01,5.773384687042122376e-01
4.246896123811637058e-01,5.370328853177835926e-01,5.560403556491374522e-01
5.244676619048223021e-01,5.346922155654643127e-01,5.843262788439317346e-01
5.474314949080328896e-01,4.875171013277134757e-01,5.200399534629130960e-01
4.921494055855976102e-01,5.889982601787558947e-01,4.653939721307328026e-01
4.975036383540528129e-01,4.610798804633637338e-01,5.029771572086868536e-01
5.607346537277975163e-01,5.057509808844181665e-01,4.752436127188870985e-01
4.733569534144439483e-01,4.927806495980157631e-01,5.140730483285571584e-01
4.550843731261566272e-01,5.592342448707162683e-01,4.878825801526709416e-01
4.470436571480531640e-01,4.166833692516438425e-01,4.345782494144801444e-01
5.045114154078221835e-01,4.698626359266253605e-01,5.078860272643925811e-01
4.866637268677382888e-01,4.646629307140242027e-01,4.847723598575549020e-01
5.304937310512821691e-01,4.523306586035777399e-01,5.010532850253469617e-01
5.645752625621220933e-01,5.140096330438400640e-01,4.536378142690056237e-01
5.210236126055340922e-01,6.090821152277537953e-01,5.094402950286125442e-01
4.263821926545576790e-01,5.285567070206629303e-01,4.870306124607053366e-01
4.395546465118158608e-01,4.718223405452953712e-01,5.448727593576134787e-01
5.465586702418588905e-01,5.310053048556128141e-01,5.343296470000041820e-01
4.666822233932957920e-01,4.770334507443166894e-01,5.324735064762811110e-01
5.473176267779978899e-01,4.346732123711444240e-01,5.508953791515464049e-01
3.917014753741208111e-01,4.414876429104461764e-01,5.242960510836736088e-01
4.353137894525746510e-01,4.921877628194708532e-01,4.941949151085706649e-01
4.815330759735215738e-01,5.850365369171136587e-01,5.242934701793685592e-01
4.702068514684859535e-01,5.135556919100866535e-01,5.352726747830526266e-01
5.630490041995750428e-01,4.927643306704874715e-01,5.461687849822534080e-01
5.253250928939626752e-01,5.678551090428407555e-01,5.300108538031454986e-01
5.180393727725420838e-01,5.096632176875449671e-01,5.096155699458688737e-01
5.511488845938588010e-01,5.161798826116217320e-01,4.954336068504290314e-01
4.949655420150774199e-01,4.753063864192039190e-01,5.835186978250087586e-01
5.543471888659021740e-01,5.471175892984669886e-01,5.484570946268332303e-01
5.220727689540529681e-01,5.585718304140476764e-01,5.452571497480021012e-01
4.857313936100343121e-01,4.704525935980059526e-01,5.213476163712585931e-01
4.471099004717609127e-01,4.615902606815796005e-01,5.109108964899581329e-01
4.723223662597538230e-01,4.739209808250390843e-01,5.454150129491774912e-01
5.255920401985781920e-01,5.021576353294422423e-01,5.429470974880599154e-01
5.403805363570837184e-01,5.664316662291283277e-01,5.156644916793178268e-01
4.928115733564654155e-01,4.552056660507657893e-01,5.221365044548124112e-01
4.653149860609888666e-01,5.879423962767429401e-01,4.652354879617963124e-01
4.444922465471526918e-01,5.194484757313722056e-01,4.145912969170716389e-01
5.581829985810451422e-01,4.949026870591821670e-01,5.514149888130586152e-01
4.829486486074311968e-01,4.726286674393893050e-01,4.872953656376067810e-01
4.856438139783115226e-01,5.076188826349171679e-01,4.579006494994000698e-01
4.606300972389025250e-01,4.719702612276209241e-01,4.972225931835249080e-01
5.164244216185521763e-01,4.903544999984196795e-01,4.808384514011859734e-01
5.042630425130806282e-01,4.845881650169353572e-01,5.784395045029492310e-01
5.382544130062580923e-01,5.019402661785127284e-01,4.603963033654209225e-01
5.366141586453958556e-01,4.850002506323522478e-01,5.933668378217091810e-01
4.776343084499162783e-01,5.068724142555772749e-01,4.582666372303182412e-01
4.973323133774099625e-01,4.669752758137340476e-01,4.889798519367281604e-01
5.074728393275846905e-01,5.191518329174213964e-01,5.113266967770231375e-01
4.873328153582935363e-01,4.618169582412103291e-01,5.150983945149465448e-01
5.387624671172147606e-01,4.679408019203076252e-01,5.041638553220022523e-01
4.368994914263494289e-01,5.431616814649187219e-01,4.136921363437847665e-01
4.755777011751671779e-01,4.713759101929879125e-01,4.258045589031985156e-01
4.865230566085743114e-01,5.642158330973165992e-01,5.289969751476297777e-01
4.811070784470590223e-01,3.959107600090427392e-01,4.548587528110566436e-01
4.827839295752925364e-01,4.090494111242767294e-01,5.059521897709425842e-01
4.847666347069249371e-01,5.145116152592266179e-01,4.336552955912310603e-01
5.117498076824114062e-01,5.453222940863802215e-01,5.581646897663177231e-01
4.387058494655805552e-01,5.066413246316039398e-01,4.673149898016057402e-01
4.659204537181230732e-01,4.614391769183946446e-01,5.171479486666601399e-01
4.624546663509784827e-01,4.844929374795299282e-01,5.233879548081280531e-01
5.176491705437051838e-01,4.726011941642214720e-01,4.987923052272563162e-01
4.295339790483249098e-01,5.593310840622923719e-01,6.092383337058437931e-01
4.954607939259803029e-01,5.039343120595045633e-01,5.233858872247840743e-01
5.074731392079956382e-01,4.793685858164187241e-01,5.608112424995799206e-01
4.997174724835187209e-01,5.431932521439345463e-01,4.731175906841630918e-01
5.196021940593039679e-01,5.175900000521312938e-01,5.256760481655632367e-01
5.520610077855682141e-01,5.337312631661509377e-01,5.260573964356697330e-01
5.480933640435852183e-01,4.583362048064215100e-01,5.229141206133424147e-01
4.503796609745384094e-01,4.741732034624169256e-01,5.760362506203119404e-01
4.582551793963871023e-01,4.973750767450136889e-01,4.587520827447008620e-01
4.862956006279894883e-01,4.453124110146761128e-01,5.981888795143984749e-01
4.573695152070436643e-01,5.025699561676767457e-01,5.246300482110330954e-01
4.547638698860642092e-01,4.597275856030119123e-01,5.246956195322406424e-01
4.994632764457234142e-01,4.888285125115098828e-01,4.783625548116484660e-01
5.936927527392888981e-01,4.563281965261460349e-01,5.375303715721453379e-01
4.753779777795797412e-01,4.744030308647969596e-01,5.302759046471277049e-01
4.074018827797225573e-01,5.169673729871704371e-01,4.981413346921173546e-01
4.837276479311106714e-01,4.748060125319273350e-01,5.224101978608376440e-01
5.862200424735160009e-01,5.880163847056635307e-01,4.815385135137927874e-01
5.172779220562918612e-01,5.257185092380731728e-01,4.068190719065882810e-01
5.748166552918944072e-01,4.825864669459878908e-01,4.587118089055679526e-01
4.432598378327004540e-01,5.086971089004159730e-01,5.115305261358855660e-01
5.466242107032776021e-01,4.959287798467194586e-01,5.396346367319961868e-01
5.197473516802787463e-01,5.155764266558333642e-01,5.296748691880099891e-01
4.767644147564303880e-01,5.234876914789575730e-01,5.051082146678381735e-01
4.766547503105513228e-01,5.035689309623494481e-01,4.678413719799803250e-01
4.382391007704833363e-01,4.747264525915075306e-01,5.152150764194585175e-01
4.954033143701387920e-01,5.140733253241989154e-01,4.917647486719977090e-01
4.435984294273149220e-01,4.413302343456147470e-01,4.985804652572798923e-01
4.927301004806630136e-01,5.384185864140439426e-01,5.033255125842421851e-01
4.494426314696187696e-01,5.467883745023047748e-01,5.448015815087345892e-01
4.006210841954999102e-01,4.915134997941137396e-01,4.761069741823772405e-01
5.107445812137583196e-01,5.343960428700880172e-01,5.019122330371996732e-01
4.665394504336311532e-01,4.899952856437272408e-01,5.205326982661496737e-01
4.898453440298807249e-01,4.721199659391732695e-01,5.260111144549711737e-01
4.953256831378599623e-01,5.199122214662261765e-01,5.280956172889273992e-01
4.397802213142363859e-01,5.099859188726220127e-01,4.979364519406798695e-01
4.397399376029371143e-01,4.960929865002882133e-01,4.977067771951697583e-01
5.663293384385573725e-01,4.483680060094374920e-01,5.047041308412263394e-01
5.275116383756379701e-01,4.500158131290870056e-01,4.662168945693342947e-01
5.837080818700298712e-01,5.534874076431185452e-01,5.027477608430832579e-01
5.169760727887939833e-01,5.631583127274646383e-01,4.814805536302377842e-01
4.525417369104202114e-01,5.440520256584771008e-01,5.405883794814728693e-01
5.629999253829557349e-01,4.824693294016914602e-01,5.302353798744249280e-01
5.159229862143787093e-01,5.183771303471035319e-01,5.232100535845671807e-01
4.598561793244232421e-01,5.621317920553223768e-01,4.425691016383542231e-01
5.027307018965366803e-01,5.307916382470126981e-01,5.702064030326156052e-01
5.138612988880904009e-01,4.650173468504044116e-01,5.530050436999387475e-01
4.608536615389434155e-01,5.001870159778781799e-01,4.975488836788213853e-01
5.286521878490035853e-01,4.450602999949705985e-01,4.907777858881040012e-01
5.201535089486217789e-01,5.210838480643741333e-01,4.700849326198658362e-01
5.429298157616345710e-01,4.930227290441708821e-01,5.503618237276449721e-01
5.807260905184246091e-01,5.293089195692705085e-01,5.053435828940705532e-01
4.781134782968058938e-01,4.835546966925435286e-01,5.704146470447974959e-01
5.978419686825681145e-01,4.994152579214368726e-01,4.866600388061330662e-01
4.764702562642894046e-01,4.563983895450964279e-01,4.679468159286980233e-01
5.664534867668664653e-01,5.089188388750195413e-01,4.719377115591952276e-01
5.679400938959314749e-01,4.324363121949371669e-01,4.570038878984796216e-01
4.989923962447483929e-01,4.726886993550949989e-01,5.165936228491413429e-01
5.113462102364052519e-01,5.237793482999193451e-01,4.661921574253589662e-01
4.475718409072583781e-01,5.374132186105520237e-01,4.799297486992570860e-01
5.229502655644934217e-01,5.341376018384503821e-01,5.361829628943436399e-01
5.340556026498858300e-01,5.203304839781445201e-01,5.443137257186405620e-01
4.941887892198850718e-01,5.560885789583810412e-01,4.786357739656167953e-01
4.767111503863190047e-01,5.743623512186187829e-01,4.873782669020301772e-01
5.770639139603752632e-01,4.984301447851421929e-01,5.244374800363648115e-01
4.000316108203429422e-01,4.346234737361878153e-01,3.791102148476682143e-01
4.990236522906110195e-01,4.487847762434372667e-01,4.207824470025950392e-01
5.770913931780762285e-01,5.651784365878015359e-01,4.498294603882174170e-01
5.689737101025421628e-01,4.336300964826335091e-01,5.273993532889175162e-01
4.784079275471916914e-01,4.625531181112986223e-01,5.070022782895078350e-01
5.049550160133048360e-01,4.905650674679320478e-01,4.159850879957099901e-01
5.055493345351909085e-01,4.440182649562949280e-01,4.187349426667791308e-01
4.791083390988381541e-01,4.901035677157745685e-01,4.988872160042721604e-01
4.987344740764509954e-01,4.594931609329783173e-01,5.478619035744924926e-01
4.970225051904911817e-01,4.674419219863335528e-01,4.822903066085675317e-01
4.305105321237439608e-01,5.432247605648546918e-01,4.519718253452488232e-01
4.575312165197885639e-01,5.275682938373107422e-01,4.439415200268946315e-01
4.650804963355611443e-01,5.204572683541055511e-01,5.172629184857416851e-01
5.403263875280318596e-01,5.495378225510014758e-01,4.522433686076871018e-01
4.675327354980834405e-01,5.125119655590438805e-01,4.277483976485838002e-01
4.833309012541074368e-01,5.172983352103154298e-01,4.699476309597434565e-01
4.834293808809592141e-01,5.051007996191980709e-01,5.398044904987323589e-01
5.647574382154204597e-01,5.135283118148556980e-01,4.634213442764735791e-01
5.352519980235749264e-01,5.292711087687378413e-01,4.686354289067236056e-01
4.131028497202315908e-01,5.286683823554617634e-01,4.566157986989468620e-01
4.834314730451217956e-01,4.465921182049508165e-01,4.675015870996344636e-01
4.850971344703750021e-01,5.010311464967578399e-01,5.191251843799651322e-01
5.063238829201318625e-01,4.665191848325357937e-01,4.534564869073608451e-01
4.950692338931486081e-01,5.053126319660069532e-01,6.167022235616630432e-01
4.818765717216479394e-01,4.422052021795762067e-01,4.994560313786890471e-01
4.732068717098238397e-01,5.209815062635498872e-01,4.840910602614554858e-01
5.072997952476031580e-01,4.945031951469708864e-01,3.695483697004717238e-01
4.968469405297754049e-01,4.394038881362110072e-01,4.529222325841315566e-01
4.919771124947659446e-01,4.795776989785808242e-01,4.184061703522819475e-01
5.725098602390213953e-01,5.157929503808617033e-01,4.803838579532013209e-01
5.245741835676643872e-01,5.361038169694469779e-01,4.983994417974446089e-01
4.567422648620243497e-01,5.012956435336790584e-01,4.972259105707170224e-01
5.168289246964585804e-01,4.859697750077903167e-01,5.266529864417136553e-01
4.891905631052230197e-01,5.055658998702652340e-01,4.367109710104721820e-01
4.564977173996208615e-01,5.402180394373734540e-01,5.603218398582199278e-01
5.189971569719916689e-01,5.104945606577270256e-01,4.711207620462383727e-01
4.280319796941198796e-01,5.157430618916416520e-01,4.154249083171640544e-01
4.720704158243681503e-01,4.708640758046551134e-01,4.930221435796042218e-01
5.508310901779800428e-01,4.742469296436807036e-01,5.004825421689595988e-01
5.291578108364288768e-01,4.941930019745791047e-01,4.718748375956411389e-01
5.161273095276598388e-01,5.135323048780467969e-01,5.271634540915185463e-01
5.091931873458032110e-01,4.913949800810706869e-01,5.071599120548235806e-01
5.356814780950119870e-01,4.408246787317992577e-01,5.414221423038433345e-01
5.243859320154634629e-01,5.786355572310873940e-01,5.346145821921235441e-01
5.532190807628710738e-01,6.068456426174346774e-01,4.881137940218805982e-01
4.388759591096081381e-01,5.545429767149749889e-01,5.220577744197973935e-01
4.673200285975953050e-01,4.811934193141496618e-01,5.369536014760044607e-01
4.214848555888914827e-01,5.400615329290053834e-01,4.933294783044743781e-01
4.653852436122279390e-01,5.105112988547699793e-01,4.756979918988751832e-01
5.280394086341168025e-01,4.744471023452765945e-01,4.113994296151708419e-01
5.206804626837382433e-01,5.169178701260056519e-01,4.527054393788053632e-01
4.432803421724963444e-01,4.690170228038427758e-01,4.448186527265987067e-01
4.768982867382663415e-01,5.018527255037832369e-01,4.408922814523953959e-01
4.412978819790155383e-01,5.241430275142666684e-01,5.329528640951757268e-01
5.261045916371427378e-01,4.002923545482346412e-01,5.354449212354384091e-01
5.469178354946333531e-01,5.612127504921068377e-01,5.108445646243305882e-01
6.055250474870880195e-01,4.805007861273081216e-01,5.509445283954287342e-01
5.523068784024180999e-01,5.547921096128204388e-01,5.478631841426653271e-01
4.965845464900743855e-01,4.634352973736571291e-01,5.151667990234767291e-01
5.231541942793752620e-01,4.456628460972028583e-01,5.084168986269999024e-01
4.770229663632690187e-01,4.897894438681411611e-01,4.879348793573185517e-01
4.521272581503801846e-01,5.180016100775252097e-01,4.796532583859881571e-01
4.772879406343647490e-01,5.094893284843936554e-01,4.907102568271593523e-01
5.333418687160242921e-01,5.163285925718447134e-01,5.500972929836217551e-01
5.170684192474855889e-01,4.923314098629946178e-01,5.637623453650237870e-01
4.102794671556391770e-01,4.705007894924991829e-01,4.749373465191016330e-01
4.809125308528733322e-01,4.839320442815326362e-01,5.561674309582068654e-01
5.428877224121181344e-01,4.705631846246271510e-01,5.310054739981867611e-01
5.220705312095497153e-01,5.228648149923639243e-01,5.579323720829346689e-01
4.546876493481354919e-01,4.554439600453052961e-01,5.244208510893498820e-01
5.179835028859968160e-01,4.247370135329731067e-01,4.720093591921580289e-01
5.052144633921258343e-01,5.004676817793964894e-01,5.376043235606972059e-01
4.281238747812798340e-01,4.996372060495947176e-01,5.249168166499732502e-01
4.878814897157591757e-01,5.048104233980827971e-01,4.386441802881110852e-01
5.512448029149337181e-01,5.126326833167631492e-01,4.696669040497322145e-01
5.118901796301237317e-01,4.493666194877201092e-01,5.906296259027535855e-01
4.875911127959148827e-01,4.878378845696297872e-01,5.328006350685371428e-01
4.771332642448570249e-01,4.912204930153829530e-01,5.126195532686090850e-01
5.211942904983272173e-01,4.668398267285391867e-01,4.564418086684309261e-01
5.410791472857902074e-01,5.229060605449250554e-01,4.338640257880448936e-01
5.281374125224314042e-01,5.597282321704775132e-01,3.825114322026736957e-01
4.835618627390619317e-01,4.983694857667363975e-01,5.616885884639191140e-01
4.812644170803037080e-01,5.566424759790865595e-01,5.408068462105227736e-01
4.972480058170827832e-01,5.317129726481720775e-01,4.764861029962519368e-01
5.981722838782534968e-01,4.985313098902786622e-01,6.327767337929202096e-01
4.703219678692059369e-01,4.649108644547151337e-01,5.062922542334536979e-01
4.162929097267275558e-01,4.648255401985594837e-01,5.665384010630978295e-01
4.607789010632064031e-01,5.227421308612306694e-01,4.626918413938655994e-01
5.158110623422359486e-01,4.689143339018931322e-01,4.581983274304299303e-01
4.570592328740734067e-01,4.331098845781634621e-01,4.958018584839041787e-01
4.628099951068174178e-01,5.062111696859582510e-01,4.559822505081313482e-01
5.603233178378278501e-01,4.950752518861246676e-01,5.715401550692704724e-01
4.811105366629885305e-01,5.561932692404051304e-01,5.201620183209793025e-01
4.583432807446468082e-01,4.029446997150405996e-01,5.208983490646531544e-01
5.404870508166268461e-01,4.820321826480921112e-01,4.881265717324566600e-01
5.267985919288472596e-01,5.082017953527033782e-01,4.955702594129324789e-01
4.626864024080529769e-01,4.063265686017000222e-01,5.271873939131204168e-01
5.438199929839634406e-01,4.973287156083905924e-01,4.654784885538155170e-01
5.415810346156163524e-01,5.400580607610578898e-01,5.429299903466278110e-01
4.705960639667510770e-01,5.383708317747465388e-01,5.391067978303141217e-01
5.276202416744328882e-01,5.497759290460678683e-01,5.814754235238041025e-01
5.294812008220319832e-01,4.514202427270580520e-01,5.875811237862259562e-01
4.577639010228263805e-01,4.775177114366848663e-01,4.979939616922474666e-01
5.256305122287355802e-01,4.519989130848643399e-01,4.922458429962096593e-01
5.432969934387842370e-01,4.666198091911299417e-01,4.920700365932612064e-01
5.233099155265951152e-01,5.031545884228143528e-01,4.707722825314198944e-01
5.152470188021699427e-01,5.090278660202763872e-01,5.147485958214946811e-01
5.610855963211863751e-01,5.641068706406189293e-01,4.521538566843189000e-01
5.054021839329024823e-01,4.766228821798414450e-01,5.041649566201472643e-01
5.393801298877021200e-01,4.456697209675494764e-01,5.310641426385533936e-01
4.848660182985650713e-01,4.671024601299813006e-01,4.780713980903163463e-01
4.748371909788771661e-01,4.856378507025814195e-01,4.872749702136750516e-01
5.817186037474408877e-01,4.250031580641837059e-01,5.067828042699836777e-01
4.443618201308040527e-01,3.973900471633056708e-01,5.105677201242884156e-01
4.633541443194033049e-01,4.329368427637400596e-01,5.407843545375247141e-01
5.455864534553671596e-01,5.141783735410990763e-01,5.515198130675592614e-01
5.494828988295749062e-01,4.872352559803835303e-01,5.204783252531884896e-01
5.185981850011821548e-01,4.642226068485651447e-01,5.616331325159104049e-01
4.820050251270477371e-01,5.396881042326338029e-01,5.167952074397710316e-01
4.755297539444028887e-01,4.327612883008101208e-01,5.155163451346030934e-01
5.343047911839451380e-01,6.188198437968895904e-01,5.284646473447048853e-01
5.244782877931685183e-01,5.250157812592115558e-01,4.682884865680688735e-01
4.770588688655302279e-01,4.583000844209261793e-01,5.250147364321593457e-01
4.770843951607448563e-01,5.112307765086099298e-01,4.544254693742239559e-01
4.856082695317737730e-01,4.979119956087773025e-01,5.009108087436219270e-01
5.692748786710614128e-01,4.780102187646672052e-01,5.685931342822215795e-01
5.160664839447466345e-01,5.057831533568372118e-01,4.806875566431253466e-01
5.069023392330354039e-01,4.884924937963006086e-01,5.002983402376742772e-01
5.403203937002324375e-01,5.026516406547759663e-01,4.813964801930123438e-01
5.548475216131525389e-01,5.132470078347397546e-01,4.974433858865245361e-01
5.075076541268024322e-01,4.339034393048261107e-01,5.603629013915194523e-01
5.207033452208271740e-01,4.692843133525381738e-01,6.393019403660463729e-01
5.496059474377289478e-01,4.760763388667610951e-01,4.484938274447093920e-01
5.697294360909980204e-01,4.851686334182648830e-01,4.383745118396793483e-01
5.399824787125844239e-01,4.961111261750438817e-01,4.759923498532838693e-01
5.158756307456324741e-01,5.112649905399460071e-01,5.676271047938913350e-01
4.342003333506720408e-01,4.706433637740382592e-01,4.651940259304200298e-01
4.217751471605599711e-01,5.476577634866749422e-01,4.736052607034006989e-01
6.371631422949787238e-01,5.082827438999684144e-01,5.437065576880902862e-01
5.606419132226625468e-01,5.374389410087885288e-01,4.975188273959151308e-01
4.926462270894158557e-01,4.880805070015810654e-01,5.303132135216900300e-01
4.850069239983083591e-01,5.383345356267009718e-01,4.976095570031012216e-01
5.991391571200794797e-01,5.083735686726228442e-01,4.997022040303933932e-01
5.496537088641074709e-01,4.747242713912827594e-01,5.275654814494648015e-01
5.236730997347786021e-01,3.670460095303634818e-01,5.087061035462255854e-01
4.473485624471720268e-01,5.076200851843593043e-01,5.122669517497252523e-01
5.481355998180902356e-01,4.732154821771535902e-01,4.943588796373237781e-01
4.788819830299500535e-01,4.990277662164561145e-01,5.777318467559732218e-01
5.560351121303156452e-01,5.202260268907923368e-01,5.249685234588014060e-01
6.190271149514557925e-01,4.856249866718281849e-01,4.858257865074263049e-01
5.360395000069625437e-01,4.739105266337706457e-01,4.492098834901552262e-01
4.712767695288418990e-01,5.693124700012688333e-01,5.328242125349242908e-01
5.043910721289959209e-01,4.875177380352436751e-01,4.257824758854323877e-01
5.321675753555198396e-01,5.254627492902694819e-01,5.595952736620566359e-01
6.256027672924735494e-01,5.218056600261259392e-01,5.467534132099262090e-01
5.513901578571106521e-01,5.362534891201609089e-01,5.239688046552282152e-01
4.967142144359387723e-01,5.329776950585652928e-01,5.137890378182410345e-01
5.226537374252631096e-01,3.962286636758023950e-01,4.671063719763732247e-01
5.170946709705253053e-01,4.329986853080847742e-01,5.273247253316034611e-01
5.073319223020554825e-01,5.507349167323732919e-01,3.847036218152877218e-01
4.891721794945654844e-01,5.157753373279522213e-01,4.409997714054651463e-01
4.253142617360359812e-01,5.280649165670869838e-01,4.266014550978524666e-01
4.627069193539690151e-01,4.672313897931428817e-01,5.327995141749006791e-01
5.588451881624065809e-01,5.684602363229648292e-01,5.249228426492704713e-01
4.983746833256286757e-01,4.561882451647180092e-01,5.056182899706788136e-01
4.744534720041607700e-01,5.422987178169449418e-01,5.502715010278942387e-01
5.151839967332030312e-01,5.518498035529036949e-01,4.878387008928357638e-01
5.575665034481535054e-01,5.360772738848172958e-01,4.786318143856073126e-01
5.418203481254996179e-01,5.367050096170471463e-01,4.880641764501638669e-01
4.514308073863947945e-01,4.955943984499767696e-01,5.086421352472878521e-01
4.485038104662359970e-01,3.855119708117419886e-01,5.024666060876743501e-01
5.917081550195939510e-01,4.328700007698242924e-01,5.326935618643825476e-01
4.971933507579837097e-01,4.341430544382489654e-01,5.285327901637651982e-01
5.142145664313580999e-01,5.452667247085722924e-01,4.758188466040654818e-01
5.096391467257364027e-01,5.300788179514173137e-01,4.848851868603201720e-01
5.063345121782288905e-01,4.481146850953644512e-01,5.083255817736650473e-01
5.064546350453591472e-01,5.667417363269807717e-01,4.499562183933550341e-01
4.863958659217720859e-01,5.662858161286897785e-01,4.830282693654560089e-01
4.739886792637114099e-01,4.229139167478450090e-01,4.516925456355533330e-01
5.173451730288303185e-01,4.194160684973510245e-01,5.010531511071203425e-01
5.637340997003381649e-01,4.569885648971311887e-01,5.544083703410056518e-01
4.089547071452471760e-01,4.851046007512792024e-01,4.931319963476855639e-01
4.603160249584032915e-01,4.975654513905007348e-01,4.848814751457616867e-01
4.982900058110759089e-01,4.930481157259841152e-01,5.016073438178616506e-01
3.974568053511415289e-01,5.068719037270781325e-01,4.632990039935774296e-01
5.197411519101921007e-01,4.896418368741417559e-01,5.230772494075893730e-01
5.059634116576879892e-01,4.852534545596137727e-01,5.461911076102259344e-01
4.753423757600068744e-01,3.925263726824014809e-01,4.533309320406768705e-01
4.974080557359727428e-01,4.936796983564691321e-01,4.471526944065573606e-01
4.537614622154247934e-01,5.024327522538375446e-01,5.383433899077472162e-01
5.087436305577034412e-01,4.939125934481879421e-01,5.175898387016794056e-01
5.016921674290163446e-01,4.364275670395553752e-01,5.040070495465479583e-01
4.653780929879278716e-01,4.676899064478289292e-01,5.951901935559589241e-01
4.316205722013218282e-01,5.345223353038026648e-01,5.300107501535219479e-01
5.354193462126408676e-01,4.989364330023504657e-01,5.287202249328569748e-01
4.880397642590629803e-01,5.302623292690145096e-01,4.352404250959834298e-01
4.919818685838101557e-01,5.649970981299454742e-01,4.607888091701758948e-01
5.376109713338530494e-01,5.617086992354011210e-01,4.643349130902152400e-01
4.671354711717373154e-01,4.585269949474599649e-01,4.931439676724403975e-01
4.874727775621731096e-01,5.296750672696326490e-01,5.191196451546721269e-01
4.979611517136957599e-01,5.265647753691156119e-01,5.216644401781195262e-01
6.049066088314961620e-01,4.075707553164512609e-01,4.565447976607838743e-01
4.964973952321154460e-01,5.617390362938569082e-01,4.818780530465181511e-01
4.852733612493862481e-01,4.675970455166435502e-01,4.936476462237738283e-01
4.781380113585277924e-01,5.219840568024893823e-01,4.863640524090934725e-01
4.573775131225931712e-01,4.746350268709895182e-01,5.216241931946244970e-01
3.910362689895943156e-01,5.627390671436082181e-01,5.354776819892618223e-01
5.297276206573100499e-01,4.468421081386633187e-01,4.636169345828455857e-01
5.664416633355972008e-01,4.703925409330560470e-01,4.144314239224561880e-01
5.094249866175510899e-01,4.807949514120439249e-01,4.567188974808173985e-01
5.235591539304160769e-01,4.732295182366069719e-01,4.625536787939024119e-01
4.401657886179790036e-01,5.188175004443016380e-01,4.515900688363642113e-01
4.697908871852153889e-01,5.426243504322235678e-01,4.602446389444247443e-01
4.527544085406202123e-01,5.287862409677136499e-01,5.250240610105311179e-01
5.333943488671518685e-01,5.384655661645612046e-01,4.869626348936341720e-01
5.587042531357148123e-01,4.479413030384736261e-01,4.902720641476505103e-01
5.037396407274559174e-01,4.878311936790309944e-01,4.333249395630847656e-01
4.665613101137280894e-01,4.384714183799861553e-01,4.788705569719826083e-01
5.245318464924055846e-01,4.134563659619983622e-01,5.139185197926994242e-01
4.911442291122157799e-01,5.405889179209173445e-01,4.983703370549624756e-01
5.594712963939363348e-01,5.215817227169967651e-01,5.016938673145270311e-01
5.330205228200506351e-01,5.553409992809273943e-01,5.606064902385144988e-01
5.318002325841806321e-01,5.354644002372112022e-01,5.024798655204866238e-01
4.515132780697694859e-01,4.832142898096200012e-01,5.125019941711034255e-01
5.692031508430624998e-01,5.136039583677957099e-01,4.846413596065533569e-01
5.698338314293829310e-01,5.330657473117695888e-01,4.847597864272278900e-01
5.080538081064928102e-01,5.281568048548759275e-01,5.128214189395785549e-01
5.440256240687568745e-01,4.995391008388710974e-01,5.708585664083529743e-01
4.753741425603688620e-01,5.184997841077376712e-01,5.170544599476611936e-01
4.551846657694867404e-01,4.845321987097628846e-01,5.281516309148016619e-01
4.823504667048194028e-01,5.107127879011255089e-01,5.289023410606935593e-01
4.313820967729412037e-01,5.074431805390453576e-01,4.949080800306426831e-01
5.852920173137681203e-01,4.641918727412743806e-01,5.279532013200638474e-01
5.144697028264660910e-01,4.663669175522441868e-01,4.615720495339439289e-01
5.121527877887436242e-01,4.931471081163920633e-01,4.139406406721284348e-01
6.140846715071129891e-01,5.095594236638466556e-01,5.245716729479193985e-01
5.391746684631929520e-01,4.618926060748623774e-01,5.645586419992514315e-01
6.045857370265769193e-01,4.555426395592920841e-01,5.554184450848176358e-01
4.657691203956850212e-01,4.958749197748422710e-01,5.142038396823438440e-01
5.061709360989090634e-01,5.704342710188826659e-01,4.810148529603884837e-01
4.158110883608848729e-01,5.012505722677329523e-01,5.002456454643116057e-01
5.424762708065289374e-01,5.111172394746705816e-01,4.971027824559655084e-01
5.420899583805559585e-01,4.599280009282455395e-01,4.796977115828314764e-01
5.280040389910554133e-01,5.333670313772035376e-01,5.088164364711329490e-01
5.006956058059661707e-01,5.283055263464548901e-01,5.372056001804954573e-01
5.730690564768330386e-01,5.549692089844675547e-01,4.277755348858632845e-01
4.674474309912624581e-01,4.865805712808357053e-01,5.327254117503054109e-01
5.490536222304811531e-01,5.218881792423840649e-01,5.035217926363765306e-01
5.059179537361946366e-01,5.065267806905748849e-01,5.972457727070145106e-01
6.199579304067581731e-01,5.131519187791908632e-01,5.265361669748873652e-01
5.095850875723466622e-01,4.409707246225166855e-01,4.841654274896785570e-01
5.270944365749062888e-01,5.237325995366540754e-01,4.856623169084917646e-01
5.428698186024727423e-01,4.205516889103538825e-01,5.358570510405685772e-01
4.620222303666844943e-01,5.115777719809123658e-01,4.785890132542160447e-01
5.430458240113872348e-01,4.986872191849247016e-01,5.045112968513540963e-01
4.762582862247254911e-01,5.141014163440140727e-01,4.839265805236693807e-01
4.811084440703863874e-01,5.323251540881546173e-01,5.051822210330924046e-01
5.732769091985459031e-01,4.241751765151313691e-01,5.838409503444117465e-01
4.953922554682644308e-01,4.594731333179947197e-01,5.077523856992898210e-01
5.692603117686387826e-01,4.795142356708157472e-01,5.159910579235679196e-01
4.357585748179662044e-01,4.567855569963944484e-01,4.900183624045979514e-01
5.641935391595671589e-01,4.852365653911696608e-01,4.764613830669570116e-01
4.319090515553714038e-01,5.016122757009074951e-01,5.180416195072563568e-01
4.237121947426669144e-01,5.815289891356379970e-01,5.262529936615079063e-01
5.188731419299593695e-01,4.751357073503946760e-01,4.970803660513096744e-01
4.972614219905965305e-01,5.051309588483965385e-01,5.015463034226570471e-01
5.268175438958213608e-01,4.401640962174450666e-01,4.733729922060475603e-01
5.979432920483446212e-01,4.890095999934171433e-01,5.286671851076275574e-01
4.564831955491857607e-01,5.057876353753151255e-01,5.244007353505679703e-01
4.677101818161965019e-01,4.881748687609283044e-01,4.490512899078046849e-01
4.870694666342201273e-01,5.403593014202600076e-01,5.092102757096876875e-01
4.437618569181872585e-01,4.645664151721309310e-01,5.027873811864884690e-01
5.014664844191142334e-01,4.869515657122934216e-01,4.866703569072710622e-01
5.301321684626882913e-01,4.960435292428777565e-01,5.201968806894849973e-01
4.974685904752955690e-01,5.163849463886306390e-01,5.137534976751859661e-01
4.179562017370493376e-01,5.016216698336786184e-01,5.256309230689651946e-01
5.377348028631947496e-01,5.464598149491961543e-01,5.637603092028424800e-01
5.750835913980201219e-01,4.779568638488349008e-01,4.548617409772167663e-01
5.196701699400272378e-01,5.155491072530526964e-01,4.944138810170375931e-01
5.141453677575389403e-01,4.517610840269991046e-01,5.726726834881032957e-01
4.593444037629927368e-01,5.133055396106415147e-01,4.553594515002171161e-01
4.264939785225498325e-01,4.879113845959294760e-01,5.250495773175762881e-01
3.946891057318320795e-01,5.313132129641630064e-01,5.470883653020236492e-01
5.281312299501437213e-01,5.084312214772012117e-01,5.304051858819213150e-01
5.567015347277067816e-01,4.408315219307716859e-01,4.379361466609881792e-01
4.951109517025534812e-01,4.473546089773662304e-01,5.198403688001073109e-01
4.678493921561699964e-01,5.238438040500562609e-01,4.946056745835257784e-01
5.181164597119040094e-01,5.344101710014604878e-01,4.510240164117457207e-01
4.916746116935783451e-01,4.938764533456650452e-01,5.968460652387318488e-01
4.891340683302147219e-01,5.487722675186976762e-01,4.622711557644353375e-01
5.095307009003168242e-01,4.585858392985490140e-01,5.366969309583482506e-01
4.815560201315364219e-01,5.232646277081398622e-01,5.113542395857854084e-01
5.121736396052672946e-01,5.031520640653094345e-01,3.949588323422779657e-01
5.226561881579623314e-01,4.892066248617312763e-01,4.832437009303229281e-01
4.466929129573140034e-01,5.344413183744621820e-01,4.601749635096299418e-01
5.028191310691846327e-01,5.115200395662680144e-01,5.218044517870092935e-01
4.475641512537367195e-01,4.132820211742396777e-01,5.134665484039572236e-01
5.109898198106962441e-01,5.158123788623777406e-01,5.519701411846040795e-01
4.340850073270793863e-01,4.703714256214102107e-01,4.744088712569636823e-01
4.912247012190795736e-01,4.899056176184196087e-01,4.916004731673999095e-01
5.173646151459745379e-01,5.653872501059887812e-01,5.078311183948673868e-01
5.144387249562029085e-01,5.328013060416298963e-01,4.394352317231371430e-01
4.258242038991001399e-01,5.425823914423530958e-01,5.262362884104154759e-01
5.064738074538578383e-01,4.412957345483895510e-01,5.222167635177541456e-01
4.055769252175405182e-01,4.804192584250895903e-01,5.397919433359682495e-01
4.462281385014854052e-01,5.007134157799575380e-01,4.521669933758425963e-01
5.161382570111537893e-01,5.372504683808252413e-01,5.358033873969282324e-01
4.636818007821825738e-01,4.799681849925266364e-01,4.718629297409601131e-01
5.436599073886729805e-01,4.216699672522595810e-01,4.690350589073009613e-01
4.487453465828232235e-01,4.504852398305262406e-01,5.210377055413608627e-01
4.134147865187404736e-01,4.957511995605359267e-01,5.293977268198980513e-01
5.427133703813590282e-01,5.172428132791513367e-01,4.556700756769394012e-01
4.354985852799171941e-01,4.788023850268895432e-01,4.921601370603711501e-01
5.107886151384549711e-01,4.363204805519863561e-01,4.155320881678036260e-01
4.342709805243203380e-01,4.789220975548506010e-01,4.541046609450309357e-01
4.573056596326858236e-01,5.104490160053940517e-01,4.995702216894677972e-01
5.416632412540357544e-01,5.439905568256306889e-01,5.183407031380843355e-01
5.636491723447096813e-01,4.790404493745686332e-01,4.713415998327327716e-01
5.015731941428539509e-01,5.449189153198640279e-01,4.961111693187799099e-01
5.391702714261502605e-01,5.101957388475023558e-01,5.353571362921123455e-01
5.290136894382345689e-01,4.814624536653451803e-01,5.785185979702177628e-01
4.574911628813776998e-01,5.414858903717156835e-01,5.337208886740189007e-01
4.073973302393358309e-01,4.853423925004285988e-01,4.545102479504238291e-01
4.957318909251511307e-01,6.111662508433131080e-01,5.376833120433267554e-01
5.821246881348139945e-01,5.666321966309840752e-01,5.615608755016391340e-01
5.377560842772353134e-01,5.323990523265752506e-01,5.111777270292885422e-01
4.509066125607990028e-01,5.317238012694108784e-01,5.211829142153641126e-01
5.382048715534619721e-01,5.097630767090264303e-01,5.615640140945256098e-01
4.833485042408938726e-01,4.964738497404569961e-01,4.513686150665645602e-01
5.041976735104952700e-01,5.185503495586738509e-01,4.782559864504598024e-01
5.022865863435423961e-01,5.374791124491754557e-01,5.122600343965520997e-01
5.098746707956388624e-01,5.470240555056540277e-01,5.054191622054269306e-01
5.357893911677376053e-01,5.119069701844937148e-01,4.946992612746232143e-01
5.118786862515847247e-01,5.135176515772320593e-01,4.796521408967120426e-01
4.415052921634575189e-01,4.515610858060425947e-01,4.965167123017879547e-01
5.739767342695927255e-01,4.811814216991227577e-01,5.386495603962533352e-01
4.975642197293289049e-01,4.948874737059589246e-01,4.376681863334307421e-01
4.496630141065720565e-01,4.815198412136736938e-01,4.786955012466264092e-01
5.040881026633868833e-01,5.098794643241040259e-01,4.914895372272010676e-01
5.619758443000937298e-01,4.763922034239710390e-01,5.323941416372918178e-01
4.872910732370981934e-01,5.244698496690555212e-01,4.916953525726456276e-01
5.471791571513270336e-01,5.179966614852535844e-01,4.844587578413255824e-01
5.096862942555066001e-01,4.618449347038269814e-01,5.128544491700754993e-01
6.015192927822319291e-01,5.408059011001457028e-01,4.722253301097052436e-01
5.152753865612981210e-01,5.042379102941280111e-01,4.587550145046710437e-01
4.289395993251749473e-01,5.403433995366494491e-01,5.653300573266760720e-01
4.750447532550939322e-01,5.255710060708314035e-01,5.166930805718453756e-01
4.868560563577735145e-01,4.846292603623885142e-01,5.210070884288279247e-01
4.432632645915270397e-01,5.287634748502005877e-01,5.328646492011455127e-01
5.563706090803601789e-01,4.527406618204352640e-01,4.865918430895744273e-01
5.455802647316315701e-01,5.512442771212497927e-01,5.436619490058083315e-01
4.942225790726939016e-01,4.586456302117712935e-01,5.850001655237264675e-01
5.155167143126861973e-01,5.703616870422324459e-01,4.473720940354193876e-01
4.601324514427003187e-01,5.002448736041520405e-01,5.221608136877090578e-01
4.690629827230234361e-01,4.547946003886922384e-01,4.819556813727538525e-01
5.368932318515112767e-01,5.254916266963048921e-01,5.422129027629951636e-01
4.869668500959741797e-01,4.708060895655002964e-01,4.944289106927980959e-01
5.116135801417468487e-01,5.071022621694645238e-01,4.518936153683417722e-01
5.134181206548931176e-01,5.637426070474212958e-01,5.509964496318733307e-01
4.791560872794892734e-01,4.336964173348915597e-01,4.902357629877723832e-01
4.298954718544338860e-01,4.958257552151987269e-01,4.952195088146340018e-01
5.165445015974688969e-01,4.916776883702033141e-01,5.473905419580583631e-01
5.442585824986532206e-01,4.841175259986513768e-01,5.555968075038764109e-01
4.726988853997370343e-01,4.851216926602483492e-01,5.095667076194795309e-01
4.838160575900949945e-01,5.235217275897060540e-01,5.343064213318976519e-01
5.266541070443296890e-01,4.835831491302239882e-01,4.917283064287401029e-01
5.179010440414087979e-01,4.764360523495515531e-01,4.221396864375451252e-01
4.690016094984634787e-01,4.431310403320732338e-01,5.300702136337769321e-01
4.680722149705741630e-01,4.782068790185919904e-01,4.209768852323433341e-01
5.211432828890066871e-01,4.547798699270466094e-01,5.398629546802171664e-01
4.895483487926666211e-01,4.965462894893785673e-01,5.279459400277771719e-01
5.623972643889114664e-01,5.124287667174881600e-01,5.480289308955139660e-01
4.769087685108466257e-01,6.366755016560247116e-01,4.178209772764283070e-01
5.319590055421891117e-01,4.848839611615702871e-01,5.123809538089322269e-01
4.855630717428242038e-01,4.771394275387236261e-01,4.490568787872331047e-01
6.154606709496102113e-01,5.209027257447187420e-01,5.596205212096935222e-01
5.165922846707252658e-01,5.229099963623342617e-01,4.097117453282148047e-01
4.784662613606366355e-01,5.091444027870420941e-01,4.317349195382527149e-01
5.322995562797272484e-01,5.166164734772252798e-01,5.724524476837208331e-01
4.458684179164370542e-01,4.263036866841877215e-01,4.926042072973009223e-01
5.363325476228263389e-01,5.278780039173776029e-01,4.591984526236753128e-01
4.539827898876351298e-01,4.294812856186131511e-01,5.169736153052516547e-01
5.299945665039534903e-01,4.702470767860629230e-01,5.397885478475700216e-01
5.811737229858049414e-01,4.597555404455960226e-01,5.832487301584848849e-01
4.788226419013659751e-01,4.715470688123157283e-01,4.334658381641383618e-01
4.404253375629468281e-01,5.491444472515255582e-01,5.133494504214469734e-01
5.524037738270580755e-01,4.802470438598723801e-01,5.311762223724761922e-01
4.809589000256552227e-01,4.787818841146272986e-01,5.352135535549725764e-01
5.318402244397070211e-01,5.451768898443780653e-01,5.045562937197604070e-01
4.426591965186345567e-01,4.922421788409715449e-01,5.675347538576800410e-01
5.561754868426072029e-01,5.245305762198113619e-01,4.638109404561009397e-01
5.935240771728814702e-01,5.381272014787401581e-01,4.877080542687738940e-01
5.010060857790912259e-01,4.916205832069219794e-01,4.952845390024668837e-01
4.707925925416492907e-01,4.641282041530801483e-01,4.496377502805406490e-01
4.986070446072518036e-01,4.858150271182916091e-01,5.611045812991178883e-01
5.484752666516599096e-01,4.991499028209303579e-01,4.946958815088904338e-01
4.935399412530420138e-01,4.560856932889750803e-01,4.674603125326343145e-01
5.089266895003982105e-01,5.374874309634137814e-01,5.265459549448554544e-01
4.732968379798933589e-01,4.888910534537621033e-01,4.979377087377570010e-01
5.452736810270480960e-01,4.935368549716734332e-01,5.882406049657329383e-01
4.339160955905687622e-01,5.564222101552702693e-01,4.800701812836414284e-01
5.548225226526485310e-01,5.077724752715431222e-01,5.089888880354395129e-01
5.327599990390029516e-01,4.668074995460739784e-01,5.217673891977547829e-01
4.991866805530172924e-01,4.260581763546153478e-01,5.275339476637735947e-01
4.906228738183192051e-01,5.402594944254169862e-01,5.633736590607142380e-01
4.519766835257821858e-01,5.418333589545352158e-01,4.713660236889261057e-01
4.848237367460320746e-01,4.796543549461330103e-01,5.099786900449775340e-01
5.408495777372889224e-01,5.734254008270409653e-01,4.883854274248063954e-01
5.377335306480099941e-01,4.993561625180371610e-01,4.894337094121134490e-01
4.931657303625078259e-01,5.426115399555301311e-01,4.809884133713004384e-01
5.131566839759869048e-01,4.216030076023771778e-01,4.746903607438570094e-01
5.204683173387040229e-01,4.317189973049240237e-01,4.728234628154283081e-01
5.502206096461392804e-01,5.060914136914976824e-01,5.155210007101943548e-01
5.449955831626188685e-01,4.859256252843837665e-01,3.961005575826936909e-01
5.678550988130320887e-01,4.637071773646300188e-01,5.707021717064562072e-01
5.014754097538856037e-01,5.434831907298699472e-01,4.743004430912512448e-01
4.714218444049024792e-01,5.191782759448692053e-01,4.427202494310828462e-01
5.362578859287523425e-01,4.378560395583436238e-01,5.949878535795976031e-01
4.819762561667658707e-01,4.823625152690462214e-01,4.545068602676419767e-01
4.947743793395441569e-01,5.430238147533257287e-01,4.843113705360894694e-01
5.296751399798714788e-01,4.735963520430078733e-01,5.218054299216889902e-01
5.318242270593044330e-01,4.748609199076824217e-01,5.259693595512068276e-01
5.111597827669660532e-01,5.352589742512056104e-01,4.938298937757696905e-01
4.471749741562430769e-01,4.360972682933901279e-01,5.653980325679045515e-01
5.085870592280454794e-01,4.568418663740555496e-01,5.256405881855724660e-01
5.460365504041591045e-01,4.227641381305338730e-01,4.527129109213426372e-01
5.288893342581364454e-01,5.303534227296541337e-01,4.854619992912082016e-01
4.364415620636059590e-01,5.699684709630579160e-01,4.488054430955896734e-01
4.496115813876272460e-01,5.355969267138822598e-01,4.585950597799183792e-01
5.741400331363863963e-01,4.551248400842312081e-01,5.629920813168273197e-01
5.026615885653358262e-01,4.855295781048319936e-01,4.158652457029906602e-01
5.088384354642558893e-01,4.779946873192645329e-01,5.046345803359102433e-01
5.224419963538446954e-01,5.221890997965975556e-01,5.412303647317289190e-01
4.440787489817314970e-01,4.515119987696261106e-01,4.063950041133082558e-01
5.040211303721613412e-01,5.305787370419363658e-01,5.665076687922487864e-01
5.145016528687965662e-01,5.150482514577124915e-01,4.741728235458749774e-01
4.883283096238997811e-01,4.475891921737062962e-01,5.862711212956613904e-01
5.020283291591012276e-01,5.397348645898588648e-01,5.534560277575036880e-01
5.022150792531067109e-01,4.970424478834530313e-01,5.296992416747704491e-01
5.067493265133570235e-01,4.394349656951636596e-01,5.111309549056101131e-01
5.700876927779601200e-01,4.617549562613912917e-01,5.613057923588080644e-01
4.226994470749708133e-01,4.637539996588008195e-01,4.548621962293027399e-01
4.579809854260047386e-01,4.865810845941731522e-01,4.582064600909060981e-01
4.354805469650472327e-01,4.588991291965163200e-01,5.057735066177153627e-01
5.487619725692478578e-01,5.127834299664334461e-01,5.306907083731301489e-01
5.156826826570858335e-01,5.666572293758884715e-01,5.088546315637432205e-01
5.242848052561537298e-01,4.864162342006920769e-01,5.125887085887299577e-01
5.061816838075383629e-01,5.223265384387825172e-01,5.329314868679669859e-01
5.106059567823313383e-01,4.709778837777109373e-01,4.483449175252189889e-01
5.329273447606144298e-01,4.954704081144962746e-01,5.432450189528046369e-01
5.321957272241099046e-01,5.551661640103023876e-01,4.406170352449995664e-01
4.728286971697276964e-01,4.656196544969402606e-01,5.740086356049733940e-01
6.009869499054582009e-01,4.251310624546846273e-01,5.225705443532492334e-01
5.192766463315383607e-01,4.874309811782123192e-01,4.597538052768547767e-01
5.306810798343539748e-01,5.440686453343580586e-01,5.771366793667078721e-01
5.481888189014092472e-01,5.064254368981835341e-01,4.594315732283193454e-01
4.937157192685172058e-01,4.905102501141739846e-01,4.916985279494415773e-01
5.373552469157482081e-01,5.038838007229444749e-01,5.350393316945533106e-01
5.439176960166193231e-01,5.673096774656013475e-01,5.193476900114779582e-01
4.600400800674077084e-01,4.719245430505266681e-01,4.895383044842397391e-01
5.399751062227985399e-01,4.801850823954137426e-01,5.433010835047813458e-01
4.953038674366250782e-01,4.831722490740864018e-01,4.957372702760373118e-01
5.513860345745725811e-01,4.207607456285953340e-01,4.596917767262749810e-01
4.908820407370826366e-01,5.111433442032844443e-01,5.148894005243952465e-01
5.619379258339100014e-01,4.984326745111071211e-01,4.925907842433145389e-01
5.143310186660513539e-01,5.277360180931991440e-01,5.205815967615989859e-01
5.263559867765705835e-01,4.632863169970357076e-01,4.314248081858597095e-01
4.357236796186352290e-01,4.635931075612134689e-01,4.753707979954766016e-01
4.483183620877601583e-01,4.947954366485911026e-01,5.839540046842104370e-01
5.186467836780603857e-01,5.117169740619564866e-01,5.035456383999122876e-01
4.919055417859370394e-01,5.346839827901455067e-01,4.562266419625143898e-01
5.268999396346121245e-01,4.896817965455261823e-01,5.356078024077102206e-01
5.219628960999730394e-01,5.372850034523777296e-01,4.901016531929617281e-01
4.734832945109344049e-01,5.316665066743414547e-01,4.257702908796275887e-01
4.997502210732266414e-01,4.775710867812525406e-01,5.463245448327629372e-01
4.894925933882973701e-01,4.659223935809549966e-01,5.261473777241334471e-01
5.850032179217206085e-01,4.855701664503889736e-01,5.233224723918793453e-01
4.908282792579903853e-01,4.806694396285087212e-01,5.025917645056050542e-01
4.170439239434615697e-01,4.959244117643017424e-01,4.766950226049539996e-01
5.759154146523637330e-01,4.304298926123973912e-01,5.642107383066827797e-01
5.805321585614899860e-01,5.581035293749297965e-01,5.417812690557588517e-01
5.034466133610561167e-01,5.332318295053832813e-01,5.502459680156086552e-01
4.170590188479734728e-01,5.057199219263711631e-01,4.798933554301285098e-01
5.115729639764144965e-01,5.353757926333596595e-01,4.244162062339955632e-01
5.234371494205161124e-01,4.627343476129243127e-01,4.235935901683186011e-01
4.427188610246168832e-01,4.119446435707343479e-01,4.802650384026901920e-01
5.115963143931355761e-01,4.951118561930538675e-01,5.171918892395143130e-01
4.596070845348734224e-01,4.882334851664236197e-01,5.111532284743242061e-01
5.229026432191713480e-01,4.677988829336052201e-01,5.573642781756175113e-01
5.726767198234663514e-01,4.748791817058275466e-01,5.108872034407377916e-01
4.851184365633777196e-01,5.076591569519771641e-01,5.119379806905360875e-01
4.765062061997074050e-01,4.796906183154833747e-01,5.086637364132248207e-01
5.229573892084103948e-01,4.786118202967530322e-01,5.214554241879881813e-01
5.037624235941620121e-01,5.081412311810399318e-01,4.606980241909853779e-01
4.538709908604131038e-01,6.143905612943234562e-01,4.924577254633785151e-01
4.751329876748163206e-01,4.976175181412508808e-01,4.843575135056951697e-01
5.295582961508298325e-01,4.146437048275578019e-01,4.688873011737785257e-01
5.142181259550909767e-01,5.144810915899534765e-01,5.158994921322467286e-01
5.137347180987732465e-01,4.997495581560235101e-01,5.793337207612967443e-01
4.721604773130878008e-01,4.727356961761478016e-01,4.470555959411270375e-01
4.828016973987544480e-01,5.905528113218208031e-01,4.283452207808257084e-01
5.347797742108674202e-01,4.449302460488621103e-01,4.424774469052766279e-01
4.885226388697682109e-01,5.786561799886102975e-01,4.501787466013110750e-01
5.024506899309373331e-01,4.617735820252590884e-01,5.286181376110539176e-01
5.028391308982095298e-01,4.633808565903069776e-01,5.453167563676338814e-01
4.425698208567219183e-01,5.100648244090404404e-01,5.549796274101728155e-01
4.903542611753479163e-01,4.675095330631398594e-01,4.780079112783905404e-01
4.611238469420765873e-01,5.121959864303997634e-01,5.452062119002707430e-01
5.662162523298880368e-01,4.968166838703058086e-01,4.684282608113526924e-01
5.102713029841988712e-01,5.064430232614438587e-01,4.057761921374819503e-01
4.761648871840230002e-01,4.894293595175145395e-01,4.476581370489599587e-01
4.671570995402518078e-01,4.386189889182621759e-01,4.766636309144569594e-01
5.873161758123378595e-01,5.504018453362036212e-01,5.083894380073505914e-01
4.912243737117101827e-01,4.301568172331032280e-01,4.474381834569280958e-01
4.780104146862382275e-01,4.958187940639743330e-01,4.671169073332547272e-01
4.285244845117469059e-01,4.872615723923772735e-01,5.512394224975338819e-01
5.464967238491473811e-01,5.152981929292036467e-01,4.913210046717263468e-01
4.826237843750022516e-01,5.298349649015344776e-01,4.807327813314060672e-01
4.436038173281280916e-01,4.271289437462991168e-01,4.858885481919719140e-01
4.867757895035811910e-01,4.519463807243616071e-01,4.932594248353182609e-01
5.413308461951967798e-01,5.838787637428363153e-01,5.156337224515878948e-01
5.241229050263979117e-01,4.432642831415192775e-01,4.454725442266981306e-01
5.460341029340866070e-01,4.515249732535398519e-01,5.084325726622069830e-01
4.949479446547952466e-01,4.422521987621991224e-01,5.512438798927334904e-01
5.334154672845335954e-01,4.745618521908300247e-01,4.664330695266266091e-01
4.981385421818016468e-01,4.797083553845407078e-01,5.003149261676824722e-01
5.277080844209517396e-01,5.703780682624984832e-01,5.347467861097850994e-01
5.406673893073499215e-01,5.439950377785253144e-01,5.272064104946676544e-01
4.069144042523826776e-01,5.329614741606927275e-01,4.748661388847944531e-01
5.447952560698166025e-01,5.302191322355093162e-01,5.239052511247193067e-01
4.734391624363626927e-01,5.271715234806184647e-01,5.336223927369717623e-01
5.172891746790612144e-01,5.445676116254684063e-01,5.009674482145715091e-01
4.426957466395530227e-01,4.469072281351758047e-01,4.760626378285052196e-01
4.535954221491666494e-01,5.384094801287767629e-01,5.032877030646314420e-01
4.470001497287456882e-01,5.150427706518410087e-01,5.037184793545510519e-01
5.258823361071542912e-01,5.241400379277203481e-01,4.587156743305260131e-01
5.432087348210552502e-01,4.869569488417576086e-01,4.527077699228247987e-01
4.836759475033107214e-01,5.214443009230574910e-01,5.137116372679777498e-01
5.121982625014931401e-01,4.805038776436078574e-01,5.130291150225964047e-01
4.488148142474098212e-01,4.621213703861667410e-01,5.055314044692278408e-01
4.858088747078825320e-01,5.090520390248951532e-01,4.898921127572274936e-01
4.285189942874751967e-01,4.956140786301750922e-01,5.108416044390222677e-01
5.034480088466493086e-01,5.802619105365315333e-01,5.033915784585052400e-01
4.467615776025791741e-01,4.599925337981810025e-01,5.593645578557238096e-01
4.507482170612574501e-01,4.821958051575098159e-01,4.801764685478809302e-01
4.657043654445487957e-01,5.070787283474792462e-01,5.324037266996871631e-01
4.276556987606785487e-01,5.074186401694907866e-01,5.084919076031799712e-01
4.633058008898325308e-01,5.165089293840831042e-01,5.158097013106538453e-01
4.570735703380528481e-01,5.674832228044197624e-01,5.480327946346545964e-01
5.478349927765253646e-01,5.296310146689423570e-01,4.937826309342180919e-01
5.118445099386679242e-01,5.849553797334621219e-01,4.469132519613210341e-01
4.520643197461081675e-01,5.102080516778684238e-01,4.587194559618132383e-01
4.609825150780175740e-01,5.288526023049764380e-01,5.206835889793741678e-01
5.147667412760934535e-01,5.593131246287639247e-01,5.024504786083815455e-01
4.445213339891275761e-01,5.144384111489042066e-01,4.842965180782033419e-01
5.023603131280008904e-01,4.751593730912049285e-01,5.311932065844988671e-01
5.521941174970361743e-01,4.164030660736732226e-01,5.568388146057935417e-01
4.750305476600726329e-01,5.156949267522958902e-01,4.812559176612686840e-01
5.686859729015329989e-01,5.167759724620324402e-01,4.819178055312742237e-01
5.400248218125690558e-01,5.098560870236539255e-01,4.609841165704082755e-01
4.790514867319871084e-01,4.417755807095393172e-01,5.390246871446812138e-01
4.932305687510231129e-01,5.505193178560524592e-01,5.289061799458701918e-01
4.566689563118540574e-01,5.280528737734239142e-01,4.789658143346980923e-01
5.134234207747371270e-01,4.599607253846768606e-01,4.336364963043150000e-01
5.454363711492443700e-01,5.343481284032890466e-01,5.464166055009727074e-01
4.805907795601546684e-01,4.605016440210180084e-01,5.312703070582550646e-01
4.508379319006169950e-01,4.891980102238771555e-01,5.146553029606134588e-01
5.230278855957252171e-01,5.135694025779231620e-01,4.420954193614215488e-01
4.928074466172793766e-01,4.158426203542147093e-01,5.068667653338044810e-01
3.860909035349466278e-01,5.411652254374458293e-01,5.538552719558506032e-01
4.874509500591908684e-01,5.146501786142619883e-01,4.613533715920902778e-01
4.045941343067970819e-01,5.071941629708035526e-01,4.499409611906367568e-01
4.100754456194887210e-01,5.533833707055441087e-01,4.734097201363231533e-01
4.886367132027383819e-01,5.331793689543609105e-01,5.298426537230516153e-01
5.460857274465917843e-01,4.497591510746873356e-01,5.718652382342935825e-01
5.298166640990097376e-01,5.482463537338022608e-01,5.007932691073612164e-01
5.568291291733902248e-01,5.432023696552341629e-01,4.641579343374561128e-01
5.156545240707318678e-01,5.275260298976810480e-01,4.897101041599293825e-01
4.787181103210383926e-01,4.761748648366607162e-01,5.056994083490469194e-01
4.694955081862948187e-01,4.709230538574730729e-01,5.342122528579862362e-01
5.627312613692744270e-01,4.996473788554144368e-01,5.227472581384519090e-01
5.009181339418451451e-01,5.006553209612614186e-01,4.884584936139915179e-01
5.032652435105385846e-01,4.720081938209376715e-01,5.594499306110669590e-01
4.952049309032847124e-01,5.448716088532640223e-01,5.878659229516066675e-01
4.731940279247914272e-01,4.727325700227031913e-01,4.954417428082326103e-01
4.758535551520471363e-01,5.822298257221570905e-01,5.388032648444780470e-01
4.329451251847665771e-01,5.025976755183029221e-01,4.925855050512964461e-01
4.515743499895338853e-01,5.044761523874957687e-01,5.014857633561484729e-01
4.512385867146491147e-01,5.024485306344009805e-01,5.512662565824874017e-01
4.943239941080073141e-01,4.349472727024121799e-01,4.727158285219270062e-01
5.249530489613938311e-01,4.944142902952554097e-01,5.110272400222538591e-01
5.465398862376414924e-01,4.801930896442180852e-01,5.278125748660964511e-01
4.600950278259806070e-01,4.952561895052683405e-01,5.446047784170227057e-01
4.881538430206404655e-01,4.950760845885999184e-01,4.386430937977378042e-01
5.381305980826713853e-01,5.171226417241314710e-01,5.197835459244072309e-01
5.412121221816537098e-01,5.176083463644702842e-01,4.715479035546527031e-01
4.867662367544994262e-01,5.072716366499833152e-01,5.149011370932575771e-01
4.536488083417022921e-01,4.186986942887941932e-01,4.185565673296340883e-01
5.026628557951984266e-01,5.192549901661298595e-01,5.101433977057262537e-01
5.326353232210226940e-01,5.702632289947372479e-01,5.288199454129086652e-01
4.801936230855021193e-01,4.670464238677394797e-01,5.452265238345340714e-01
4.578828490877360768e-01,5.303378599424649620e-01,4.809666273895650268e-01
4.882872924534497061e-01,5.838216310380239804e-01,4.469899702064796254e-01
5.735672389321649911e-01,5.319118563373042008e-01,4.988703673277993800e-01
5.264685319884365722e-01,5.042688706142164357e-01,5.059446680152649423e-01
5.059250559149851556e-01,5.196022081745521604e-01,5.326837370445823838e-01
4.254538673045489272e-01,4.876353520773655248e-01,5.368066480307029931e-01
5.581294001121857029e-01,5.739866961017067171e-01,4.910081151992605197e-01
4.926580718276931115e-01,5.663445587779925017e-01,5.574146175934173719e-01
5.091254854806105401e-01,5.143905270153492637e-01,5.068572650560490001e-01
5.111635054867048611e-01,5.058131700461698799e-01,5.510377476091098403e-01
4.554163377164736626e-01,5.126962392703628968e-01,4.675524225529391065e-01
5.521805543154001406e-01,5.158676227423196758e-01,4.518156475378372616e-01
5.198596419264781554e-01,4.920053874774961145e-01,5.381726669585384926e-01
4.972249084922271134e-01,5.369972472499514593e-01,4.973349104647321051e-01
4.778458603042277653e-01,5.138908872610167267e-01,5.116160376714523617e-01
4.818962213817867268e-01,5.671016462991835816e-01,4.602312729324825602e-01
3.894274632214572152e-01,5.464900542874702172e-01,5.067518087671015747e-01
4.886948908537297465e-01,4.473818928228731617e-01,5.477722108840855642e-01
4.701114975034879628e-01,4.629375072392532542e-01,4.818600384881219778e-01
4.929276087748512558e-01,5.609896829584291034e-01,4.536905642397706107e-01
4.655380695519078516e-01,5.451117937985037187e-01,4.549811161359278988e-01
5.268212145447225270e-01,5.106368068278676065e-01,5.629059882136486781e-01
5.288233695215270869e-01,5.696173992164625943e-01,4.919980530730275192e-01
5.249834361847175446e-01,5.445963346395210625e-01,5.330310508931203062e-01
4.818147135658166769e-01,5.194154709441594076e-01,5.220503952334942799e-01
5.202651402920547286e-01,5.047394083814659149e-01,4.795010426681968196e-01
4.771386544354687120e-01,4.802845584196852591e-01,4.774318754121351649e-01
4.943773968807171904e-01,5.096659012155027035e-01,4.838591800143516308e-01
4.925313270661443310e-01,5.120493219443483790e-01,5.031766809507531857e-01
5.065021367037877420e-01,4.577038179155307196e-01,5.170550835511474874e-01
5.582795361348339425e-01,4.110688857411916586e-01,5.032941271575653852e-01
4.898822981764730522e-01,4.611551600881593216e-01,5.701528600716030404e-01
5.338278230040145456e-01,4.113188921881735793e-01,4.747896522639460937e-01
4.256131423160722793e-01,4.896331998618059234e-01,5.064531953151885091e-01
4.718149265483882471e-01,5.197975701697521433e-01,5.734700209617299427e-01
4.962054069876043472e-01,4.895592886655681930e-01,4.919432882670432550e-01
5.136185510237143426e-01,4.349768148272133983e-01,4.874923056905537955e-01
4.841848041755167364e-01,5.247417121599703416e-01,4.941794476889306287e-01
5.101634906773320211e-01,5.464113682308507913e-01,4.729744202911015383e-01
5.171372922869275079e-01,5.141062119886140591e-01,5.208393968275579766e-01
4.907099842953670521e-01,5.442047660839318679e-01,4.586213669104714508e-01
4.125003514578911012e-01,4.911707315430025034e-01,4.706274885117624485e-01
4.955507604632284901e-01,5.194860772200871057e-01,4.681426123101614101e-01
4.960269440648206740e-01,5.717992407658235576e-01,4.754118221268720523e-01
5.415724829007665386e-01,5.310323798498638448e-01,5.162581135107968677e-01
5.286261216242849059e-01,5.825786675800249670e-01,4.926661850458985414e-01
4.910755593566776267e-01,4.986953005466710498e-01,5.388007187431871348e-01
5.440720613278012818e-01,5.420582526557673475e-01,5.919013983950319746e-01
5.212172961360594936e-01,5.495280671542464024e-01,4.730588495963414797e-01
5.937300294899068298e-01,5.145965127898903813e-01,4.832233829726431673e-01
4.670078075833579700e-01,4.639065127667520438e-01,4.275590089856387555e-01
4.376353668467223845e-01,4.704964316776306665e-01,5.008604866078147921e-01
4.995447007690439478e-01,5.597737121953656469e-01,4.820896763903829152e-01
4.990177891047505865e-01,5.158428882907288848e-01,5.168367971647220838e-01
4.817185803091929008e-01,4.914333912596033915e-01,4.497409094492482162e-01
4.883478457476649881e-01,4.797145321358946002e-01,4.714214380788263048e-01
5.016950061019614937e-01,4.794463195563317126e-01,4.944811741853349929e-01
5.129392392113995003e-01,4.938344291180787327e-01,5.209805621009634402e-01
5.124845942359094186e-01,5.197734570795591313e-01,4.412000503320223643e-01
5.214640943460299161e-01,5.820067530121930677e-01,4.944870394204525232e-01
4.801174344257428950e-01,4.656053857106878247e-01,4.208760799933724539e-01
4.092777118625469668e-01,4.622623257347082681e-01,5.155708072051875535e-01
5.326074375760014856e-01,5.259383478197954265e-01,4.490700652771705825e-01
4.886503169659627832e-01,4.434900531022693548e-01,5.234586020362731462e-01
5.074558681977238139e-01,5.025776975409220748e-01,5.269248999094194863e-01
5.784159238734914998e-01,4.918171743558406583e-01,5.397430569558886448e-01
4.615454018475168008e-01,4.657524787386607690e-01,5.185409859142503519e-01
5.123279696024705121e-01,5.709274529089383154e-01,4.569026338263815767e-01
5.412246720623014040e-01,4.995964182179617463e-01,5.058864485334344518e-01
5.017906150715444324e-01,4.829942086347044361e-01,4.518181742321306094e-01
4.647756489429160642e-01,4.865041464780951452e-01,4.673846189489250791e-01
4.818949405352909721e-01,5.176274353542840156e-01,4.966714049463230030e-01
4.009127025744310124e-01,4.325651898395323491e-01,5.284652844735746591e-01
5.363494941803805816e-01,4.874734403946156536e-01,5.368863733995405951e-01
4.663590648837129260e-01,5.477779019308316455e-01,4.573494332564837506e-01
4.709680983105015706e-01,4.362748642919613840e-01,5.032009775194528078e-01
5.724774787356730066e-01,4.609462610729181953e-01,4.741867012310631013e-01
4.922346836543284310e-01,5.195744932548227446e-01,5.241092230298580734e-01
5.111144236318289069e-01,5.370334041084247056e-01,5.046628717779387818e-01
4.031247519463925788e-01,4.686239208342552476e-01,5.330316407499026132e-01
4.612126540409355879e-01,4.948980397225768990e-01,5.402605283023720339e-01
4.389911716536893382e-01,4.959824752722957752e-01,5.528268635475128701e-01
5.147663380525970833e-01,5.184144811043400747e-01,5.504914949804073920e-01
5.395472827076043254e-01,5.897784325086049551e-01,5.166973693340333185e-01
5.096266926951384946e-01,5.378880118326663240e-01,5.136059393836681641e-01
5.501933084931555085e-01,4.775678270553941340e-01,4.751944236940423560e-01
5.471451476884051646e-01,4.386680986768926038e-01,5.191750954947672581e-01
5.430404996932144401e-01,4.647855115177007002e-01,4.766655256015641107e-01
5.225094013480129362e-01,4.743563185078597533e-01,5.052876928288163594e-01
4.139327549194153910e-01,4.867782919119041929e-01,4.891312483809571177e-01
5.191270513958532451e-01,4.769938264500533931e-01,5.397694299786495176e-01
5.161536157945637582e-01,4.838345671596671060e-01,4.609574868127044867e-01
5.289172312975161105e-01,4.628013282946207840e-01,4.502756905369799667e-01
4.686017334140857860e-01,4.556573175334006631e-01,4.395145778143242921e-01
4.670592598117449534e-01,4.902538369879584357e-01,4.865759986056907849e-01
5.025812062369096056e-01,5.098569822180201161e-01,4.984423011875203646e-01
5.403941972566792540e-01,5.563557820123019582e-01,5.196144075311365240e-01
4.544514559648168972e-01,4.024813705138673980e-01,5.381740122901400580e-01
4.517757326615892133e-01,5.348020044752903601e-01,5.850016319565591871e-01
5.231559760569850503e-01,5.204626812791244284e-01,5.220434852183483132e-01
4.605345681666040414e-01,5.177290379014882760e-01,4.239902301199315882e-01
4.859158177447042704e-01,5.355526369248158058e-01,4.598325092998226671e-01
4.845008988709726405e-01,4.976671070040584732e-01,4.363885221630861011e-01
4.748219788555556597e-01,4.770656477836208720e-01,5.272964258658581205e-01
5.094713588301177376e-01,4.722618949685926659e-01,4.615865015106422886e-01
5.107896178077019345e-01,4.884054721979281255e-01,4.913105660881363912e-01
5.148373318962061740e-01,5.330720626953713293e-01,5.274553249450896208e-01
4.825467972558216134e-01,5.152423004325081823e-01,5.680446856438589043e-01
5.299433242060288540e-01,5.617058873526342699e-01,5.158536523724349676e-01
6.084725163943162096e-01,4.412352815682336615e-01,5.810715743331004157e-01
5.403930640952092634e-01,4.570721162717693575e-01,4.645191038787478965e-01
4.712364331162933184e-01,5.184333193915995341e-01,4.718983255359545104e-01
4.769466797637332278e-01,4.301086498067649977e-01,4.367596036047196040e-01
5.045610869245423791e-01,4.920012915467619763e-01,4.369859772339865223e-01
4.489228547272103853e-01,4.590534542138808849e-01,5.133355874308493938e-01
4.720015767698289566e-01,5.307731096985845998e-01,4.548402638537156761e-01
4.471346450746141454e-01,6.101487260374124366e-01,4.850272612813492090e-01
4.460378590198393889e-01,5.696816381006710728e-01,4.457346237761576901e-01
5.069692145506433656e-01,4.756209506549218258e-01,5.653696166295887338e-01
4.647078436091224285e-01,5.293571392971990752e-01,5.970418814684786968e-01
5.159596428380829325e-01,5.549035901571051088e-01,5.369436948150126954e-01
4.873763174334130865e-01,4.550757068462653598e-01,5.132685839967159325e-01
4.786970567328998061e-01,4.906934853074149117e-01,4.780491615747075040e-01
5.185248816683155626e-01,4.912130851430091538e-01,4.736801654295523245e-01
4.929848046682198670e-01,5.405578162545024989e-01,4.681758040631247009e-01
5.872209467094638979e-01,4.471654882791610830e-01,5.297103774642959451e-01
4.571259403531790499e-01,5.034631908146161017e-01,5.572944264938310965e-01
5.448697016513907032e-01,4.863314535574886355e-01,5.043197411979863931e-01
5.300260261624386571e-01,5.304489958664599936e-01,4.571417218380035008e-01
4.844218473919511547e-01,5.735051937053645688e-01,5.260037863385056411e-01
4.980932722519669231e-01,5.150752332652560606e-01,4.537398432871287968e-01
4.838901032210985997e-01,5.383357435758129306e-01,5.528893382276452995e-01
5.229905554199375528e-01,4.890860708904876675e-01,5.886301711039344520e-01
5.095235050094413243e-01,5.295094987076311988e-01,4.800785396128929294e-01
4.624085179591604922e-01,4.535713918355236407e-01,5.678269625812165655e-01
5.503236703850272749e-01,4.946381324168071525e-01,5.043681209902928231e-01
4.666088863995612179e-01,5.595500991194105600e-01,4.333477938484347480e-01
4.377268006943547118e-01,4.814520373157287758e-01,5.150113976858872178e-01
5.527645762480056790e-01,5.269025772616455772e-01,4.447575190503395559e-01
4.540517069334102374e-01,5.337207880470302701e-01,4.917507489392244913e-01
5.139154075719203352e-01,5.072657845921997311e-01,4.977547484192598737e-01
4.730807075601590195e-01,4.629505683137128402e-01,5.293961787377969852e-01
5.304482238082379730e-01,5.706130647772827968e-01,4.521409684992240829e-01
5.158299146545284319e-01,5.264958389004379402e-01,6.199558196116033981e-01
4.876197414745165881e-01,4.796673013598951041e-01,4.928578409123311466e-01
5.156367160175638897e-01,4.459558316412430279e-01,4.864634062976480045e-01
4.949263898914343929e-01,5.188377958661990474e-01,5.067332274531950453e-01
4.780905359188747372e-01,5.031929016292976398e-01,5.121326879456403747e-01
4.846340821879427940e-01,4.857679322362362107e-01,4.517102079742428833e-01
6.085482632295293737e-01,4.611108159171353194e-01,5.009370336435379212e-01
5.430253038872148164e-01,4.998085558695400388e-01,4.714566690098778157e-01
5.511163402572640813e-01,4.712207179030942217e-01,4.855534122196362712e-01
5.940959874920416217e-01,5.410625564457035575e-01,5.218157581079085894e-01
4.507938307275174972e-01,4.791721988306827940e-01,4.684171232150335928e-01
5.093589342210804727e-01,5.592632700725365114e-01,5.177947133057214657e-01
5.201432948022799430e-01,5.548796865991941774e-01,5.625669063553089266e-01
5.039489422615800462e-01,5.549729462777596156e-01,4.747863069007672299e-01
4.957214509526688406e-01,5.473987517763606592e-01,5.395486283780811521e-01
5.182282601429930580e-01,4.161715434362374122e-01,4.433939011306430311e-01
4.896637513913612572e-01,3.971715697558300673e-01,5.165293234290011526e-01
4.430556572234326529e-01,5.482062342140113786e-01,4.192135824366993724e-01
5.601609070918867062e-01,5.208048817420761756e-01,4.597154910406874850e-01
5.627667016580663040e-01,4.544714805356397380e-01,4.684212214898856863e-01
4.949486438310847225e-01,5.635861689714928291e-01,5.047821678771496900e-01
4.630419328071198604e-01,4.785664002917456306e-01,4.832143655460141018e-01
4.335189312545946749e-01,4.712139799700687526e-01,5.510312496758760226e-01
4.149366022894431794e-01,5.362704840252455751e-01,4.596511999691371142e-01
4.447087790527937678e-01,4.842866352370118199e-01,4.710571611770530409e-01
5.272487509233088065e-01,5.279094273004651949e-01,4.951743331182508201e-01
4.742305049780172754e-01,5.379666680830254011e-01,4.499158099749422379e-01
5.551340362209002954e-01,4.608402066272380693e-01,4.530052867496875413e-01
5.085647001439365100e-01,4.718227082100969749e-01,4.983394839361514062e-01
4.870073502884950667e-01,5.149690770712910259e-01,5.038979118837162430e-01
5.243975340374618099e-01,5.358717126001989461e-01,5.594130089151351237e-01
5.366183117477947295e-01,4.595751004931969974e-01,4.691779848816422516e-01
5.044817945826549632e-01,5.002772514537453530e-01,5.252454440737689412e-01
5.253577784188878663e-01,5.197668136172568509e-01,3.984728175372477810e-01
4.888727690827165406e-01,5.552537489765532186e-01,5.022424170229806695e-01
5.008607468261011553e-01,4.935239064158880584e-01,4.885997393778301334e-01
4.639904401285443458e-01,4.680788055199472941e-01,5.442761739396710929e-01
4.039453870726432139e-01,4.937842348781212864e-01,5.687044955710768290e-01
4.599876003829144744e-01,5.320206419286418464e-01,5.499522149839448648e-01
5.086547232687691489e-01,4.707793839944799941e-01,4.434752273185185723e-01
4.857786620455994409e-01,5.497206190566756856e-01,5.312600295576244136e-01
5.221804426057432558e-01,4.982702868849154809e-01,5.230962101364645678e-01
4.863924344875111827e-01,4.977739785630961311e-01,5.062653743608188650e-01
5.346212282514792857e-01,4.457302525859719866e-01,5.007094905269796614e-01
5.031968137432832888e-01,5.727512924669305727e-01,4.842463126297427145e-01
4.509119066608505144e-01,4.694975138659281400e-01,4.695707827313767013e-01
4.827585388801813870e-01,5.332565857644744334e-01,4.700735156403937354e-01
4.846995836860821805e-01,5.149499958471096539e-01,5.738328712085760674e-01
4.222208634824668461e-01,5.005662616971648937e-01,4.691630906786017907e-01
5.006079259743851928e-01,5.568849491005277708e-01,5.083776734350845539e-01
4.555955397211496338e-01,5.470841579708642932e-01,4.885326410875457936e-01
5.568351518888509100e-01,4.834798207143343740e-01,4.675440812624376830e-01
5.238260390664114530e-01,5.123887228482025824e-01,5.183294440400385561e-01
4.756389181345504480e-01,4.245170176938186657e-01,4.692674898634627834e-01
5.398458254413579516e-01,5.214345674343771053e-01,4.880425734842674390e-01
5.197047408626923604e-01,4.859149089217600914e-01,3.894075592618790882e-01
5.605555973232453360e-01,5.031462898140881546e-01,5.001155839575985862e-01
5.328937217433640239e-01,4.817555420458680682e-01,5.010903439795834080e-01
4.719452391218108556e-01,5.061482457371294652e-01,4.225210250961730640e-01
5.037310191380774960e-01,5.255837206442720566e-01,4.853439414302808674e-01
4.683385468297027732e-01,4.501771358820797486e-01,4.723998762724401779e-01
5.187542905737542176e-01,6.179076540765777725e-01,4.936898573268596047e-01
5.522891096946798140e-01,4.978501672236740339e-01,4.394722922451830827e-01
4.718670490881667345e-01,5.036341409926857748e-01,4.756197365393131649e-01
4.909325084583787135e-01,5.091539173010147801e-01,5.093276112616974549e-01
5.666649949857027746e-01,4.846850599130165249e-01,5.359863427200488584e-01
4.415097241142826312e-01,5.240193257668676052e-01,4.594528909741488754e-01
4.136385008173035782e-01,5.206596444883911934e-01,4.909585860020392878e-01
5.110708829546198873e-01,4.580627357859316517e-01,5.240545756293000235e-01
5.131295248440862489e-01,5.017655046551775522e-01,5.118273621784467098e-01
5.164030825030346827e-01,4.683501018262339888e-01,4.407086530319441753e-01
5.744875473596288140e-01,5.763941836373154270e-01,5.215739698308925476e-01
5.011535887513884902e-01,5.550242591574499063e-01,4.679835656603912875e-01
5.587852128970947074e-01,4.800566555572466920e-01,4.624108274092826876e-01
5.031074351987298021e-01,4.829931919427575826e-01,5.045084413641268695e-01
4.192166117406717629e-01,4.771232342105629076e-01,5.114043266166683477e-01
4.628273947267055877e-01,4.269515828683997927e-01,5.419622872626079779e-01
5.027989572564273146e-01,5.333462648792958172e-01,5.259007938089141909e-01
5.125852122197296357e-01,4.358577618916744112e-01,5.986904366508930542e-01
5.435393602640640198e-01,5.050276387374044162e-01,5.490224236346457065e-01
4.487183100061618024e-01,4.865901715542905182e-01,4.991291892130192975e-01
5.084396968387795424e-01,5.077731878602551596e-01,4.921339057414126916e-01
4.887310667067414349e-01,4.163485782987231265e-01,4.629534227110810862e-01
4.736048844273479941e-01,5.025126147654616071e-01,4.956637901812318558e-01
5.167904477207245773e-01,5.479872251596364929e-01,5.676147847185007977e-01
5.636390144725790252e-01,5.138588102402786850e-01,4.503464104616222152e-01
4.394432564711677758e-01,4.379484141894455784e-01,4.778898263185333284e-01
4.559493256319426813e-01,4.321041434920859792e-01,5.151978823233733795e-01
5.205807799074918529e-01,5.010168149796749848e-01,4.530645640997429946e-01
5.472878593745732489e-01,5.389152938812208360e-01,5.229951478289063260e-01
5.782521644279313699e-01,5.656779880018445450e-01,5.406779245132762313e-01
4.658042965907452371e-01,4.689225375917933092e-01,5.090210024506439668e-01
5.017755633095973833e-01,5.475302019152115118e-01,4.260020250780360285e-01
4.951515930967260726e-01,4.940548728065929374e-01,4.850534711467250348e-01
5.365900356248128888e-01,4.505463915074961467e-01,5.091644402221366938e-01
4.823162416686690990e-01,4.961732954709680010e-01,4.707238351682306865e-01
5.102040514369430291e-01,4.811682140851505363e-01,5.405192671230905077e-01
4.162038942492375382e-01,4.855433116549579542e-01,5.134056453742928960e-01
4.814580502412224572e-01,4.615070546225537029e-01,5.656393374444906863e-01
4.817189087623044985e-01,5.080515718835373340e-01,5.345826622381141258e-01
4.875809117280382465e-01,4.800450544504492600e-01,4.138541078642128945e-01
5.482952359220159000e-01,5.221514409602878715e-01,4.547502411694899771e-01
5.188682903205841246e-01,4.854551258469215758e-01,5.270865691523589636e-01
4.848473649145759734e-01,4.904284973769744704e-01,5.479286924414630278e-01
5.200563115154673843e-01,5.745680463112999847e-01,4.678410359332688673e-01
5.039107524552614015e-01,5.361719456840239317e-01,4.164034963989791671e-01
4.762552704155916805e-01,4.650663589388893682e-01,4.246162619440408958e-01
5.414206799893920286e-01,5.041479939329944759e-01,5.522762542810222275e-01
4.964934710448944410e-01,4.907877271996951563e-01,5.166357208584709815e-01
4.596969616627064048e-01,4.798348970772604027e-01,4.530974073931962609e-01
5.180189228459020079e-01,5.048937844986435275e-01,5.324919205480441731e-01
4.964313335138414995e-01,4.597166822596662761e-01,4.828668674001832528e-01
4.784557136898561214e-01,4.707303044093241740e-01,5.134584294319270992e-01
4.458742775456288054e-01,5.301236695993882808e-01,5.784957644517575437e-01
4.114363891793690331e-01,4.639920059914741657e-01,4.815219480276255459e-01
4.860468325191756311e-01,5.576643440017287068e-01,4.203996364115533679e-01
4.798476953021345581e-01,4.949296622248015587e-01,4.877090952449978922e-01
5.729216381530296553e-01,5.594878914117423774e-01,5.456708426001780632e-01
5.295928652806644044e-01,4.771161035259122718e-01,4.719265089021152937e-01
4.957245183413143130e-01,5.257789916095948479e-01,5.710887146205904097e-01
4.932303498176016099e-01,5.056759847039534739e-01,4.884350662172244339e-01
4.315227190107749355e-01,5.265801148334181558e-01,4.634127514262418868e-01
4.392851980570205983e-01,5.417762638090842797e-01,5.167583160698695499e-01
5.533237689957257732e-01,4.906966130297996109e-01,5.462247467024727854e-01
5.078290933902743776e-01,4.939720071518358679e-01,4.701950798473528703e-01
4.903957644983095165e-01,5.088891053909981865e-01,4.927904380618886027e-01
4.395621568946007085e-01,4.767986387702198847e-01,5.425971622104953651e-01
5.113825513526627509e-01,5.436172309565728833e-01,5.380263445417289292e-01
4.981239443987101612e-01,5.194687391858296976e-01,4.399675864771908085e-01
5.266301111890334674e-01,5.000784385391151554e-01,4.792148419278211557e-01
5.311964755027419605e-01,4.724663724944900833e-01,4.957270026634544857e-01
4.997848707039157512e-01,4.882447903025385338e-01,5.208290961791409712e-01
4.751494627795477266e-01,4.601549765080067966e-01,5.111188772256298751e-01
4.983587969599387324e-01,5.689088377019748677e-01,4.587232503782024406e-01
4.670082203085527683e-01,5.728383528571847627e-01,5.486660281776803982e-01
4.887354805094851207e-01,5.734352322658363699e-01,5.409782890267256228e-01
4.469805024406893756e-01,4.577622054455742773e-01,5.279777073581850555e-01
5.443748599058360060e-01,4.784238366612464377e-01,4.882445717713104205e-01
4.668952159554849435e-01,5.065641439631957121e-01,4.578001924921038523e-01
4.922987883907878337e-01,5.782770946058229944e-01,5.013078952882912276e-01
4.606798054830535394e-01,4.768517287549606798e-01,5.275161714720342232e-01
5.278352492780019611e-01,5.527773271810305644e-01,4.694071504806828776e-01
4.755134101432996752e-01,4.457870661239294319e-01,4.764954508514139264e-01
5.177315961620055917e-01,4.585026824382667510e-01,4.575124086692999859e-01
4.920936032900283807e-01,5.416084245848485912e-01,5.803101360563115430e-01
5.117835226354681133e-01,4.714878974107316600e-01,5.478541839629369470e-01
4.948056753116844009e-01,5.123497535260265190e-01,5.249615644198801778e-01
4.910498030513931189e-01,4.962738974149960014e-01,5.425114758559291817e-01
4.779360898641028532e-01,4.413848142122417939e-01,4.711350713867699103e-01
4.806667524793971635e-01,5.169058948067585257e-01,4.663553014686686593e-01
4.352540895203350635e-01,5.198628696184486309e-01,4.610211216961053182e-01
5.344485318971223808e-01,5.148414361680431206e-01,5.027582748067638274e-01
5.016479395191318913e-01,4.919704211413846173e-01,4.575878636179134817e-01
4.813988617392681579e-01,5.103329074911595598e-01,4.890873701545748742e-01
5.033669583141672232e-01,4.434183718575021582e-01,4.902231002732876930e-01
4.452265839609697573e-01,4.881443750167946405e-01,4.353324299273427234e-01
5.760581428111265501e-01,4.829857228019243665e-01,5.279610819914329900e-01
5.287198206644345699e-01,4.374964337063198538e-01,4.635746716632507813e-01
4.466694620528400828e-01,4.428945386440440446e-01,5.465722316335529518e-01
5.125842442249746167e-01,4.946152049602732248e-01,4.788690997767922064e-01
5.301578822917364375e-01,4.940100449953205297e-01,5.134471782684758567e-01
4.827328041786574930e-01,4.572710360872002666e-01,4.630088259378840609e-01
4.749202453604175478e-01,4.668640682165831612e-01,5.311331500321055943e-01
5.287565760091786915e-01,4.660193233418057357e-01,4.554054805708342979e-01
5.752158363896573423e-01,5.725651429278763027e-01,5.260989308987776836e-01
5.344303914554233703e-01,5.264333337779086852e-01,4.834315832674517810e-01
5.303685605996451002e-01,5.187788421152944585e-01,5.076771329123900278e-01
5.108877494876946646e-01,5.293132200713552837e-01,5.584825711613264909e-01
4.726777228942934950e-01,5.371386735338349316e-01,5.348541965191869751e-01
4.997276733903089352e-01,4.287312927432334053e-01,5.493166211940869736e-01
4.493839557046643285e-01,5.464629066422451720e-01,4.226597386128667089e-01
4.103074306227008083e-01,5.667925834865928936e-01,4.065247511484471610e-01
4.722326315925068907e-01,5.393918517067162188e-01,4.992311742520288420e-01
4.339096021215341215e-01,5.106993646066092518e-01,5.141337260918694696e-01
4.915858610412307539e-01,4.118292366039268959e-01,4.787130882100751883e-01
5.315251697228547956e-01,4.113064010347454724e-01,5.607296410808919607e-01
4.889030703687058943e-01,5.294997836197925523e-01,5.693183540454429536e-01
4.726390592602562335e-01,5.268240577241523059e-01,4.660036141558663303e-01
5.238590523582555836e-01,4.950771308871118603e-01,5.073568615745206456e-01
5.650728146244624606e-01,5.047964866564309538e-01,4.833271686234359987e-01
5.135533521140580593e-01,5.391051989422389612e-01,4.970386842651024484e-01
5.142773521626283761e-01,5.106004963206645098e-01,4.601663716382328184e-01
5.328694058152328994e-01,4.785167239119702542e-01,5.117208995427344753e-01
5.198841421654026851e-01,5.051555548371510218e-01,4.626491670070247975e-01
4.873369582103458941e-01,4.858318586305520603e-01,5.104869884421712189e-01
4.936612181965265300e-01,5.085496623664836902e-01,5.230766921478520182e-01
5.065024320630093779e-01,5.051036549544488663e-01,5.120641455253513996e-01
5.542713518906140502e-01,5.005280457944432104e-01,4.370769373492932597e-01
4.901649837578820335e-01,5.472499628069826816e-01,4.282152313439961944e-01
3.992159800197114805e-01,5.150866761794765658e-01,5.298996130528633719e-01
4.967201134745558022e-01,5.412747838897944419e-01,5.125518575952691114e-01
4.362042085803798930e-01,5.431026373356040438e-01,4.815879360783444918e-01
5.040657702016372310e-01,4.924349338505533691e-01,5.328109825485023432e-01
4.819717377088947319e-01,4.703138402462967993e-01,4.890575327470613742e-01
5.647726833746391506e-01,5.179756872545174806e-01,5.354630103546363928e-01
4.983478917292012422e-01,4.205915223228534061e-01,4.802128714382880581e-01
5.715032975249176861e-01,5.049480651443133405e-01,4.811558747256785007e-01
5.607303671684896740e-01,4.590062499464863666e-01,4.911464600800728997e-01
5.458058870133600804e-01,4.937225684364671130e-01,4.978993307622988085e-01
4.999214172838144510e-01,4.748633860884158286e-01,4.451449978320488610e-01
4.526519392962758404e-01,5.326963424178012829e-01,4.963096932925017968e-01
4.405909808865920985e-01,5.400762448629986556e-01,5.379397952912029490e-01
4.672134527552012084e-01,4.031465338607526094e-01,4.062387602009807086e-01
5.317471837864889972e-01,4.845649307204155098e-01,5.141685125766053410e-01
4.745500773299660691e-01,5.211554898318647711e-01,5.323076991186763696e-01
4.739344994913554099e-01,4.636028198621232055e-01,5.267332653734309034e-01
4.710724154998510160e-01,5.633530185477665375e-01,4.368787147428200845e-01
4.984326727902245735e-01,4.503000148746045261e-01,5.043352854264202545e-01
5.382633426025822398e-01,4.814163008660440335e-01,5.220333564927868153e-01
5.536262301112420126e-01,4.870666225007561634e-01,5.485867353136784086e-01
5.004289661760376040e-01,5.368362199689403758e-01,4.407923962452399702e-01
5.464640103372234714e-01,4.421230188399169481e-01,4.151543322541583203e-01
4.701120641348644491e-01,5.296252595957676723e-01,4.632183045941279387e-01
5.512482359645484165e-01,4.683930468345585685e-01,4.898137394106238940e-01
5.137133998262071177e-01,3.939711652314379364e-01,4.975305889316430918e-01
5.075761459138625753e-01,5.424423503684770997e-01,5.486460971564270928e-01
4.577903174725583835e-01,4.871364077009241456e-01,4.771396249823599556e-01
4.987798049827699143e-01,5.287288102339430251e-01,4.640897022611776279e-01
4.203786836374179825e-01,5.132574969420411470e-01,5.548298211264792723e-01
4.919069486931214041e-01,5.556674313802265619e-01,4.918041894409668768e-01
4.672415261024263078e-01,4.543216093931451427e-01,4.547731784821725243e-01
5.338232259509992916e-01,4.822337608836128608e-01,3.966804694527777397e-01
5.050378417733141223e-01,4.556663089066906314e-01,4.388488735397287899e-01
4.961355649453317862e-01,5.776702432580553825e-01,4.145689609349101357e-01
5.199177016284202146e-01,4.358916807206182353e-01,5.304474980086376634e-01
5.435169754365724026e-01,5.467379783551945538e-01,5.156172101153042586e-01
5.318012309178533625e-01,5.048567060462343381e-01,4.559128034349084202e-01
4.621043705293287340e-01,4.511852241940738084e-01,5.286420119059623834e-01
4.926774930538060371e-01,5.300754132423433074e-01,5.581210088570169869e-01
6.299768243831815884e-01,5.057770509137738957e-01,5.365931473563294585e-01
4.708382307964653068e-01,5.081507288487154828e-01,5.205981575802718364e-01
4.018410606417797681e-01,5.547280524225398635e-01,5.121900384809811024e-01
5.074091711459707277e-01,4.851101280673499327e-01,4.115875790865796691e-01
5.265018910480705472e-01,5.638908533129981526e-01,5.243793750242542462e-01
4.551703330866171404e-01,4.910734020792431598e-01,5.340836665557513463e-01
5.965429322862784156e-01,4.595280968159564106e-01,4.982019455243783534e-01
4.400300033568511626e-01,4.468758171315137528e-01,4.515423165454729437e-01
5.615201296408156573e-01,4.558292254947027278e-01,4.806467288826015705e-01
5.359530344487049014e-01,5.140270959648294280e-01,4.848039746581584986e-01
4.491896147816992202e-01,4.130167843322826160e-01,4.862841058055969445e-01
4.964266964183662312e-01,5.220022204884859907e-01,5.650226040944222872e-01
5.307436328994097341e-01,5.642931328684643866e-01,4.714139319818527185e-01
4.559072249528457466e-01,5.090710115736708508e-01,5.279687341540539869e-01
5.113176655010324145e-01,4.789332422790204546e-01,5.569957112966141821e-01
5.454308878455508269e-01,4.501326444844581109e-01,4.535116071855108677e-01
5.183609042607913997e-01,5.053533256646767224e-01,5.212520233940950432e-01
5.478957349022088863e-01,5.514564999295668013e-01,4.773404748097416217e-01
4.656339349825345253e-01,5.194967762103154252e-01,5.552119234256203129e-01
5.352203594119648855e-01,4.899539469490481469e-01,5.374686909761015041e-01
5.310679873218691061e-01,5.036621255913426021e-01,4.864670019848434945e-01
5.130241988431246680e-01,4.523822218738752232e-01,4.909286375452359130e-01
5.308773768442817120e-01,4.538751847523370131e-01,4.542633105607393196e-01
5.177643420247917128e-01,5.419644604773038443e-01,5.201021254639708324e-01
4.640301758270751753e-01,5.405411066267958864e-01,5.088951401802104257e-01
6.288162501567908791e-01,4.733589804830913295e-01,5.764603629149401831e-01
3.886715852600892140e-01,5.551313876255078439e-01,4.601968151939527241e-01
4.187163913424922224e-01,4.941398146699383376e-01,4.541596230586067984e-01
5.111310885643844948e-01,3.999016499030077498e-01,4.932978480523002029e-01
5.707589139551152435e-01,4.724365456541213537e-01,5.055764343836124386e-01
3.960518640456942019e-01,5.455646747447727707e-01,4.291052721678913495e-01
4.762197893372114854e-01,4.727328489300697267e-01,5.352731014045746250e-01
5.016589085460726460e-01,4.743063923640033486e-01,5.508995178138061943e-01
4.724428314435493714e-01,5.726966625157925428e-01,5.250247733470256861e-01
5.070671085390130450e-01,4.131221259979014904e-01,5.174917861374795924e-01
4.329860060184709813e-01,5.261886764506493730e-01,5.151429795640892761e-01
5.395710240983495609e-01,4.729037832266832497e-01,4.970185106573392630e-01
4.530410856420080123e-01,5.648261724337007017e-01,4.808275607667835128e-01
4.625550263830238706e-01,5.372825426383127656e-01,5.367425861853011293e-01
4.696566445531702438e-01,4.868224730695746572e-01,5.237921457178976725e-01
5.748078293336675859e-01,5.335250211198390158e-01,5.160223513707704601e-01
5.441595959164728935e-01,5.261117603498396411e-01,5.530062944881797282e-01
4.915209242953389457e-01,5.925809896249737418e-01,4.767340105706425746e-01
4.071902272739306716e-01,4.714954621648764221e-01,4.916752215025269046e-01
4.569381965714867100e-01,5.295248343405276614e-01,5.250853030516368092e-01
4.390331238649972656e-01,5.539425152751652481e-01,5.243611601765048036e-01
4.924856687023844715e-01,4.975700149327111355e-01,4.647256888680391107e-01
4.950376015440707822e-01,5.028728563225086656e-01,4.886396085730116412e-01
4.389607308299985355e-01,5.031510418904020510e-01,5.202373015701484693e-01
4.211802598265794173e-01,5.595001524384506375e-01,4.705643593251953027e-01
4.598432738915907980e-01,4.921694877989816197e-01,5.110029428610186608e-01
4.690411684973829209e-01,4.838798442544889888e-01,4.867438721759536069e-01
5.204894980724938947e-01,4.755702335762169719e-01,4.874119917170329219e-01
4.538354445264968784e-01,5.935263117742722860e-01,4.703635097365423401e-01
4.312379792957041769e-01,4.771167612302187333e-01,4.895019414699552929e-01
5.196487365413365866e-01,4.903263557119413862e-01,5.051835449793488086e-01
5.164590484442862506e-01,5.445800082621077287e-01,4.870086287091794919e-01
5.251668119913324162e-01,5.370099474163497755e-01,5.138704373822895466e-01
4.377163695300484436e-01,4.555020634309206451e-01,4.324289643425416885e-01
4.892624450455570484e-01,4.995117432431450122e-01,4.916231469709694268e-01
5.468244926733296651e-01,5.543522396464776181e-01,5.381735536760273719e-01
4.873382311690909741e-01,5.101834111680514372e-01,4.425844960890404356e-01
4.806561661611806757e-01,4.871063198000823991e-01,4.566152656695055545e-01
4.746152637787349748e-01,5.100894004146108163e-01,4.919859403662563690e-01
4.514054908520027110e-01,5.337237122161733183e-01,4.195931016914660194e-01
4.907192709212331305e-01,4.761404566786943682e-01,5.590088196517596364e-01
4.319675047503152010e-01,5.114523913467240446e-01,4.566796612080741280e-01
5.053432802743371699e-01,4.631234276167529584e-01,3.756480814330917517e-01
5.323744494274382788e-01,5.508927392833664616e-01,5.545031938767041035e-01
5.100532964133667191e-01,5.573878524201262286e-01,5.234673862948416856e-01
4.858527002323169697e-01,4.728019879677972659e-01,5.548282990599542330e-01
6.150547078238183252e-01,5.257754620688480651e-01,4.084972694650789715e-01
4.614956946191521303e-01,4.642673889825886246e-01,4.865826594046344655e-01
6.275092050089572382e-01,6.192182559449028734e-01,4.797681461412333648e-01
4.907749961331344113e-01,4.744652688280660557e-01,5.715792080849024792e-01
4.594257610621983456e-01,5.028300841745143579e-01,4.849611017622852405e-01
4.738542724229419800e-01,5.222966521820452401e-01,5.328365737353339959e-01
5.405756552314012753e-01,5.006942538151598621e-01,4.661646866039253490e-01
4.584056011683310117e-01,5.117947035217881302e-01,5.537714311535909539e-01
5.463675961071258191e-01,5.302077433876479784e-01,4.833779604171252742e-01
4.917139620510634357e-01,5.700398025246885547e-01,4.887409751001443592e-01
4.930587323718151338e-01,4.516575279662184972e-01,5.201379459132272620e-01
5.377441773356064214e-01,5.443409297126196034e-01,4.742542746713052648e-01
5.018045929321904852e-01,5.266292949983637506e-01,4.687817649019386801e-01
4.918953220014122829e-01,5.187219193664227568e-01,5.376102642726887648e-01
4.777305170929426192e-01,5.373478140250297352e-01,4.778574941027703971e-01
5.440357345862604221e-01,4.870464835172260698e-01,4.586870925576215230e-01
4.652246748290618239e-01,5.376454744189423929e-01,4.568403357032388423e-01
5.036551258680260768e-01,5.215282552414159944e-01,4.221004511812009308e-01
5.640726721724352855e-01,5.167417759857065862e-01,4.653691174851180556e-01
4.420572658927512388e-01,4.749047722871226340e-01,4.431251078590807135e-01
5.003296138899006040e-01,5.441888465506451444e-01,4.666923029325290573e-01
5.373854322011565321e-01,4.013157855738812008e-01,4.771087815437844437e-01
5.729979222176778686e-01,4.288893214254981268e-01,4.519472329840932279e-01
5.002234859173766424e-01,4.855185314394239726e-01,4.467956226331701863e-01
4.547832863973271800e-01,5.213523856182551430e-01,4.914159462422733604e-01
5.373717354817157954e-01,4.584665183498417562e-01,5.422382875751509124e-01
4.439806683459359693e-01,5.405957263900801335e-01,4.893552786916798292e-01
5.597737464706198374e-01,5.103741212422375773e-01,5.379180214237916369e-01
4.967296229076304526e-01,4.670489257207972589e-01,5.032142027891678415e-01
5.176607347238850743e-01,6.128964362479982775e-01,5.045110648325481506e-01
5.477806226015801139e-01,4.454015044865802242e-01,4.938124395661139254e-01
5.535319967582639222e-01,4.499554758937023280e-01,4.779883147330805659e-01
5.298778239528937339e-01,4.672525336570282350e-01,4.901524584881877811e-01
5.003681411231964971e-01,5.602470256049816300e-01,4.405682646075889664e-01
4.712597971863141666e-01,4.960528937856634180e-01,5.046430156913106480e-01
4.973168962626355882e-01,4.954719706993424011e-01,5.100362501708317620e-01
5.607039371283674134e-01,4.459058300251951823e-01,5.616150940525123092e-01
5.100773264658695627e-01,4.635413123061611906e-01,4.850104206795327610e-01
4.745334453009138476e-01,4.970951969059157483e-01,5.265654627803714183e-01
4.413518766834836904e-01,5.230993404187241902e-01,5.215269453801896216e-01
5.109291444058566833e-01,5.508684373013214008e-01,4.942692210849498058e-01
5.202537320594218251e-01,5.074970240322775883e-01,4.749550355292355142e-01
5.394417208231070404e-01,5.474699175274926333e-01,4.742250954625000792e-01
4.714509282104543120e-01,5.776553298366349232e-01,5.423596585165088024e-01
4.860288552304233289e-01,5.141192878012101897e-01,4.950791269811167239e-01
5.083201111547842599e-01,5.366132437648077902e-01,5.127918039568993835e-01
4.758222497796034678e-01,5.017099997177363324e-01,5.280567209328984601e-01
4.998038197596068599e-01,4.839241436119487427e-01,4.918284590604952156e-01
4.894697787524153187e-01,5.417141902926788655e-01,5.395759257859366054e-01
4.453990844966873031e-01,4.330794341637375644e-01,5.007760899246365138e-01
5.324805621996715477e-01,5.374377309330540253e-01,5.028748036827479506e-01
4.572302746769357773e-01,5.690960257549995127e-01,4.460293586178811220e-01
4.313996638183611454e-01,4.667459194078134033e-01,4.788219013427684745e-01
4.462592303418277950e-01,4.922455892312150305e-01,5.174481878821898251e-01
5.258499988231232214e-01,5.437939352021626815e-01,4.778857505508596337e-01
5.210432293070986765e-01,5.151183115940107804e-01,4.778582569360657062e-01
4.437461309221102934e-01,5.669881848931680457e-01,4.748947373503527580e-01
4.079111178049449893e-01,4.546942019102908072e-01,4.601252279556504177e-01
5.490411698767264648e-01,4.884543815273648670e-01,4.985497773916695019e-01
5.044983364441625318e-01,5.881856432680018232e-01,5.032691763756687031e-01
4.956064553388845328e-01,4.040962698726837665e-01,4.438393578338015732e-01
5.134710485041253936e-01,5.071128994490856634e-01,5.075362565156250616e-01
5.015079476732404729e-01,4.651828021579500483e-01,4.873875275372294702e-01
5.429313441864996870e-01,5.131218344315207069e-01,4.590356320403357615e-01
5.105745254288666102e-01,5.244552615505119197e-01,5.459327417452159992e-01
5.889597030696348545e-01,5.530324169886041696e-01,4.962020284543561810e-01
5.067564195650580139e-01,4.905482853292450485e-01,4.743154929800804664e-01
4.900591989936732285e-01,5.003356256618656239e-01,4.396604525735255953e-01
4.083413234924965773e-01,4.329660278102767101e-01,5.766713887871500743e-01
5.017592740413122643e-01,5.241126767340059667e-01,4.499995029075808395e-01
4.332804331231853157e-01,4.177789007272645350e-01,5.369417811178210931e-01
4.525836437892347686e-01,5.710165341316295606e-01,5.405825909438357613e-01
5.129235611683803375e-01,5.187040994853423514e-01,4.181888764307613027e-01
5.251764363003778024e-01,5.346041986653827793e-01,4.685517504661122490e-01
4.810093393663917860e-01,4.955201954552853616e-01,4.847753544219140509e-01
4.462177217045620314e-01,4.833823087386550643e-01,5.102244872682978327e-01
4.932058334512358644e-01,5.639426847289800149e-01,5.774453393329826989e-01
4.908727564948891509e-01,4.978442615437274621e-01,4.800122842046057881e-01
5.499580681137018479e-01,5.133245180148700015e-01,4.831311681298985916e-01
4.383236675541716809e-01,4.862298582586996876e-01,5.679285197147454500e-01
5.239327534619475646e-01,5.925883875526711808e-01,5.496182053367992815e-01
5.424745367542728181e-01,5.032801582607782098e-01,4.796842612564799491e-01
5.512343400569498231e-01,5.048558284640712879e-01,4.829360397393277493e-01
5.665755224049241479e-01,5.414842203251848396e-01,5.315679927165215535e-01
4.543593788914646048e-01,5.266227492788075892e-01,4.644872370228490532e-01
5.730534902554762500e-01,4.973645976327906171e-01,4.335705756689587353e-01
4.057436041520275927e-01,5.211099819650276688e-01,6.243609063836390582e-01
5.122564444086035174e-01,4.437338064409138694e-01,4.679544293893804774e-01
5.792662542994686525e-01,4.253013937188935278e-01,5.749568931955604256e-01
5.117856237104679851e-01,4.634301114536354960e-01,4.173516289387649847e-01
4.763108272172312252e-01,5.263433525401856050e-01,5.588841188970926632e-01
4.784909796521398251e-01,4.753745604223621468e-01,4.723269199217945413e-01
4.615700460260514504e-01,4.688472830884872766e-01,4.832126921493392069e-01
5.274993032079881017e-01,4.632504134306256738e-01,4.454715151975254250e-01
5.109869429445671463e-01,4.744906897867906537e-01,5.279497397874071130e-01
5.211032861475499711e-01,5.644724421588054319e-01,5.199956501602258641e-01
5.367590179835181052e-01,4.890853912393203218e-01,4.691871951397098006e-01
4.346183515397841202e-01,4.560282150274754809e-01,4.411970365135061134e-01
4.996559411238483128e-01,5.014811155857725744e-01,5.263114400385638936e-01
4.862214993786977968e-01,5.066858096566155822e-01,5.580650337255635973e-01
4.975183529535013305e-01,5.721085389374540586e-01,5.045621415408345634e-01
5.043018871901013833e-01,4.315394688809527923e-01,4.663224043189920787e-01
6.060820296714591882e-01,5.371101342828379366e-01,5.456509211576894280e-01
4.886841552983510750e-01,5.183759412628309304e-01,5.166338323353575346e-01
5.101674793333894620e-01,5.149704756832461650e-01,5.154015364340527317e-01
5.813324067901177727e-01,4.691068042463999999e-01,5.174799637616279702e-01
4.958360782258743882e-01,5.388652777869532562e-01,5.044184544718514074e-01
5.443694572269658360e-01,5.299703136516736857e-01,5.278769254410018430e-01
5.550173017239565798e-01,5.402260609733385843e-01,5.775371432539362360e-01
5.304549236160588377e-01,4.833975096659137161e-01,4.735230449350558701e-01
4.949578168746170959e-01,5.282605581920842841e-01,4.724298871096911379e-01
4.877639743502778513e-01,4.593552299462295152e-01,5.338569503033930852e-01
4.478196820385539345e-01,4.445136906661755205e-01,5.037465313214334328e-01
4.874119562107489534e-01,4.916148035943180283e-01,4.861712182840273178e-01
5.126658812230925344e-01,5.082027524602179547e-01,4.884262593944839748e-01
4.631123734490081856e-01,4.181570059221620395e-01,5.027551851383423864e-01
6.055832522852434563e-01,5.229558018206135195e-01,5.555891148247374955e-01
4.847394097308857508e-01,5.236147300444435881e-01,4.557515278256790148e-01
5.144426582643154555e-01,4.725167357131478951e-01,4.584762295614918104e-01
4.649646387889896371e-01,4.600020839280588580e-01,6.236432779156514394e-01
5.644206901220075734e-01,4.646207428079164314e-01,5.424579544435459422e-01
5.341515476415990005e-01,5.476248445338496307e-01,5.225047968736341586e-01
4.946229663794091680e-01,4.907609344010725461e-01,5.075567726874433694e-01
5.242383512949357893e-01,4.533350330246364024e-01,4.695636881204378055e-01
5.607378454796607681e-01,5.303679263098447505e-01,4.685409349029298065e-01
4.880081811376185685e-01,4.977717688855781142e-01,5.237724333309721203e-01
4.891682510298840936e-01,4.766552371256052023e-01,4.848927336263803567e-01
5.120488606824820099e-01,4.940343811058806045e-01,4.884292777041800981e-01
5.494578408989706508e-01,5.375075639802420202e-01,5.260670963166433900e-01
5.032101681176974761e-01,5.005557353467031678e-01,3.947945658955167025e-01
5.084233536367890327e-01,4.279006948528637500e-01,4.536059918204333741e-01
5.003380127097821761e-01,4.185633775078513308e-01,4.763847275930190861e-01
4.283809665421818291e-01,5.043896345808384085e-01,5.286308761744145102e-01
5.229102198992876538e-01,4.521414885953776164e-01,5.438263150012274671e-01
4.683685016244640287e-01,4.553596610906059383e-01,4.801033713334928454e-01
4.981516903958003173e-01,4.693621960860175357e-01,5.439843297511504083e-01
5.609921767929026970e-01,4.464725431832239910e-01,4.973646712279241044e-01
4.509191362479380016e-01,4.673259491383736641e-01,5.280875730944369906e-01
4.896916085719940082e-01,5.149655454353285755e-01,5.190107588549977002e-01
5.573404688529967066e-01,5.041091275731404142e-01,4.940056069321111520e-01
5.651288057134712384e-01,4.652151577082839773e-01,5.064895210201610931e-01
5.029777177407257494e-01,4.674729549025384845e-01,4.683624888139494291e-01
5.154719830532916713e-01,5.015735687705676904e-01,5.711350594550161919e-01
5.150830364219349811e-01,5.299826748681331079e-01,4.238095944823923045e-01
4.899951314687345238e-01,4.957137743073546376e-01,3.683958199031216463e-01
5.708493636023923568e-01,4.803384935455938254e-01,5.235266375486576917e-01
6.271423854094553274e-01,5.770793964603879722e-01,4.956646705524394014e-01
5.817352063124765493e-01,4.997931452433323485e-01,4.995160818339101083e-01
4.580157581934313216e-01,5.237362435681836015e-01,5.431380620399557380e-01
5.045219805211720310e-01,5.471288999354594340e-01,4.422468467718644880e-01
5.137057484896762061e-01,4.896967327870791475e-01,4.928512746379811738e-01
4.269311143997008839e-01,4.878288730697312170e-01,5.137026172608839536e-01
4.440326338170539899e-01,5.775898650368133103e-01,5.363620120584160489e-01
4.704952668195201415e-01,4.736945802946068151e-01,5.195360123851238132e-01
5.466148363857836756e-01,5.051787372573106616e-01,5.692966354605945023e-01
4.828830421314439514e-01,5.293235384620608164e-01,5.393738962959591099e-01
5.128377479242822723e-01,5.633578978764239853e-01,4.071490514427010821e-01
5.451250163750518407e-01,5.942842515704986894e-01,5.046475139285788725e-01
4.490024846351958754e-01,5.055643538417752270e-01,4.614456083675665399e-01
4.776438181904341662e-01,5.353566898171547850e-01,5.534279940258979291e-01
5.124696135052647650e-01,5.771680259468702223e-01,4.169583991539257961e-01
5.163360277560400391e-01,4.712771471047090266e-01,5.349032967686213613e-01
5.661278528033829582e-01,4.559847147551185920e-01,4.917465684456354680e-01
4.960573401350171774e-01,4.579912721980007873e-01,5.059889858168307164e-01
5.566740441308302145e-01,4.889408461467615874e-01,5.115978809600181254e-01
4.689171540304757912e-01,4.625991180855141827e-01,6.016491780717160287e-01
4.591922013463513585e-01,5.511290544812194048e-01,4.359261703101959262e-01
4.777897021080113604e-01,5.588149848694767829e-01,4.144063278065799327e-01
5.012907545389759800e-01,5.580306061130695383e-01,4.820414563284787790e-01
5.032855227648300733e-01,5.238970172473154108e-01,4.668479090259272102e-01
4.442428287295115408e-01,4.684968303198963069e-01,5.349697407109291758e-01
3.985544556131201954e-01,4.845233754953081062e-01,5.223053812034504917e-01
4.856820627649585109e-01,5.047294426181019311e-01,5.922119013699912449e-01
5.406481737329548176e-01,5.327363892617520413e-01,4.812366365730137985e-01
4.544697887303930095e-01,4.663156571792412275e-01,5.146762703359590851e-01
4.816680004232426482e-01,4.804959284676968978e-01,4.586583636566100575e-01
4.713235214968125031e-01,5.490104099365548107e-01,5.155776353076191310e-01
4.600597227844325232e-01,5.066934717793448728e-01,5.137162947629024812e-01
4.926012652217668375e-01,3.975123160222268082e-01,5.001326888431968376e-01
5.646161967777221236e-01,5.009860519312807625e-01,5.704390222514276187e-01
6.368767457333309734e-01,5.182507534591351828e-01,4.927125263144066514e-01
5.086501291514722300e-01,5.331656690949043709e-01,5.299279352412442634e-01
5.566733619382088216e-01,4.606518756655869073e-01,5.041831691949000271e-01
4.367282671825465923e-01,4.573044175580278647e-01,4.925852890152748742e-01
4.097648847148717688e-01,4.264997498639693796e-01,5.108759156988272876e-01
5.184270648261705139e-01,5.270753981221875106e-01,4.357696108710618077e-01
5.617758660479993393e-01,4.925308498592540496e-01,5.038708845901594957e-01
5.100145291611632992e-01,5.493750507163884800e-01,5.258557206058949163e-01
5.302582608646035922e-01,5.347083529768968946e-01,5.860612577597363870e-01
5.732151211998296469e-01,4.604566839792057498e-01,4.883282580368684123e-01
4.834270903021877230e-01,5.553991090440151268e-01,5.195497785111552469e-01
5.280197767043182111e-01,4.520910076755740858e-01,5.249480065472146295e-01
5.298631296288207615e-01,4.802052611962869810e-01,5.157726492760817960e-01
5.166125555863579910e-01,4.939205458160972895e-01,5.073791189170963056e-01
5.301672372280080703e-01,4.721532707889422031e-01,5.082239089135923704e-01
5.169747126677687321e-01,5.615502590147992690e-01,3.998449023622378529e-01
4.630489787822672509e-01,4.835669753350022027e-01,5.306643727634351437e-01
4.692519049061443237e-01,4.788339856439055020e-01,4.179661660735100037e-01
5.292812197929216422e-01,4.109814551652396508e-01,5.106351035728613486e-01
5.020638100441702223e-01,4.306469168439521211e-01,5.143402514897992273e-01
4.530892001453665774e-01,5.370112940299633930e-01,5.569048769891680184e-01
5.315147652227911745e-01,4.487521279394228735e-01,5.286000464817003364e-01
4.493825433582661621e-01,3.868406659827487437e-01,6.102909983386772819e-01
4.703639865174742973e-01,4.626625884593790761e-01,4.982454900800381004e-01
4.984016850399145548e-01,5.965082539731481059e-01,5.091041161038504237e-01
4.626648623627290791e-01,4.449864097534168561e-01,4.547845743795185247e-01
5.404396990286034486e-01,5.136753130333634454e-01,5.064119098328707658e-01
5.333422606123219278e-01,4.732921654234865660e-01,4.709856992343833815e-01
4.866408332269009929e-01,4.434655321835352382e-01,5.502644931393129157e-01
5.066862195701591354e-01,5.812622523889811044e-01,5.235149970562438249e-01
4.915543794162989810e-01,4.940872181622013026e-01,4.850374291915560687e-01
4.762810337765853719e-01,5.074135495763724135e-01,4.453130540671692006e-01
5.021775563641881490e-01,4.305454408106353936e-01,4.603012766884083118e-01
5.195599392448084775e-01,5.648880558721370848e-01,4.435764222165811677e-01
4.819856834956111613e-01,4.681411338938002986e-01,5.241632177561883488e-01
4.477652261426697811e-01,4.118855100204814046e-01,4.811994069920920158e-01
5.307965492182062928e-01,4.540501484686508826e-01,4.259875178542582574e-01
4.515832628627022283e-01,5.185183716527843600e-01,4.643426351379221773e-01
5.494840384145862622e-01,5.220515158348689733e-01,4.847545330028135702e-01
5.506970752384864332e-01,4.749763839387501352e-01,4.869606233742923562e-01
4.324829352001101079e-01,5.965492140096654294e-01,5.169320622472173277e-01
4.964804534237678979e-01,5.123893484846823165e-01,5.344439320005186511e-01
5.464491463701652840e-01,4.986771096573112128e-01,5.618530465425513043e-01
5.116225129057176968e-01,5.363730277359233245e-01,5.385143365463018750e-01
4.314193729195975324e-01,4.874359125103108203e-01,4.243244777055789618e-01
4.902828263836725986e-01,4.178431078002615706e-01,4.611572668065150316e-01
5.221069853085579249e-01,5.076831445349418992e-01,4.935744074271220527e-01
4.961987486996740082e-01,4.512976553101035182e-01,5.489236849614490543e-01
5.758869570691902418e-01,4.246610099258780746e-01,5.433108633952294930e-01
5.211220289454225885e-01,5.251382199293481712e-01,4.434710774237221043e-01
4.937179021764306897e-01,5.244484805086767620e-01,4.995908205582580974e-01
4.886327906329280268e-01,5.241058853641885618e-01,4.448483060551950419e-01
4.889271037823806343e-01,5.223453867573589759e-01,4.815715990964873905e-01
4.819442643831546302e-01,4.668747842920060731e-01,4.861584785807390174e-01
4.846892825498597679e-01,4.780539395528342062e-01,5.448549057971361353e-01
5.046553149579616759e-01,4.523092829944688198e-01,4.776395911272328654e-01
4.427774737170035446e-01,5.051944177591850549e-01,4.291693990285874727e-01
5.604316260543167338e-01,4.812807828964662527e-01,5.034295208091340568e-01
5.118913296468539098e-01,4.897048248812146953e-01,4.855222812959701373e-01
4.824367447112805074e-01,4.606177341222388311e-01,4.314598069465827579e-01
4.796079783664449203e-01,4.944043868557418397e-01,4.931123235297898977e-01
4.201254993426549178e-01,4.456763996238594649e-01,4.815814853592531586e-01
4.887636632533810532e-01,5.207528285277157609e-01,4.952309065280314782e-01
4.424423626098667461e-01,4.948756990080090401e-01,5.005396680748527283e-01
5.723746903019018006e-01,5.654247871434191497e-01,5.124828344742704545e-01
4.313985423755233306e-01,4.682327837032989604e-01,4.762680348185426293e-01
5.189476362588270053e-01,5.243257492974654488e-01,5.294688264058798888e-01
5.099500117166672064e-01,4.992503115504134392e-01,4.767709546349763183e-01
5.127405758169480965e-01,4.995308008031062452e-01,5.641986221313838312e-01
4.989265627326487373e-01,5.238995384611533357e-01,4.774726753909064869e-01
6.032828433309422866e-01,5.148060710073838475e-01,4.314109805555724209e-01
4.978759387995675967e-01,5.155664983832247694e-01,5.571521920841449038e-01
4.923673434418325279e-01,4.745562733400196520e-01,4.912498343196394224e-01
4.848919635425683605e-01,4.450567785037004565e-01,4.557330680311796889e-01
4.612281436378540267e-01,4.769710047919658580e-01,3.863430321109864729e-01
4.593489361073051502e-01,5.347080620347816060e-01,4.158419880377777766e-01
4.904650989115484361e-01,4.482098298227913391e-01,4.869421543874158931e-01
5.251533674035955279e-01,4.462894739881226869e-01,4.293937578895289375e-01
5.151677266560706903e-01,4.333812436347085906e-01,5.476130938967626038e-01
5.460593571825707038e-01,6.021943388323837132e-01,5.277290490421534530e-01
5.102876689684446854e-01,4.776141295368154793e-01,5.541925665313064409e-01
4.969190674425558174e-01,4.513815402815870570e-01,5.227763754278316188e-01
5.763076259193044004e-01,5.447948915046629814e-01,5.097899142109257875e-01
5.757254176771922083e-01,4.161495824831453194e-01,5.186758662156981670e-01
4.842171639365731028e-01,5.517985519865198363e-01,4.939637824958795775e-01
4.498802973278920314e-01,4.885213414075050831e-01,5.050001383058796423e-01
