accel_x (m/s^2),accel_y (m/s^2),accel_z (m/s^2)
5.767644500697423349e-03,3.785698774563777801e-03,-9.801262739589391870e+00
3.016970496539444439e-03,3.462150544977758444e-03,-9.803712624784008511e+00
3.241439083431737252e-03,-9.882416963850750719e-03,-9.788362514313533325e+00
-8.108968096188302801e-05,2.757822837980178354e-03,-9.801158170572996653e+00
2.234502595931465822e-03,5.044008962871171682e-03,-9.795067988531870995e+00
3.771448736121929633e-03,3.377340494295104790e-03,-9.781736733952735463e+00
9.136176128615990663e-04,-2.675398800375641036e-03,-9.785825216646770741e+00
5.321374311283578150e-03,1.044289524420773108e-02,-9.791539602261815745e+00
7.741941151441630517e-03,8.776233081395971164e-03,-9.797400660316466059e+00
7.439222315819366861e-03,-6.663490218078999515e-03,-9.789116919317727650e+00
1.409167070246692159e-03,9.133918167782237307e-03,-9.795731748916445270e+00
-7.160914177545043549e-04,-2.500386425083227573e-03,-9.798458059842356960e+00
-6.091985323167114011e-03,-1.843993924902806404e-03,-9.790835730012414473e+00
1.570294681452122235e-03,7.258281649791539260e-03,-9.800192487531379726e+00
-4.628746716727444310e-03,-9.026130084924369884e-03,-9.795286427076527858e+00
1.182476765007773071e-03,-3.071648629731442946e-03,-9.791288938893057292e+00
-1.919721625007485104e-03,-4.612608750481641054e-03,-9.782775446242277795e+00
-6.504684759168979577e-03,-7.553108218446982075e-03,-9.799761016680816894e+00
2.098970326388281335e-03,1.545836831090724971e-03,-9.795926066259591281e+00
8.306807673131590651e-04,-4.265354786855445231e-03,-9.799679168905772286e+00
-7.411872839246204554e-03,1.996614575112329575e-03,-9.793738485596938048e+00
-2.409130175447176097e-03,1.484698599280984306e-02,-9.800700159819330182e+00
-9.423159035918154264e-03,-1.997228023547909913e-03,-9.798463312327479358e+00
1.739350294158870189e-03,3.423209776374171957e-03,-9.777532716178148675e+00
-3.361490034333344725e-03,1.212585491108172757e-03,-9.789623707923020390e+00
-1.763769511115709969e-03,-8.310665959893773908e-03,-9.796216991121319495e+00
1.984765812067065816e-03,8.344086815069991225e-03,-9.802985948962861684e+00
1.539793059099457337e-03,4.083617627867591575e-03,-9.798579546331117385e+00
2.003591925328328596e-03,4.756822771934060036e-03,-9.793823395968965784e+00
5.780258811409920081e-03,2.886955910104995783e-03,-9.793846572184664367e+00
-2.219371808404923662e-03,-1.617319737212858126e-04,-9.796472513745419164e+00
3.930856646815954897e-03,6.083167089955550388e-03,-9.793997551427432668e+00
-4.716355040437603119e-03,6.416902234955641250e-03,-9.796670439674143083e+00
3.326278681152058155e-03,9.872502216916925408e-03,-9.797782971211439929e+00
4.920657518683557198e-03,-1.921753983291352207e-03,-9.789692135496487424e+00
3.418869110220632695e-03,-8.324686269255711889e-04,-9.791081905076179481e+00
-2.689788358656531372e-03,7.370088568487046833e-03,-9.792085568146822183e+00
4.433893903983991344e-03,-5.418411175207281556e-03,-9.793701130015897149e+00
-1.035310348566748258e-02,1.891052298464362871e-03,-9.795717356771898920e+00
-7.240270751491180087e-03,2.824827923366495484e-04,-9.791927102976650588e+00
5.077046174862417070e-03,-3.789550820785297404e-03,-9.801247887679425119e+00
-8.539737925955555656e-03,1.255900102373320656e-03,-9.790556305703089990e+00
3.048113574632462137e-03,-1.629565053237037962e-03,-9.786162399219255903e+00
7.970647814528216551e-03,3.477219415459985568e-03,-9.790934849840109422e+00
1.752770757066520867e-03,-1.760995864845056255e-03,-9.793175552238555071e+00
-3.188305341690434846e-03,7.765181309847294863e-03,-9.800650563965966455e+00
-2.548297861995048406e-03,-5.401625328491626438e-03,-9.795636212372237139e+00
-8.345668246849731074e-04,-3.494224157105507624e-03,-9.787956127645122351e+00
-7.342731859804831410e-03,2.854162033429164316e-03,-9.780893841494126661e+00
2.354986327682541576e-03,-5.068642014792030387e-03,-9.790166080445880326e+00
1.511737496084408989e-03,-2.211018229158121223e-03,-9.798368154528249718e+00
-1.883905467337276471e-03,-4.261079158789300367e-03,-9.794187741870482355e+00
1.579489791674801996e-03,-6.626952944666056507e-04,-9.793040535797176815e+00
4.510840836331134348e-04,-1.539070151487486422e-03,-9.793108905425981447e+00
-6.277442490262053441e-03,-1.015203212148990761e-03,-9.797094605851967231e+00
4.347569995182801097e-04,1.780381949540045701e-03,-9.800536584620873626e+00
1.266682259808720422e-03,1.265834983819979446e-03,-9.801683270876893062e+00
-5.584127503289855682e-04,-4.843980152311261160e-03,-9.798573323531343249e+00
1.102439214105266352e-02,2.394725954281422438e-03,-9.798057632947278606e+00
-4.588189469009828700e-03,-6.372404863748692711e-04,-9.795740344532260835e+00
8.544516582454735314e-04,4.220600151092445546e-03,-9.796921176277457732e+00
-2.782895036009388687e-03,-1.048608567550155315e-02,-9.790765996443656860e+00
3.858998948168991874e-03,5.209598224337961582e-03,-9.801297630324468102e+00
-4.220910304250929598e-03,6.438629749061374093e-03,-9.793327603140413729e+00
-2.994188181352701143e-03,-5.907553235735173852e-03,-9.795678040892324745e+00
2.269439758893298728e-03,5.345756446648634863e-03,-9.785039869906345444e+00
-6.026939482034946935e-03,-1.160875176937142296e-02,-9.792580133619482652e+00
2.240292928342810675e-04,-3.198259671388991882e-03,-9.790290479661440060e+00
-2.544325629729574101e-03,-7.699633134078947162e-04,-9.794036081105753411e+00
2.757996937677865013e-03,9.240798757320067489e-03,-9.796356861913125158e+00
3.183981639718908713e-03,9.291440623586742775e-03,-9.800559823812719173e+00
4.876835558642422081e-04,2.825167706619565334e-03,-9.790764482092479071e+00
2.279463379742791267e-03,-1.018305144409602713e-03,-9.792399270047237536e+00
1.076666075146756954e-02,-6.326545189262275815e-04,-9.796113399202452499e+00
-5.163748964560245167e-03,6.900786218045305669e-03,-9.790464580671642381e+00
4.920484484926835591e-04,7.957107382157376646e-03,-9.806307704838594930e+00
4.735288652703935862e-03,9.395554114674449812e-05,-9.789085543131431422e+00
1.067732453902784685e-02,-1.755239508746688241e-03,-9.795476537692403340e+00
-8.442527449296638106e-03,-1.427595617951083785e-03,-9.784496875045032738e+00
1.396774954887427525e-03,7.403468569566105939e-03,-9.795923558545643672e+00
1.063458004830960917e-03,-2.466384292000489177e-03,-9.791220887555441621e+00
-2.647423159025032603e-04,-7.535266731108845872e-03,-9.792638279359751508e+00
-2.176459453218938887e-03,-6.211968703630326750e-03,-9.798065013035948567e+00
-7.005391893853878636e-03,2.213702664933953936e-03,-9.797158868770248219e+00
4.716574059457268389e-03,2.099479301043530831e-03,-9.800053218679552813e+00
8.033493701109773594e-03,-1.738805503489828340e-03,-9.793412500873914794e+00
1.595311440522387530e-03,6.280474914336815762e-03,-9.792074285586215510e+00
-5.321498312118456975e-03,-1.910686351209461451e-04,-9.793964828274148715e+00
2.708822340199956800e-03,2.748848655635749601e-03,-9.792330200904128645e+00
5.711261037530598883e-03,3.623907106582144148e-03,-9.785517357169680963e+00
-2.495834326557985240e-03,6.756065907036603278e-03,-9.792860521471837387e+00
1.003254893814734330e-02,-1.330721148459431584e-03,-9.794834082809559916e+00
-1.122233456384157287e-03,-7.535370301229554757e-03,-9.791027063394377450e+00
-9.068868262998606511e-04,3.117703752830416376e-03,-9.802475661396163886e+00
2.722999272738553349e-03,-8.189542922172700357e-03,-9.794014376763389151e+00
1.040713212860885570e-02,8.384763634586924613e-03,-9.796632096781971555e+00
8.088842400457431706e-03,1.443493176777944399e-03,-9.805380295539212199e+00
2.264019487481153028e-03,-8.107146154565956359e-03,-9.792928226062628028e+00
1.641530742008448594e-03,4.891379852118791713e-03,-9.782942501408191660e+00
-4.761108072888890243e-04,-7.425973741705568267e-03,-9.794607321180777149e+00
7.442741904519221789e-03,-3.834225832409030726e-04,-9.788616944399006314e+00
7.454394415901831241e-04,6.119255047102905437e-03,-9.795054043682139167e+00
-6.467005093562468165e-03,-3.071379999841339012e-03,-9.794911776602079456e+00
3.309791476553972361e-03,4.678240492661622611e-04,-9.804072633716737428e+00
-5.985085568005073763e-03,2.753403887956469391e-03,-9.783500995151921842e+00
-7.437993433795451331e-05,9.509904440132950715e-04,-9.790253953697684253e+00
3.004312302263278077e-03,1.826422189308808935e-03,-9.795055012957549323e+00
-8.025086926907230942e-04,-4.017512823814577312e-04,-9.798297570286042202e+00
8.543152985640135519e-03,-5.628166215090432863e-04,-9.805346110011939231e+00
-2.737754907239433331e-04,4.664399830597444618e-03,-9.794196022385367684e+00
1.131052100221598177e-03,6.081999804460993739e-03,-9.806182419635860015e+00
3.598276589157872740e-03,7.268003123345538304e-04,-9.796771625187760790e+00
1.611518158866416051e-03,3.364884313463125960e-03,-9.799981079255179139e+00
-2.178259747287265586e-03,-1.535240859393017035e-03,-9.797349987302926166e+00
-1.031218894676685363e-04,1.647795632131180375e-03,-9.791288680644019138e+00
5.195422348711765514e-04,8.768860823050577194e-03,-9.791887308042872107e+00
1.041263509845067464e-02,7.063985110617502193e-04,-9.795825397207366336e+00
-4.273326871049487781e-03,-3.831929848705572378e-03,-9.796740525789020992e+00
9.533401041874757075e-04,6.968950914056838697e-03,-9.785358572192990323e+00
-2.252070600003848802e-03,-3.985796872294960005e-03,-9.795088195339561210e+00
-6.362307478036972191e-03,1.698166315369239055e-03,-9.798446931338695265e+00
1.092665105437537650e-02,-5.513400046733834148e-04,-9.799915361237129474e+00
-4.465516803482846549e-04,-5.554106896646942085e-03,-9.798843513350247392e+00
1.657457732677165667e-03,-2.805380174662462124e-03,-9.794164306292225675e+00
1.014726407136393865e-02,-4.819911879169370625e-03,-9.792058576419027105e+00
-9.015416840988424788e-03,-3.395954895798058634e-03,-9.790158345959412145e+00
9.593575408236882252e-04,3.044557489612954165e-03,-9.789454702656632534e+00
-1.696484539053083260e-03,3.699296756616404867e-03,-9.801286732884141983e+00
1.147073976238838222e-03,-6.483569947529366391e-03,-9.794722144657571405e+00
4.322741488185256713e-03,8.469136078034707757e-05,-9.796130834648067776e+00
7.382401864174875129e-03,2.853137592537866160e-04,-9.791015009456994989e+00
1.704235103012264642e-03,9.455306903380306452e-03,-9.794115740041302587e+00
2.763209592478241359e-03,-1.892121490696695163e-03,-9.795534075222432691e+00
-7.596599616511329721e-03,-4.179870526544891482e-03,-9.797884084705456686e+00
-1.396676299347936320e-03,5.617403563218082395e-03,-9.790701936381577042e+00
1.427909310205574111e-03,4.089219716324013834e-03,-9.791071860777149638e+00
1.205869868737214365e-03,8.598444570888957861e-03,-9.804928657946074821e+00
-2.106684922116082003e-03,-3.707828250207354220e-03,-9.800162146680081676e+00
1.838707517138426020e-03,-5.464715941963507392e-03,-9.790748568044021383e+00
-1.747787614454652302e-03,-7.374803639791985103e-03,-9.791970608026716150e+00
-4.801324309053392730e-04,4.067805937308511914e-03,-9.787741902746642353e+00
-7.815165814591951404e-04,1.369058973689839080e-04,-9.785548678992771698e+00
-1.205417450208416197e-03,-1.154786377879146253e-04,-9.798012973783453816e+00
-2.913662639253545520e-03,-1.534640474845845766e-02,-9.801189627099118340e+00
5.336413262376949948e-03,-4.339982674827502513e-04,-9.801753803430390377e+00
8.302154542611816547e-04,2.752051825910380167e-03,-9.805498409121188530e+00
5.834287462661698516e-03,1.137561594104037274e-02,-9.799245335232395604e+00
9.929276001254757483e-03,1.206884731210281750e-04,-9.793227619930419792e+00
3.386799125065224035e-03,-8.055491817292502466e-03,-9.795564701712686784e+00
-1.732970784140885814e-03,-2.248644229694955060e-03,-9.788985489230432435e+00
1.054042479498740886e-03,-2.144885973354448278e-03,-9.793750912737868575e+00
-1.990356790189801162e-03,1.949218628290894529e-03,-9.795855934456840330e+00
8.176712513210081246e-03,2.208789958340722382e-03,-9.796248211393630001e+00
1.020650177799254169e-03,-4.050275967977339225e-04,-9.793404393318727585e+00
1.377679085070821190e-03,-4.854759687626706600e-03,-9.796901303812557416e+00
7.507741764445739633e-04,-2.379554966826073498e-03,-9.801029034953129937e+00
6.589167544704198354e-03,-1.140519890617632589e-03,-9.797462122278215446e+00
3.930553413520046155e-03,8.968456885215372659e-05,-9.794731086037140599e+00
-8.917806433514472927e-03,5.622510716636301351e-03,-9.794313413844694338e+00
1.186789524624746496e-02,-1.935884669490912273e-03,-9.792898354155882501e+00
-4.061249737569885658e-03,-7.128380695465521243e-03,-9.791824722012313131e+00
-6.128191166432657433e-03,8.647889622199587609e-03,-9.799584980155831460e+00
-1.465180167575086140e-03,-4.860102489029917081e-03,-9.791654016357663082e+00
-2.696910589634136934e-03,8.140519472561448880e-03,-9.792598224245601557e+00
-2.731802323646130050e-03,5.777718175971372286e-03,-9.802869372746899401e+00
-2.020151295671049254e-05,-3.534576875869524905e-04,-9.791334738750865796e+00
-3.991817128539904350e-03,5.185034862290200872e-03,-9.795397589125627746e+00
-1.889790438454371901e-03,7.529033307723797044e-03,-9.798960575558686159e+00
2.707312326913527412e-03,-9.064939643584903842e-04,-9.791499625702321907e+00
8.721282338406148929e-03,3.297625786422354096e-03,-9.800829495548455839e+00
-1.159424705091487628e-03,7.591047672336656907e-03,-9.795190507913583033e+00
1.270128257464866496e-02,-4.130717495656023933e-03,-9.785525702495847966e+00
1.186060489912617658e-02,-8.694196360664261866e-03,-9.799163747527398272e+00
8.008490146574820043e-03,-2.347818689489928039e-03,-9.801376572826521638e+00
-1.517306741265427462e-03,6.927248171419122386e-03,-9.794991749453618723e+00
2.103753320288980974e-03,6.627711995224532665e-03,-9.791773912465695062e+00
-3.511662551020875225e-03,-1.888560620327786165e-03,-9.796285315532379911e+00
-6.050214954722145030e-03,-5.645671119166762071e-03,-9.777713734452637695e+00
4.916749928841999615e-03,1.431781894883353209e-03,-9.789251533951903284e+00
1.292729996862538103e-03,1.050489017027069795e-02,-9.790188275848340282e+00
1.587167730280530063e-03,4.471127150462255589e-03,-9.792258002093465308e+00
3.547981781187956301e-03,-4.439298176857660837e-03,-9.791928509049073526e+00
-5.392123008950216838e-03,-4.632084850921745246e-03,-9.794707816487079555e+00
9.584329376387180910e-03,7.193479248989845254e-03,-9.798680787015532800e+00
-2.481197433562340633e-03,-3.787802373618835358e-03,-9.792013701255612546e+00
-9.757569946674790650e-04,2.908294547949867408e-03,-9.790548201240540038e+00
-3.550402865587446583e-03,-4.561501902959239855e-05,-9.800104493889151058e+00
2.678160799736815792e-04,6.078744533915223305e-03,-9.801978261230756218e+00
-1.019184217008914329e-04,9.228984462217471735e-03,-9.787964419366542046e+00
-6.300829151546237560e-04,-2.201825742240648420e-03,-9.787577436730520830e+00
2.848109724770384369e-04,-2.962534447763003932e-03,-9.794085316615804615e+00
6.259815355122644136e-03,4.484895943718865234e-03,-9.794489906635856613e+00
1.435907702233714563e-02,1.484785035800233188e-03,-9.792780751704167841e+00
-5.768965759405584454e-03,6.847660046455715348e-04,-9.787058896428073140e+00
-1.129492219042534714e-03,5.113614235123934912e-03,-9.799425724913279012e+00
2.011123155063569701e-03,1.334651706497859847e-03,-9.790601857661584972e+00
9.945338133982618584e-04,1.688885578900583932e-03,-9.789040247655359295e+00
3.403547165192485381e-03,-5.053117182820416340e-04,-9.811605211052732756e+00
-3.023249492255192326e-03,4.668055655077158264e-03,-9.790527440063035769e+00
3.534175563690328866e-03,4.964130345284104885e-03,-9.793196553774288660e+00
1.439276068539939966e-03,-2.159371501671274608e-03,-9.796066997815465527e+00
3.440722337184367891e-03,1.738439066273362709e-03,-9.793896154341579674e+00
1.637241753108141171e-03,-1.868183044949698083e-03,-9.801798050317579225e+00
1.627195373862085070e-03,2.622038562563418738e-03,-9.794597714857250281e+00
-3.139597192327443515e-03,2.689758275655826283e-03,-9.784562742515378275e+00
8.132789679444918374e-03,-5.560342481071177054e-05,-9.786820844414323872e+00
-7.504818852576582155e-03,-7.459945483975753515e-03,-9.788855943034906915e+00
2.421893057050982043e-03,2.195082195155975691e-03,-9.799933434051830261e+00
-9.064404295526759178e-03,-2.949178913743059297e-03,-9.788558520556552622e+00
3.728537072059658671e-03,7.272709206450158649e-03,-9.792518798954148451e+00
-6.605644208119819264e-04,6.485795099137831553e-03,-9.804119315447589855e+00
-2.818855326252109848e-03,2.047722838624340194e-03,-9.794869467040847155e+00
1.041857389587662460e-03,5.304211938827969874e-03,-9.804705587847506010e+00
-2.038878580063455213e-03,4.685094674846556131e-03,-9.805956410275344481e+00
-2.154475770017784658e-03,9.176586385062707879e-03,-9.797729189853184195e+00
3.835336155829882805e-03,-2.898980978623326692e-03,-9.796020658539632109e+00
-8.700691980791847024e-03,-2.303963714409250092e-03,-9.790557771405371312e+00
-2.259971173687962392e-03,7.076474348761533674e-04,-9.790984885549196548e+00
3.479892216217951150e-03,1.145450352242562055e-03,-9.796058059766965087e+00
5.096800280707123633e-03,-3.193879072773875630e-03,-9.797237864448366196e+00
4.206367998168168698e-03,-1.308570405253526702e-03,-9.785970199487604049e+00
-2.190853325607877884e-03,-6.177959775543829905e-03,-9.790086623423835732e+00
-4.972103956618406304e-03,-1.502060364511899337e-03,-9.786611836998217129e+00
-6.945007759947079660e-03,8.644062544033395690e-03,-9.790037435535063892e+00
4.473856773845402701e-03,9.231094887138945222e-04,-9.802658623475307920e+00
-3.336711469218624042e-03,-1.045196811431868718e-02,-9.796949113802272180e+00
-2.318900448428790236e-03,1.482370549602027299e-03,-9.791498244189860145e+00
8.288475987874962397e-03,3.587508520090348062e-03,-9.794025891528825412e+00
5.718249703094859361e-04,-5.940686278578443009e-03,-9.795175044402558484e+00
6.805460321350609472e-03,-1.341271689755376296e-03,-9.795086955669690454e+00
-8.717280329776738029e-03,8.364221740432054887e-05,-9.794504138149227046e+00
-2.574619581292506964e-03,1.811903925322747803e-03,-9.792902835785659121e+00
1.556538509949247431e-03,-1.291343600554185726e-03,-9.797883888244328432e+00
-7.557772770953489344e-03,7.005347273883855141e-03,-9.801232155427848980e+00
6.974397507979908373e-04,4.180679884847800579e-03,-9.793940250573967887e+00
-6.048440158604692293e-03,5.729058445651418092e-03,-9.791940371160119838e+00
3.131096498519967374e-03,4.224622893969366341e-03,-9.797538456218179093e+00
2.674651299490515399e-03,-8.768497877383013561e-03,-9.795803784458634311e+00
-1.536503138419460183e-03,-1.009210651515232574e-03,-9.796556020314307389e+00
-1.224756143224294425e-03,-3.287350816801109035e-03,-9.792470983771194071e+00
-2.685488172027726030e-03,4.989721599430382848e-03,-9.788462534795137060e+00
-5.613252851821546457e-03,2.746927843547923489e-03,-9.798009902131651572e+00
1.858341620279943193e-03,-6.425315985380747937e-04,-9.796409315912082860e+00
-4.023845448177296343e-03,-1.481329195048928593e-03,-9.789926982000501710e+00
7.818134071397201540e-03,-7.636202676002445781e-03,-9.789917156294368539e+00
5.633696471783939709e-05,1.177359278315184268e-04,-9.786952485908157584e+00
7.863567608782406123e-04,-3.625308723528904587e-03,-9.806686265473658182e+00
-8.426068612096554097e-03,-1.069873432285873074e-02,-9.791620887957567021e+00
5.808115143048088111e-03,-6.727550397126587367e-03,-9.793633216308682776e+00
-3.347358384609947987e-03,-9.239981898379876976e-03,-9.787874753236923908e+00
-5.498153538751732010e-03,2.735837964687805844e-03,-9.786718616782581037e+00
-1.907843602158796129e-03,6.510127419743351289e-03,-9.795122683018174570e+00
2.880951510262845083e-04,5.678514207007080705e-03,-9.792607656105916547e+00
7.296445281345597354e-03,-1.056490979019669577e-03,-9.787367062105824189e+00
-7.363550433522554400e-04,3.699282997269544640e-03,-9.792775254184062916e+00
4.393423846604498778e-03,-1.937602882903473930e-05,-9.789743546625423676e+00
-4.157146731547362202e-03,-4.309760492120095696e-03,-9.799418340869154420e+00
7.572636998162711984e-03,2.320422042615757213e-03,-9.793291879981119052e+00
1.510470599665903390e-03,-6.946533332588373036e-03,-9.801046957527633552e+00
4.590666135405267051e-03,4.239938036857638856e-03,-9.794219717679077064e+00
4.654047365177689868e-03,2.420937787811534934e-03,-9.788210721479263299e+00
-6.417590518927392303e-03,-3.032574067111602854e-03,-9.793473375948805071e+00
8.247295666964739921e-04,7.838482581326227522e-03,-9.795371622620672625e+00
8.235701977900703775e-04,7.138913197965226880e-03,-9.795415215409191134e+00
-2.166082713536069803e-05,2.367376440432608382e-03,-9.796618927512621866e+00
-2.500001557743511491e-03,-3.933305615151943928e-03,-9.797084351967997762e+00
-8.005419154807293016e-04,-2.695233361645491335e-04,-9.798355792105693851e+00
-4.803122951895740997e-03,1.196403354615508795e-03,-9.796764109646844076e+00
-1.224002321781307188e-04,-4.888847738315042768e-03,-9.798202611069498857e+00
1.374163531166736323e-03,1.438508856505812906e-03,-9.791634358326520626e+00
5.469008906083515104e-04,4.749220732060089266e-04,-9.791632062960951899e+00
-6.360146677285819991e-03,8.415842919066844965e-03,-9.792890383494722073e+00
5.804565926785725666e-03,2.784059084784402342e-03,-9.792140412700696572e+00
-8.361700010903722058e-03,4.380486471020739181e-03,-9.791724958731881756e+00
-1.211368634201418805e-02,6.060111085853825755e-03,-9.791393272425306549e+00
1.401582783394681331e-03,-1.799290903862788699e-03,-9.794344219171579269e+00
1.117368028684977664e-02,-5.976709420285535729e-03,-9.792274142227192613e+00
-2.351193422982315526e-03,-8.873367080186551903e-03,-9.791462940469770615e+00
-4.063064383197022636e-03,-1.704377231732693340e-03,-9.786831477957530723e+00
-6.218881302605907234e-03,-4.521886447149180664e-03,-9.806269083315987345e+00
-1.701306736868197188e-03,6.579608076588327938e-04,-9.795504395466211989e+00
-4.073596141162330597e-03,3.792143698638809554e-03,-9.793784296979294979e+00
-7.857282105754422735e-03,-3.777161509664135781e-04,-9.807371937598489353e+00
1.958051088727297794e-03,1.197169837853628328e-02,-9.796112129867418972e+00
1.309467242648057819e-03,3.248717610475619199e-03,-9.799315742189900647e+00
6.932100952070039193e-03,4.255096942706259287e-03,-9.795581178745671025e+00
1.122982745733044560e-02,5.078592235876361674e-03,-9.799965033795741576e+00
-3.113197566942709632e-03,5.053712170638602341e-03,-9.791477120523721211e+00
3.878635377283278906e-03,1.205982918854440100e-04,-9.799769858747268358e+00
6.727308208584348997e-03,1.190581324164708115e-03,-9.790782349292816988e+00
2.130234251070221851e-03,1.659656245403629297e-03,-9.792985534744889975e+00
-6.960493464872009699e-03,1.271541421262885416e-03,-9.798676506646829765e+00
2.450319311276922055e-03,2.007899809573646024e-03,-9.795375900885568754e+00
-2.409249124065883894e-03,-1.080611187518639750e-02,-9.790598052649068350e+00
1.003739052741436412e-02,1.155454794499904438e-03,-9.800591058901687802e+00
5.077742212289733208e-03,-5.660068041496092890e-03,-9.797853960492064473e+00
-2.325504971252358860e-03,-5.603218991407995717e-03,-9.803445590319515901e+00
9.917240212461632398e-03,6.829530228568450947e-03,-9.795855485988679945e+00
-9.809782930853756019e-04,1.144937911865883968e-03,-9.791130551198047982e+00
2.537633371565702436e-04,-5.932110674306916714e-03,-9.788542330015296500e+00
-2.306508082857898576e-04,6.515375143896559064e-03,-9.792519140996367000e+00
8.842736816738229477e-05,-1.552385176316012447e-04,-9.794968753763631852e+00
-3.150980253469265815e-03,-3.362129864033809937e-03,-9.801044222831345465e+00
3.610044894500513777e-03,2.714463420599800940e-03,-9.792620132590808879e+00
-5.011006649340977830e-03,-1.161513587255948382e-03,-9.791121762747977186e+00
3.947471264721188686e-03,6.408320876168777623e-03,-9.797245149188439584e+00
6.913252750800163949e-04,-1.096564790707886539e-02,-9.791505878166164578e+00
-2.952569453753291608e-04,2.237197050919653707e-03,-9.794142309460122320e+00
2.470108870006031132e-03,3.881911791682272298e-03,-9.798250312594468880e+00
3.173862274206594881e-03,3.615508304001904295e-05,-9.793693949163357004e+00
-1.073986611226693472e-03,2.454572814634878135e-03,-9.795239535972237732e+00
2.295166800588044603e-03,9.295682498779218872e-03,-9.803441228132218299e+00
-4.075004284060781967e-03,-7.833047109700312302e-03,-9.796496308839000022e+00
-1.611964880738833662e-03,8.456150136460826097e-03,-9.794132667054178398e+00
3.009215272595165388e-04,3.261213453274931697e-03,-9.787984888080291768e+00
2.687469530660400226e-03,-8.814759666232255264e-03,-9.798881602554471826e+00
3.331987242269518045e-03,-5.010323521119504873e-03,-9.783263391094854100e+00
2.659640425591574143e-03,1.234334168073989205e-04,-9.790487237467997872e+00
7.417072068486857059e-03,-2.879158153279247519e-03,-9.795566076110494791e+00
6.288549315810854079e-03,-3.650947680050691414e-03,-9.787854990358528795e+00
-4.597331162672450670e-03,-1.775199663090488425e-04,-9.794624225207948953e+00
-2.342748868267382871e-03,-2.453679466639897139e-03,-9.802504888350044965e+00
1.083264172910681014e-02,8.178076375063927234e-03,-9.803650898014378612e+00
-5.091522857210060114e-04,-1.031107546753401091e-03,-9.789132797047269463e+00
-3.119630587652042885e-03,-1.026252862737604080e-04,-9.797628009396827764e+00
-5.277002475614658156e-03,5.856278250552130610e-03,-9.793931440294663560e+00
1.108166591174324263e-02,-5.411159041194150759e-04,-9.793281365025038099e+00
-3.263548931197234135e-03,5.952522629316996973e-03,-9.791472599655868692e+00
4.414507455031566052e-03,1.671134526518215212e-03,-9.793797959269905817e+00
2.389237751349985051e-03,2.901311617344848586e-03,-9.793046895928410933e+00
-4.248968414036350012e-03,4.280256257785323981e-03,-9.796797281826703951e+00
-3.947504033501345044e-03,-6.292368508550845972e-03,-9.789276029223131559e+00
2.003818220745433309e-03,3.676025238195834341e-04,-9.803931417640129098e+00
-3.989970614283350767e-04,1.281245893221899957e-03,-9.793788488939050296e+00
1.962020358312646130e-03,3.365537825293978599e-03,-9.794086452620376804e+00
-5.160519772946632611e-03,6.379504686329549867e-03,-9.793287270106640463e+00
3.246284086409427245e-03,-2.888388748288762964e-03,-9.793754470486538466e+00
7.588100115018208032e-03,-3.955739330634396381e-04,-9.800024937573921235e+00
4.573391531249496218e-03,6.470084992275599439e-03,-9.790402243996348730e+00
-2.834851516051248820e-03,1.271902864456219600e-03,-9.799394053964940454e+00
-2.048932029627488667e-03,1.238921437189309093e-03,-9.801580017656755572e+00
6.698378350156532733e-03,5.323674642535811477e-03,-9.793567754760521993e+00
5.190871655898959824e-03,6.826096771217352380e-03,-9.800744783844580255e+00
1.892646028824539976e-04,-9.620040864612605961e-04,-9.796480113175130455e+00
3.268110488234248455e-03,3.760685386986825987e-03,-9.785941686203489809e+00
-5.176120362708801562e-03,4.877043448219131258e-03,-9.788638818131486730e+00
4.230311588593925823e-03,-5.453844078696025617e-03,-9.790513260201276324e+00
3.384831785000487828e-03,-5.711196070177269359e-03,-9.794722698742360123e+00
-3.588827437832810534e-03,-2.893283745523368916e-04,-9.798818568433521392e+00
-2.557842781601314328e-04,-3.432413494045848980e-04,-9.797159639401282760e+00
1.107965959953808536e-03,-6.825550248754932124e-03,-9.791538308199188023e+00
3.613119988592769852e-03,-2.803832685323644214e-03,-9.792317019295406766e+00
-7.655003759037323080e-03,7.586196180723334646e-03,-9.797805345488953321e+00
-2.163556789297816849e-03,-1.598647042395982690e-03,-9.789803756877486052e+00
4.486699629770492400e-04,-8.116384679866488552e-03,-9.799918110236607305e+00
-1.275835764699832873e-03,-3.418654016774731047e-03,-9.798647818627367556e+00
2.868561698124166923e-03,-5.133855174375791036e-04,-9.801579423803101321e+00
-1.253258075163228048e-02,6.570289026086232990e-03,-9.789550415013408724e+00
1.175603582742645176e-02,-5.205801765267968270e-03,-9.795392223984519475e+00
1.066580762377451665e-03,7.502429423836567100e-03,-9.801808695040632458e+00
5.840775968700155987e-03,-1.064199505317812815e-03,-9.794680700927296257e+00
-4.538408052794398913e-03,1.216274852262927940e-02,-9.784954822314139378e+00
3.833650588618466547e-03,-1.071502152633553931e-02,-9.787970132487131991e+00
1.636232708006268681e-03,-7.941899368278436053e-03,-9.787414071048939235e+00
9.151418793537721350e-03,-3.218012964740519372e-04,-9.793465582302506078e+00
3.778062387358222321e-03,5.686928669266638585e-03,-9.797061370734580166e+00
-6.145890503614035230e-03,-8.961973963312171165e-03,-9.790390114190147486e+00
-1.320846206670686987e-02,3.625013511208068453e-04,-9.792406907902430291e+00
-2.222484522480734723e-03,1.685245883592513755e-03,-9.798222532589299760e+00
2.130196781222071841e-03,-4.904982642053091688e-03,-9.788300136873850477e+00
3.959155785269986849e-03,1.290173798305542345e-02,-9.792895756822751707e+00
1.164527917925261245e-03,-4.728926552560277531e-03,-9.795580414360134824e+00
-2.521888915583205297e-04,4.519404664163010482e-03,-9.800569156480506194e+00
-2.266537597241799311e-03,-1.116528678790728799e-03,-9.785638318868421948e+00
5.530616938137889555e-04,1.435813641583244841e-03,-9.790732301151885864e+00
2.044723706180175994e-03,1.513678737609380764e-03,-9.799190290169027762e+00
-9.014246973772401320e-03,-3.964883848189153237e-03,-9.796824062716126491e+00
2.569001366374576521e-03,1.133563606067036159e-03,-9.791837865440664146e+00
-6.634135042083511360e-03,5.769831205204240324e-03,-9.791184518354297595e+00
1.482047108161359652e-04,-8.712692002049373871e-03,-9.794417849979117463e+00
5.098693702357738437e-03,-2.368530375315591307e-03,-9.789700664088154980e+00
4.377114238718566924e-04,-5.304080269337302540e-03,-9.795166529666859745e+00
-3.424847667489164162e-03,7.045382448661267200e-04,-9.804044225404579649e+00
-3.149275316378186227e-03,-6.024270978861776329e-03,-9.792756490689241033e+00
-3.759137870371574361e-03,-5.066968787350262064e-03,-9.802183123102752305e+00
1.144629449227421627e-03,5.797229353128369091e-05,-9.797131284856000377e+00
-3.477048219153473091e-03,6.893847288076021193e-03,-9.789527657231696267e+00
-4.754369330389509631e-03,4.631943105100846014e-04,-9.791113699104256440e+00
1.169321853561724328e-02,-1.064062503911301916e-02,-9.802636562484249083e+00
4.754010669372613247e-03,-1.057545447149780323e-03,-9.795580150882956971e+00
3.195139028300934131e-03,2.779613046573229870e-03,-9.800132826944306430e+00
-5.732331995606469027e-03,-1.248526218816990371e-03,-9.789325980923745618e+00
-7.196277588322683161e-04,-1.640022203125301829e-03,-9.794899879421224753e+00
8.380373902930567977e-04,-3.413733082565338639e-03,-9.801883320068620620e+00
-2.672241242383342243e-03,4.519471431646433605e-03,-9.795161908808324824e+00
3.556849887775623362e-03,-4.133289587886382864e-03,-9.793215424811196002e+00
3.783181036533524947e-03,1.464497017834922275e-03,-9.798683703299042591e+00
-3.355500895458929204e-03,9.060449724055414517e-04,-9.792459156996459413e+00
-2.474803565957640807e-03,-7.119658350734676608e-03,-9.796368525949151973e+00
-1.666679622281130174e-03,-2.767969742888825007e-03,-9.796543052816724995e+00
4.327750060055366062e-03,1.053623847429195626e-02,-9.794583253930850830e+00
-2.548614676101807180e-05,-4.569597150919482535e-03,-9.794415489167697331e+00
9.518492240114308570e-03,-1.253543559732584693e-03,-9.793181993741011837e+00
7.471889280728542630e-03,-6.325034260248335247e-03,-9.795811333944815402e+00
3.231481589536329933e-03,4.536299989358514098e-03,-9.788870464250944536e+00
7.117799170900967380e-04,3.685047649123335701e-03,-9.793166601171744645e+00
-1.965286777676544805e-03,-1.466613045000885081e-02,-9.791968549217958895e+00
-4.240859157522382759e-03,-8.703752877244156153e-03,-9.794085630423255751e+00
3.459264902153860819e-03,-1.461185878818156095e-03,-9.791766457243321398e+00
-7.400008857417328780e-04,-9.076062316096051436e-03,-9.800746958299793476e+00
2.396958958808243553e-03,1.774074843723516450e-03,-9.796796930671465731e+00
-6.517704822057195785e-03,4.096159729254033287e-03,-9.795411302921909424e+00
6.378360003464509514e-03,2.374954931328591805e-03,-9.796285876789108116e+00
2.108666716379022869e-03,4.954306889948557023e-03,-9.799854155616289475e+00
-2.024222935351573539e-03,-6.359408313879631042e-03,-9.806031125359325529e+00
1.340275109890299915e-03,2.310296574239664811e-03,-9.804542514947492293e+00
1.947307370782660335e-03,-3.100287030638570855e-03,-9.791905460663640426e+00
6.571906816164599201e-03,-2.190557865765406075e-03,-9.787251504654459922e+00
-9.645146026869132194e-03,1.315476766228065473e-03,-9.797603412490916597e+00
-4.497086478657858107e-03,1.458627729652190114e-03,-9.790814777965961113e+00
-1.728245625519496224e-03,6.377785414746563013e-03,-9.804460180064943131e+00
2.078198599066828980e-04,5.194542168305027810e-03,-9.807521374395234304e+00
-1.612465240568016021e-03,-8.001786581761698158e-03,-9.794320798971920539e+00
4.433432448926757918e-03,-3.078223447598837058e-03,-9.783840740519607948e+00
2.521069476249861944e-03,-3.839900468803431229e-03,-9.800517499836505664e+00
-1.172385079627905925e-02,6.297577341041776799e-03,-9.794061645525045989e+00
-6.710151362722276830e-03,-7.325152108997481752e-03,-9.791310980893097593e+00
-6.077487492076114571e-03,-5.229507659584904482e-03,-9.798977893384295257e+00
1.252572642947759243e-03,-2.212427400966414902e-03,-9.785510208561776224e+00
3.648313760876324870e-03,-4.588180290166516545e-03,-9.797868386976642086e+00
-2.586969763631645491e-03,1.677065211757130863e-03,-9.801609779045900694e+00
4.558998787786684714e-03,4.775042461108723428e-03,-9.795105104371231164e+00
-6.850488127189654271e-04,6.762782929967570567e-04,-9.792527745587488397e+00
3.319686860793261834e-03,1.265054065297020226e-03,-9.786740697936004096e+00
-2.609126616327373926e-03,4.758298994714434300e-03,-9.793926590909011409e+00
6.343856904081412529e-04,9.752653502161524185e-03,-9.803220994764739515e+00
-5.546701078895172748e-03,5.453462670831697549e-04,-9.796027067023166168e+00
1.836938491735579321e-04,4.269117384358027184e-04,-9.796386163575114381e+00
-2.306740311294575019e-03,-3.293045502909328417e-03,-9.794680520467794693e+00
5.156343196498638405e-03,-1.059427048516312954e-02,-9.792843916534735627e+00
-2.441034685662568302e-04,-1.381292658318068788e-03,-9.791649305819461802e+00
5.848841929608802719e-03,-8.639874384101525404e-03,-9.799166516928051962e+00
1.035172906060036202e-02,-1.158303600650598553e-03,-9.793713213809082774e+00
-2.151512990917556732e-03,5.749635212956793161e-03,-9.793384186626530763e+00
-2.067653716674837123e-03,4.117503583412701618e-03,-9.788244604562956752e+00
8.996118365953258145e-03,-2.226093626423042513e-03,-9.795186187725358096e+00
3.801170856944344461e-03,-4.047959481912164099e-03,-9.798730095932098649e+00
-3.659219991708165687e-04,8.915994576522671619e-03,-9.806609029857247251e+00
-2.914621939183566907e-03,5.769743038492892821e-03,-9.795073156455140762e+00
3.435527802438036009e-03,3.913605163162849673e-05,-9.798922773526985708e+00
1.847910032121112978e-03,5.336788409430615575e-03,-9.798042064300165777e+00
4.060693140490103693e-03,5.322370222351924078e-03,-9.791172877785800921e+00
-2.703723206861516088e-03,-4.675369625195419923e-04,-9.795541548796602882e+00
1.402795694039563317e-03,2.812138078744360475e-03,-9.796005363358069928e+00
1.237067936603537897e-03,2.341688432917742209e-03,-9.796602492133846596e+00
-6.040227814707159817e-03,-1.199254634818442680e-04,-9.784484344494535080e+00
2.496271100688217739e-03,4.072872627759058228e-03,-9.793968169380574906e+00
-3.739830345807717074e-03,-5.912085233837741788e-03,-9.793531693946746941e+00
9.914075452097746016e-03,5.667795497107695063e-03,-9.807720641592448274e+00
-1.563557525952451220e-03,1.023132787736085077e-03,-9.801575109764316451e+00
6.198412510385661184e-03,-3.117299854943405592e-03,-9.799564657676954837e+00
-1.313214072068126861e-02,1.981076178181680799e-03,-9.792802397628557642e+00
4.158220733055315900e-03,-4.275401476741626933e-03,-9.791549593809858010e+00
-8.800505904579808761e-03,-4.609495178049764080e-03,-9.795049837946608662e+00
4.863602854743535354e-03,-5.167247068959065701e-03,-9.795132497899825097e+00
-7.275757065419120526e-03,6.382316392107034199e-04,-9.799405421159475438e+00
4.116750880248707008e-03,-1.954119171751593238e-03,-9.801862393073422552e+00
4.540064376555396145e-03,-1.894618969742124098e-03,-9.797815937575713008e+00
-9.900362920390883524e-04,-2.530709312536275849e-03,-9.797365110745900552e+00
-1.743988081508330602e-03,-5.260871782902230322e-03,-9.791947816756595202e+00
3.898550999860380013e-03,-1.470559666792255714e-03,-9.797399846490833397e+00
-7.737975536427656870e-03,2.706982800923237158e-03,-9.795916198155849131e+00
-1.092046368608260917e-02,-1.249343133585810364e-03,-9.789992126165442343e+00
3.777242451598586317e-03,-1.103234535778135645e-03,-9.798905530884669091e+00
1.009827601402128435e-03,2.638313452784081265e-03,-9.793067943792006957e+00
-2.476060993694068849e-03,-4.532216041579766042e-03,-9.790788032094331683e+00
-2.230396499730149130e-03,-6.739774854413022563e-03,-9.793427700780171108e+00
3.298281755541115044e-03,1.223600859537368399e-03,-9.787890874489139748e+00
-3.955150601035659769e-03,7.217240463595184577e-03,-9.805549266442206147e+00
3.449218996676485256e-04,-7.672634538531103617e-03,-9.799510095683984900e+00
2.842675113526808850e-03,9.858045263559875055e-04,-9.793911126268099565e+00
5.136265440783549518e-03,-3.136648034658654112e-03,-9.796586734290221088e+00
3.841622001715760178e-03,4.722176680362767665e-03,-9.787319013838757797e+00
-8.464002309584103562e-04,1.354821281169575013e-03,-9.795831335935003992e+00
-1.315179021087656101e-02,-3.061830868000662426e-03,-9.802121015617808908e+00
6.805780611078863715e-03,9.545709073669830531e-04,-9.794917723044465063e+00
9.681755897283952222e-03,-1.139414531202067801e-02,-9.793621592708738888e+00
5.256567765473779165e-03,-2.484684227495992988e-03,-9.798856525567705589e+00
2.268573419167635788e-03,-9.648406051070434336e-03,-9.803403533075613296e+00
-1.215954077978766666e-03,6.247986247070971833e-03,-9.790397561078341582e+00
4.072026934158306556e-03,7.188453045043613834e-03,-9.796514532888759064e+00
3.803051683773924201e-03,6.383157476792648312e-04,-9.799586243790782802e+00
1.444592061682431049e-03,8.711605382956018329e-03,-9.795309283075862794e+00
-6.621861710132612155e-03,-5.713424210019030745e-03,-9.794380958846915064e+00
-4.865010816648956266e-03,4.065059072177018042e-03,-9.785285083869780465e+00
9.239047105541870614e-03,-7.577308621742957946e-05,-9.789459266269581406e+00
1.264822239246221440e-03,-1.437557780249092663e-03,-9.795707731480300495e+00
-6.954928868159496527e-03,-7.496089060213564220e-03,-9.794277563169130119e+00
-3.789356622324008099e-04,-2.914658445627750939e-03,-9.795942886517185144e+00
4.269894725439014188e-03,-9.999421525583925430e-04,-9.790932646087629365e+00
-5.861418873262578752e-03,-4.889877108448618948e-03,-9.795886196577466620e+00
1.259093162598221754e-03,-1.127646888541384076e-03,-9.795700381361175602e+00
-3.971829590662250518e-03,5.445106831209287936e-03,-9.788855922385197417e+00
7.491867905031994804e-03,8.917432382273614982e-03,-9.802951074354094629e+00
6.542898677984344130e-03,8.898870006598405763e-04,-9.792208782495082531e+00
-4.203292018698589301e-04,-8.884185929744164642e-03,-9.789941723014017327e+00
-3.096881216822839527e-04,2.988834198082063447e-03,-9.792330311663981490e+00
2.483076391563749600e-03,-3.083362195239188180e-03,-9.794845506610721841e+00
2.088896623144194473e-03,-4.777053865277811930e-03,-9.793875552623260816e+00
-2.517543561161265583e-03,-1.541581006800384675e-04,-9.797968877743674199e+00
3.537383953256376026e-03,6.961258239015099929e-03,-9.796834821285186123e+00
-3.860781658942423391e-03,8.926579679993856820e-03,-9.800645529440883408e+00
-9.675161039790823245e-03,8.037681588402232832e-03,-9.791909145372473589e+00
1.009006527720669039e-02,-2.395987005101545518e-03,-9.798340054697453283e+00
1.760102002725031506e-03,3.404381041502766011e-05,-9.799873001210817947e+00
2.828314438570532930e-03,1.225651776114216641e-02,-9.795546128740999947e+00
-8.486774440900056796e-03,-6.118837739328085966e-04,-9.792465658758176872e+00
1.281030316827919211e-03,5.066287964885260280e-03,-9.790599852247508394e+00
4.259448480495172176e-03,9.717897996289068252e-03,-9.791868135488400071e+00
-3.163277886339914587e-03,9.548791965644704872e-04,-9.803375789932720963e+00
3.173291379880630817e-03,-3.912970749157235369e-03,-9.798799796825019115e+00
4.670171754347937285e-03,-3.528340230548518679e-03,-9.797649930149818331e+00
5.580792533903370517e-03,4.132700693866989475e-03,-9.793354630056638754e+00
5.798632166895586505e-03,1.546695660275196772e-03,-9.799423502112368567e+00
1.206287791101435343e-03,1.878767300439703001e-03,-9.794462055913733423e+00
2.967880072311076395e-03,6.845978556696274107e-03,-9.794702261380512809e+00
5.185164712860604666e-03,9.468361198469969417e-03,-9.793065247991084021e+00
7.536788737185443759e-04,3.962362476089333410e-03,-9.793449279661185614e+00
8.330043814434398911e-03,1.014007837133216496e-02,-9.787752958665210556e+00
3.282808468414928280e-03,4.219541935410859278e-03,-9.795151761278484415e+00
5.220442028666830679e-03,-1.249797538108344966e-03,-9.800786572105829819e+00
1.010053990699378255e-02,-6.036678598395779291e-03,-9.793867473761688203e+00
1.992817541346283364e-03,-4.376293339776303297e-03,-9.799181573860101579e+00
2.735032660579246339e-03,-2.231401616399866089e-03,-9.790720078664362447e+00
1.413281102329081145e-03,6.411657075776754523e-04,-9.793639952203369248e+00
-2.525367735968915301e-03,-7.735933031841390160e-03,-9.801368710162808640e+00
-4.245892480771488401e-04,-8.261659923589494787e-04,-9.794644790773654464e+00
-5.687124548058663555e-03,2.305537131550748457e-03,-9.788043189460102766e+00
-5.529642728677947386e-03,-9.567315736045449914e-04,-9.802093470760464555e+00
-3.254872235335167386e-03,1.187594949958215886e-02,-9.798974171842605330e+00
3.223760910761475779e-03,7.617119049852133809e-04,-9.799697014097638714e+00
-4.826245005317228269e-03,-1.130890910838812033e-02,-9.793731627459917988e+00
-1.031759060200803041e-04,7.448271824988486611e-03,-9.792112522816037057e+00
-3.915814278384810096e-03,-6.124804677740603408e-03,-9.797945475853071073e+00
-5.043782782599387331e-03,-3.746297018780047391e-03,-9.795501015625445618e+00
8.443518333603655668e-03,-3.622437318838950086e-03,-9.793428642873365675e+00
1.243140336645855940e-03,-3.001317239955598667e-03,-9.795511355983951063e+00
4.713118359270004019e-03,1.732840686433646500e-03,-9.797198886833268006e+00
6.606353024730261380e-04,-2.928617946441332102e-03,-9.800572785064352033e+00
-2.680377177605578094e-03,1.577985388100525306e-03,-9.793625428803476751e+00
-2.303427646373988873e-04,9.061814235425260516e-03,-9.785900725540679801e+00
2.088226648106732662e-03,1.945926462372264774e-03,-9.788188460807154101e+00
1.097252929336281838e-02,5.283407616060293438e-03,-9.799296821983011441e+00
1.765098685085486705e-03,-1.623930802300587502e-03,-9.795360707400289968e+00
2.503389346737855403e-03,-1.097719394761119231e-02,-9.787673912283050726e+00
-3.067661062860355548e-03,4.449559944694654601e-04,-9.793697779633577127e+00
1.476853526583239880e-02,-7.084591990416319596e-03,-9.799169249130562420e+00
3.878763898984095848e-03,-9.708755786470185320e-03,-9.798272594509013445e+00
-1.389538617349713508e-03,-5.591536227505669934e-03,-9.802113793612482695e+00
1.237723651387079293e-03,3.287479201794649402e-03,-9.799214596563498247e+00
-9.959012318172042258e-03,-2.915369717652724693e-03,-9.789180691258286160e+00
-5.550443180448430894e-03,-2.748859470628349424e-03,-9.796247304887518936e+00
-1.036341217088053088e-02,-3.730033816482657312e-03,-9.790702112409045199e+00
-2.222124499575969803e-03,-6.145953224793499793e-03,-9.797140657750778914e+00
-1.430539469133309876e-03,2.876312495261066976e-04,-9.801047333064305533e+00
-6.243729092857917265e-04,-3.723950577886198272e-03,-9.793940296495174280e+00
8.293494198929390535e-03,-1.935166528892419760e-03,-9.800278352160516349e+00
2.850007140124600938e-04,-7.798649554924007082e-04,-9.790354717575009857e+00
-2.073083198740307935e-03,5.822862543053050274e-03,-9.798200340648012485e+00
8.745605906049898348e-03,5.921460551763083058e-03,-9.797585244377781777e+00
-4.156030313413792976e-03,1.606151370852969967e-03,-9.795982786399033415e+00
2.084435929795197366e-03,9.205595372546749103e-03,-9.788622690906981560e+00
1.069303088875328718e-03,-8.701342964108087132e-04,-9.792126285984982914e+00
-1.606059272545540782e-03,-3.535749871664410279e-03,-9.795743286621583223e+00
-4.369282925115455969e-03,-8.897224298490108083e-03,-9.788768268667075390e+00
-1.653401601926804063e-03,-1.053524940071404355e-02,-9.795230355990232951e+00
-1.902145506679248305e-03,1.427750707874848174e-02,-9.798824351045475112e+00
-5.014843352477649230e-03,-8.016932077118224184e-03,-9.796174615851571232e+00
-6.798228767323501523e-03,-6.037562468738764607e-03,-9.795160454894721980e+00
3.804567735494223269e-03,-7.040343291795815063e-03,-9.789673082777103019e+00
-1.266699145526323234e-03,-1.263664983922924102e-03,-9.794027109190489355e+00
-4.289162707484098225e-03,-2.974455610404332963e-03,-9.794198951463974012e+00
-9.280293476803596828e-04,-2.292280453248032260e-03,-9.788264645322945157e+00
1.484562183748983077e-03,1.420952803540371893e-03,-9.794919033684408305e+00
6.992012583605276659e-03,4.883341206621361758e-03,-9.789442417090512549e+00
-1.841318276289313251e-03,-4.756326214274182555e-03,-9.789878179648249912e+00
-4.133672288058770107e-03,-5.954499755377540282e-03,-9.798985249494290173e+00
1.021485290756840927e-02,5.301417847074485316e-03,-9.794217820719111955e+00
4.710470463587499573e-03,2.645850847815731620e-03,-9.794783804929865667e+00
-2.249963214980316324e-03,-5.837392059089953691e-03,-9.792488779172547453e+00
4.914441939603410130e-04,6.090414471450714996e-03,-9.794239226309679580e+00
-9.447693505843047851e-04,4.292686248098836923e-04,-9.778156308466225966e+00
3.796545126601847189e-03,5.800111159155377401e-03,-9.802329990457582909e+00
3.069381113441835719e-03,2.667451221087220083e-03,-9.795571549909393383e+00
-2.840005493711796319e-03,-4.295943623090524906e-04,-9.794780241456603420e+00
5.359381839409298881e-03,-1.044550385298960785e-02,-9.787295083360715964e+00
-2.011596657952130322e-03,1.320953447472962257e-03,-9.799446658448180969e+00
6.940589599151376562e-03,5.814499024275358516e-03,-9.798429738883092099e+00
-5.207967905121671168e-03,4.608725167449679271e-03,-9.788411384300973239e+00
-6.766807709764499461e-03,4.182741292811299749e-03,-9.794525061228124940e+00
4.619152951074193859e-03,-4.648117718418834192e-03,-9.795019882494425900e+00
-4.877626263025048280e-03,-4.101966581942293258e-03,-9.796070695560365138e+00
6.509792112477148611e-03,1.595496748592132143e-03,-9.794224642081530874e+00
9.533056560531529000e-03,-1.465763998507811075e-03,-9.799154104750288141e+00
4.783917502321248343e-03,3.564211878271488811e-03,-9.797827976616098056e+00
-2.172489351501975200e-03,-1.792892453983093663e-03,-9.791359270906523804e+00
-1.267443702824279069e-04,1.228291433310918241e-03,-9.797971249093999191e+00
4.729258902481060442e-03,-3.293851745779413035e-03,-9.791185858837966549e+00
4.847307829811476829e-03,6.434286234427665646e-03,-9.794622485389661293e+00
1.761875085833743745e-03,-4.320837652367103161e-03,-9.794377007339157615e+00
6.389813125949268639e-03,-2.339370533962201182e-03,-9.794029558342487007e+00
-5.409186102163726986e-03,6.046139310022955946e-03,-9.801933041183742645e+00
3.122368485100132738e-03,-1.666317112820391976e-03,-9.802350515712845436e+00
4.190184474564618948e-03,-1.171356758183442377e-03,-9.802561210020188653e+00
7.429711864706706713e-03,-5.130485752039931797e-03,-9.802335636555978837e+00
3.537926546526281527e-03,-5.066993674746431142e-03,-9.805066533519017469e+00
7.656880700692621569e-03,-3.760226601579996081e-03,-9.792609186042422920e+00
2.246273387441575370e-03,1.725734355442006158e-03,-9.796919561779789731e+00
-2.008908286508993184e-04,6.861664744787560576e-03,-9.799927698525728204e+00
-9.430881462281718447e-03,3.831226925870118497e-03,-9.799674615285608681e+00
4.183375652008861426e-03,8.764270484552263117e-05,-9.791750886686351407e+00
6.664947358617398857e-03,8.734340097668288547e-03,-9.797054339322599503e+00
-7.612683455188049876e-03,2.109425865083431380e-03,-9.793351451553293785e+00
-2.161699963235887752e-03,-3.463820703444532058e-03,-9.793604544916236776e+00
-4.431755529248168624e-03,6.695889726086965733e-03,-9.798656829456364292e+00
8.217819568668896166e-03,1.520338503060336211e-03,-9.791110438243839198e+00
6.220951777765769061e-03,8.882459547957587825e-03,-9.797600179904074835e+00
-4.982581334901658738e-04,2.486689044818141212e-03,-9.788477614191243958e+00
2.501845117580252329e-03,6.088322799705850330e-03,-9.801509646329400027e+00
5.368227963774781925e-03,7.631604894518808149e-03,-9.792253560018991720e+00
6.669991838240706128e-03,-6.822558983994883672e-04,-9.795946074309798135e+00
7.804632339695370506e-03,-5.078930208720773250e-04,-9.783532024224248502e+00
-4.171037095093886593e-03,3.450847395847320143e-03,-9.798585227442885071e+00
-1.286691291770614577e-03,3.006444414910719107e-03,-9.798637545062398146e+00
-1.792664609729009489e-03,-6.118210975710553813e-03,-9.795445976000811683e+00
-3.580716943922970449e-03,5.275281369967735855e-03,-9.795701469321690169e+00
3.952878183329548646e-04,-5.872876165881287837e-03,-9.786219118790496552e+00
-2.222884321506813851e-03,-6.093409513777085914e-04,-9.789700416824631546e+00
-2.502132519390113177e-03,-8.622362007397939851e-04,-9.798662128938444127e+00
4.942655158500119071e-03,-5.091120042391044861e-03,-9.796763405373496880e+00
-5.414590098973144291e-03,5.356423306427916808e-03,-9.800261018595683993e+00
-1.032838680519894241e-03,8.098457595062438438e-03,-9.797037365781921636e+00
-2.123944376464622936e-03,2.636242643640045354e-03,-9.793469000151286963e+00
7.251373750442747634e-04,1.314534632658034483e-03,-9.789331239426385167e+00
-8.904697943104806319e-04,-4.823942563847231609e-04,-9.795683167369331201e+00
2.378126608627053641e-03,8.656094299204305023e-03,-9.789729299471819246e+00
-2.618489460818079328e-03,8.146965749239737029e-03,-9.793528016821317905e+00
-2.491190515567451910e-03,6.566963720387501702e-03,-9.792161581878062293e+00
-5.358953470636210192e-03,-1.908300531251347527e-03,-9.796677378056354968e+00
3.035807449735895835e-03,2.219765184513136820e-03,-9.792534982863188020e+00
5.189991946050909188e-03,-1.319772567552213866e-03,-9.789196992085352989e+00
-9.698617228530147585e-03,7.707229321398508838e-03,-9.795917653192713459e+00
9.669631222315597935e-03,-2.239271826578205331e-03,-9.796691415702841965e+00
2.263167864642278738e-03,2.161556682120702503e-04,-9.802792209912768229e+00
5.275268742725102399e-03,1.347165146843691498e-03,-9.790755571506094768e+00
-1.092731246032000326e-03,6.816994200831457199e-03,-9.788301731486580337e+00
-3.676049235528288306e-04,7.925604585026917474e-04,-9.787660417841189897e+00
6.684886025956845307e-03,8.879422877004397585e-03,-9.793651097144518758e+00
7.510119408394589843e-03,-2.772957334180935467e-03,-9.797066492289506101e+00
-2.300903250714853368e-03,1.284436957296311230e-02,-9.797500285357028105e+00
4.880324552383958139e-03,6.801783976484932458e-03,-9.801492661179020516e+00
1.153320838702097569e-02,7.332002001807900625e-04,-9.798081148743417401e+00
5.346848588125134062e-05,-2.672309041085052777e-03,-9.797109940045073628e+00
-4.504518785038318963e-03,-3.565671027772809951e-03,-9.789502890077541153e+00
-4.159923089682091013e-03,5.295266159333308128e-04,-9.793919328809831626e+00
1.183342744037080632e-03,1.185011242450529842e-03,-9.795947259053445322e+00
3.782502229959744909e-03,1.053285617675590305e-04,-9.791465996459999488e+00
6.206162413069008128e-03,3.999361053429251363e-03,-9.797019254462107085e+00
-2.625563684971307567e-03,-2.703992674636016003e-03,-9.794712916951169746e+00
5.737298679054901769e-03,1.269944396008071885e-03,-9.802797582255557529e+00
6.784354604585807018e-03,-1.216313517826066431e-03,-9.796252314774436698e+00
1.836400992828969396e-03,2.441274395616925726e-03,-9.804447670387929747e+00
-1.746687908010503831e-03,9.394493697972575857e-03,-9.794084253760852121e+00
7.772516152468544014e-03,-1.558750648252098941e-03,-9.788063904923243186e+00
-1.170773812882651248e-02,-6.458749749340793149e-03,-9.792918869188243391e+00
-3.272566442044758626e-03,-2.795059210571220094e-03,-9.798672718217659394e+00
-3.402536887895523873e-03,-5.092634077024319611e-03,-9.790582891164133272e+00
3.100641314093909202e-03,-6.504841713704092926e-04,-9.798187752435749687e+00
-1.938761605488719926e-04,-4.622554033984002317e-03,-9.793421985386757456e+00
1.613140543196731839e-03,3.001160216204492573e-04,-9.798667405256813012e+00
8.130385159614235413e-03,5.941740535760705808e-03,-9.788386802554086330e+00
3.841836455741531268e-05,-1.869964838049354306e-03,-9.790802939304072083e+00
-2.071837515601081779e-03,2.740081767538441338e-03,-9.785839248830637160e+00
1.843334294459287107e-03,-6.909653944402101636e-03,-9.791009929692876312e+00
2.457021675020916972e-03,1.136521998286612115e-02,-9.789374395242473881e+00
5.787581484855456107e-03,-4.102604568155754361e-03,-9.786584692109981276e+00
2.414089104783705489e-03,1.217171058156074105e-03,-9.792598201868651486e+00
3.212704987369960786e-03,-8.866218526731327321e-03,-9.792465724579175301e+00
-1.439549494292619893e-03,5.442425922416976002e-03,-9.794494515426320547e+00
4.025775293386537820e-03,-5.863287066255854114e-03,-9.791947886724537753e+00
1.543498867817730442e-02,3.414916396740037136e-03,-9.788011810148155689e+00
4.837178398457965545e-03,-1.981740388801848420e-03,-9.795583359362398213e+00
8.120571649164367699e-05,-6.927452208793355611e-03,-9.794623010404446717e+00
1.087753174360811710e-03,-7.904708250201191019e-04,-9.795317105913012412e+00
8.173141799506251221e-03,1.567954328469773825e-03,-9.785775149669847295e+00
2.086825795293976559e-03,5.865851882599071570e-04,-9.796859528977321929e+00
1.371343337513833850e-03,1.374379642536699420e-03,-9.788734111385172909e+00
-5.432524791946078367e-03,-6.102623901144538926e-03,-9.788399674804281858e+00
6.162628258187656874e-03,3.571286536989128849e-03,-9.793659186290279095e+00
5.153009679967291085e-04,4.971883019167193732e-03,-9.800397616881380003e+00
5.921443780715933934e-03,1.921372490143962494e-03,-9.808320624155093981e+00
-1.009858019240478244e-02,-1.067073171900453921e-03,-9.797747674109745120e+00
2.852833328673493735e-03,4.556384201526426751e-04,-9.796423376609039835e+00
6.954537696963534847e-03,-3.040214296141332444e-04,-9.804878541122915792e+00
-4.815797912739143948e-03,6.012170707322283050e-03,-9.800010036295596194e+00
6.846158355567629784e-03,8.642363441585558179e-03,-9.801666137647616850e+00
-1.992986199000268063e-03,4.821969287823775832e-03,-9.793676138184551405e+00
-6.099109197575132597e-03,-1.192730861683495092e-04,-9.792363692556136812e+00
5.078460423944911213e-03,-3.762336065668267070e-03,-9.797144179727860447e+00
-7.028069030498840502e-04,5.415525503477601650e-03,-9.791023773624816684e+00
-6.870972912846227357e-05,-2.625647664553203749e-03,-9.788583551657442428e+00
-4.086330351696612802e-03,-7.196336951159241439e-05,-9.797775790780638872e+00
-2.340128742147912916e-03,6.842975906678806525e-04,-9.783529314033566848e+00
9.420148659452872233e-03,1.108235205806085491e-02,-9.791732460715934394e+00
5.748737203642224035e-03,2.780517655651005421e-04,-9.794220317405475384e+00
2.148833378849086383e-03,-5.274827882564357695e-03,-9.800467010832861092e+00
-4.904770961937953040e-03,2.246201293920426813e-03,-9.796734069864514893e+00
5.849974032208583863e-03,1.083911591192765218e-03,-9.798009564373584723e+00
-1.880998078957746636e-03,-8.195360264513028943e-04,-9.799773793464469307e+00
1.319060631807630456e-03,-2.552347570445805992e-03,-9.797423313743687245e+00
-1.788253608392535851e-03,9.292113204120405756e-03,-9.796701989280167666e+00
5.166922096964013215e-03,9.351055482889870929e-03,-9.799900829561755344e+00
2.432889481201469875e-03,1.300148885823020507e-03,-9.784515664117888534e+00
3.490325676899054888e-03,-5.546557772221828719e-03,-9.800070087832049026e+00
-2.782782450582949128e-03,-3.393361467568328359e-03,-9.801282947721150052e+00
-6.002744466028935889e-04,-5.789150462864707351e-03,-9.787919768122300468e+00
5.988006126623326118e-03,6.149705447581093817e-03,-9.794286579136954884e+00
1.151038816593293480e-03,1.636684535594751504e-03,-9.803915715952642884e+00
-5.134225994159698214e-03,-3.507887757662512488e-03,-9.796894895159901751e+00
-3.302186854980207215e-03,-9.582902738207645533e-04,-9.796790380733451542e+00
5.335896606314997036e-03,2.732709193668392787e-03,-9.787502995512864956e+00
-2.851110946066365455e-03,3.179881380551278711e-03,-9.786888945468012579e+00
3.712630870998767652e-03,8.585313592150106525e-04,-9.799474178158876114e+00
2.266455732655078218e-03,4.690589592313111969e-05,-9.797211572656635781e+00
5.793307537160039683e-03,1.193725746211745688e-03,-9.806375588237928653e+00
-3.616472491831337725e-03,-1.953445698428535326e-08,-9.787451634349139340e+00
-6.997659194179861250e-03,3.575321641471027349e-04,-9.801172580390431932e+00
4.188251065960429433e-03,-3.063540585728083670e-03,-9.785482264283935194e+00
6.297605062896902270e-04,4.880082861292856476e-03,-9.793684485180561339e+00
1.024762263912160597e-02,-5.816735821914822621e-03,-9.797966866073798187e+00
3.095099702747315662e-03,9.695086291584664728e-03,-9.790150478357290353e+00
3.063565105248663815e-03,1.144369710007415823e-03,-9.794684356063354969e+00
2.709323944479943500e-03,2.523271156844048707e-03,-9.798164849980901536e+00
-2.871510258688873135e-03,5.452287608194111498e-03,-9.792348478619683050e+00
1.599998577069878473e-03,2.585989601578438015e-03,-9.794285426887510582e+00
-4.534161520708905775e-03,2.155297160700776499e-03,-9.790788588955809502e+00
1.777573771246001265e-03,-4.524957830170834444e-03,-9.788931114004684630e+00
2.636344535242182382e-04,2.301153295480501838e-03,-9.803207299802100039e+00
1.277172469826290575e-02,-5.115534786747897873e-04,-9.785407132423307175e+00
5.263014600940154296e-03,7.004688833327189171e-04,-9.799587707651465252e+00
7.104559563135805222e-03,-1.858797501591141809e-03,-9.787753803664521968e+00
5.224490829152576496e-03,8.300855525813678401e-03,-9.791237583552632628e+00
5.849923499148971216e-03,-1.112533003749825722e-02,-9.802357019959046625e+00
-9.702980541629969763e-04,-1.089275429683591104e-02,-9.796113880566984733e+00
4.064362754747544160e-03,-4.430935589453038892e-03,-9.792962467152149131e+00
-2.309175652910761597e-03,5.794394012434112354e-03,-9.796270293769408610e+00
9.001921083921925366e-04,-1.158650633217769496e-02,-9.791116997995297666e+00
4.348630016019124425e-03,2.237886544054581463e-05,-9.800780176497983831e+00
-3.609282062558966803e-03,4.632058018019926358e-03,-9.795624993252861401e+00
-1.635885068531514131e-03,-9.198519213513684650e-03,-9.790454336935610513e+00
7.265157006872142564e-04,-6.949291483692969376e-04,-9.789687886047106602e+00
2.665342210563036423e-03,3.516330481764575952e-03,-9.802171873594282658e+00
-6.381045053379124157e-03,-3.290921992573144807e-03,-9.793379664126478090e+00
5.294728319198136086e-03,1.806887467631145255e-03,-9.795839457212082380e+00
7.302509036381060704e-04,-7.426201461796181486e-04,-9.794412774481928707e+00
7.710373155702607458e-03,9.411803636762512346e-03,-9.798790722548682552e+00
-3.315925660492686968e-03,3.447982473823388121e-03,-9.791714457701885976e+00
-8.733288891260326467e-03,3.441087827580794484e-03,-9.794803870622772024e+00
-4.291952471796751109e-04,4.923140302969085044e-03,-9.798121970408688597e+00
-2.219301397347974748e-03,-6.589627846268224579e-03,-9.795486763780425932e+00
-4.030645613815815251e-03,-5.495784350302772119e-03,-9.800934567175682233e+00
4.249031224495400578e-04,1.301354018284985622e-04,-9.802575614047167818e+00
1.651256869410666758e-03,4.516280264867779740e-03,-9.794350342532416320e+00
-6.068487209226579651e-03,3.950834981801319354e-03,-9.802562501005628093e+00
9.915145416360718680e-03,4.833068471890521168e-04,-9.799603037144496653e+00
-6.995114138417764423e-03,9.308765390460538997e-03,-9.793997199622122452e+00
8.827938424099625227e-04,8.517380500136589004e-04,-9.789744429889381649e+00
1.548382470872296289e-03,2.182988107385819276e-03,-9.792591766697489319e+00
9.733540634448555051e-03,2.628948018054753748e-03,-9.790238157274686159e+00
7.207189836860015443e-05,-7.560045432591329558e-03,-9.788366304126711270e+00
2.519969639175213133e-03,7.566608058767472500e-03,-9.787895819579560452e+00
-2.160622806266561391e-03,5.278805529624354918e-03,-9.794211878399030624e+00
6.124010777135376060e-03,-4.447821559836978664e-04,-9.794311210753347652e+00
-7.828035937141046736e-06,-9.258563913515410054e-03,-9.791878518998840875e+00
1.389923825232717170e-03,-6.389282781066462844e-03,-9.786389184932890117e+00
6.573046447864376585e-03,-2.640014685399576060e-03,-9.794875021986188202e+00
1.090560091733714168e-02,1.666504967284864261e-05,-9.797134617106188159e+00
-5.355670109931795313e-03,6.600377694293116208e-03,-9.793759696173850671e+00
-3.179752761639881038e-03,-6.027966659607106835e-03,-9.789353785248273709e+00
-6.556813876272255155e-03,1.162960145202663687e-03,-9.789678629860505410e+00
3.255149604766637960e-03,-9.468792462213602643e-03,-9.785941557925481149e+00
-5.392627728510526741e-03,-4.595170975797064662e-04,-9.792181918198586743e+00
5.739503515034758731e-03,-2.493433868748545952e-03,-9.790212412511341000e+00
-2.452370673740365305e-03,1.856418922959080669e-04,-9.799161792780815006e+00
-7.312862536329987635e-04,-3.261834723304532935e-03,-9.795534543838812169e+00
-1.158933505164828730e-02,1.058003582577697090e-03,-9.788827483395223794e+00
2.496087473652110721e-03,-6.320335565653730295e-03,-9.794732452412723944e+00
2.047928914304076968e-03,-6.899572905093838068e-03,-9.796440083363732398e+00
3.745455618406366011e-03,-3.957234819428010267e-03,-9.796649971693646819e+00
3.536864685203158776e-03,-2.152342616689260218e-03,-9.789913685605020177e+00
-2.195813271595055492e-03,3.484731271736864373e-03,-9.795936459350114589e+00
-1.765633675490594625e-04,-7.710712990597855254e-04,-9.797493945105507862e+00
2.599315608860404848e-03,4.386099900186552977e-03,-9.787547334689408629e+00
-3.115555384998026835e-03,-3.713615104074699785e-03,-9.794590194735866007e+00
8.342317527009165609e-03,-5.177138701869922824e-03,-9.778772677960766657e+00
7.363684185297528738e-03,1.047345633807747044e-03,-9.794441270089585316e+00
-9.584715665339127921e-04,-4.352529925082724779e-03,-9.800355239224012749e+00
-3.852783745649945683e-03,-3.788895252284977221e-03,-9.793265412645018486e+00
-1.280083896896680408e-03,-5.123228847173429135e-03,-9.793711028301061106e+00
-9.762847691081662227e-03,-5.792984819239042210e-03,-9.797124021420721363e+00
-2.177467449676592608e-03,-2.648851036012631055e-03,-9.789610577120557267e+00
1.652243770473221102e-03,4.489593521196419412e-03,-9.792781483657726938e+00
-3.384434242267557978e-03,5.928846025962039579e-03,-9.794037090830146397e+00
-2.190883870460184207e-03,-7.431910385234212491e-04,-9.788704887712359692e+00
6.752192174709999682e-03,-4.701734827898051278e-03,-9.786456216876958436e+00
2.695257105222489090e-03,1.572575330710912749e-03,-9.789235167680349292e+00
1.309466796734963696e-02,-1.702612774092720528e-03,-9.800510239039841309e+00
8.710276021516187572e-03,3.727154087502809136e-03,-9.793151531449064251e+00
1.206310847950189166e-03,3.017518137207977468e-03,-9.795235324173548364e+00
3.197992686731035514e-03,-4.079221677448712858e-04,-9.783159004907325595e+00
7.218443500651618855e-03,-3.779661565975919691e-04,-9.792370451877765447e+00
-3.436833172712082298e-03,-1.888172575852828557e-03,-9.790042058263734859e+00
6.331884239445407375e-03,7.762060607641230181e-03,-9.789272934653441283e+00
-6.718852891124957663e-03,-7.722422891003681913e-03,-9.788947989266272742e+00
6.481227493502985867e-03,9.650268616182887740e-04,-9.794188969243396770e+00
5.811389650990512502e-03,1.446900591693377224e-04,-9.791462840061472050e+00
-6.256145412895269039e-04,7.347051496693086242e-03,-9.804338290343929785e+00
4.089721295889187438e-03,-1.252942038648800467e-03,-9.802135642787060732e+00
-3.765081651937150515e-04,-3.310646684183455972e-03,-9.793672500941072556e+00
-6.892592282730840379e-04,1.157061379998248715e-04,-9.795018432695249189e+00
-8.759120171346432716e-05,-1.264913725185584214e-03,-9.798806657113111385e+00
3.779465109747909193e-03,-1.330164061209457640e-03,-9.794852631036480517e+00
7.383093335123139603e-03,2.273226229126325271e-03,-9.791722351820862258e+00
3.164489260315785785e-03,-9.674389847610063986e-04,-9.795883512308712682e+00
-4.285340316552545357e-04,3.490699935815746828e-04,-9.798948432301823885e+00
1.915560264229443192e-03,-5.482241666970446431e-03,-9.786709721230543835e+00
5.281098004816197483e-03,-2.559528785198153175e-04,-9.793289863040538279e+00
2.238729601494572423e-04,-1.146404004492359349e-03,-9.793592066382117878e+00
3.426982867400189727e-03,1.566112809589176227e-03,-9.790016981298197862e+00
-4.404917748894046116e-03,3.238958163428371645e-03,-9.788314069091644143e+00
2.837591172569250541e-03,-9.127279546630971685e-04,-9.793821689308289891e+00
5.439107420180368246e-03,6.107416429990239655e-03,-9.792737370004106268e+00
-2.035831057154065434e-03,-1.915477030219182690e-03,-9.792105707429058725e+00
2.337712759792372717e-03,1.308916297262013861e-03,-9.794963139261181340e+00
1.014066877599268529e-02,-2.924145914490588463e-04,-9.809612452355956691e+00
9.285821371997310218e-04,7.044174779134521926e-03,-9.789142545281404040e+00
8.021487928613903542e-03,2.113962298930664122e-03,-9.803371016918596581e+00
1.556386930253431024e-03,4.892495736383555005e-03,-9.791436813217138990e+00
-2.060266571391381092e-03,4.065366593912215359e-03,-9.791745096415755967e+00
-6.002012685533453934e-03,1.050800563393211162e-03,-9.799703182630459253e+00
2.780085781600862005e-03,1.600469636868902213e-03,-9.790077942672326117e+00
7.909729529721222507e-03,8.699390254455032986e-03,-9.787449212670663812e+00
-6.341740248845269918e-04,-3.858685301591950785e-03,-9.801171584521638280e+00
-3.190259106961702493e-03,-1.292845996187265423e-03,-9.801064594256670759e+00
7.351148209263013225e-03,-1.363212133706488347e-02,-9.803415530174120818e+00
-6.520041913361404595e-03,-5.907831115874510181e-03,-9.789718427684899638e+00
2.037587193774474757e-03,3.969683059030575459e-03,-9.794157413160766268e+00
-8.712373565650279039e-03,3.784814104850165069e-03,-9.798323142737219271e+00
5.511335569731438261e-03,-4.766902359380243174e-04,-9.791301237890557729e+00
7.666894027809512558e-04,1.488829208804819029e-03,-9.790335816772254063e+00
6.057516577659632570e-03,-7.375378622126451192e-03,-9.791476522429269025e+00
4.442309316944687480e-04,1.701711390689558895e-03,-9.790832516395902019e+00
1.420242238410411757e-02,2.372664850405428825e-03,-9.791798565168214452e+00
-1.389814527066574480e-03,-5.648157842638278602e-03,-9.785161899872694136e+00
-4.249973378703479805e-03,8.476316186540912290e-03,-9.791330071719162476e+00
6.859846074618250120e-03,2.605155933575669085e-03,-9.791154648190078191e+00
-5.183103000288726394e-04,9.174028969013950548e-04,-9.789362194560906616e+00
9.403183372755920602e-03,5.914644654080859938e-03,-9.794773347712450118e+00
9.592303987031368471e-05,8.549052583442793337e-04,-9.795611743468317201e+00
1.571154772927953799e-03,1.941409979180979198e-03,-9.801537857112323948e+00
-7.043064719942375602e-03,8.966961088792402539e-04,-9.791675048940790660e+00
8.198179430936461745e-04,1.242477989661901552e-03,-9.792095342099013777e+00
-9.685038698897173405e-04,5.216145969342281946e-03,-9.796970875936901635e+00
4.815487005791404922e-03,1.899373650179371053e-03,-9.794004369432428803e+00
4.900224523835471861e-04,-4.495228702970028092e-03,-9.783163841675566630e+00
2.840456039999427699e-03,4.363775962440149896e-04,-9.786911394478881476e+00
1.297480389453711195e-03,-2.410222422202093658e-03,-9.796245386594756965e+00
5.969020293626825339e-03,-9.946016590648859915e-03,-9.800237279491460285e+00
-2.019491214243579469e-03,-1.854670816291108812e-03,-9.787744816825730609e+00
3.269649898778242709e-03,-4.655670502581411158e-03,-9.794072540622988043e+00
-4.955005219587011074e-03,2.642064772272481816e-04,-9.799345690529454700e+00
-2.349677326957116431e-03,-5.701295530931635566e-04,-9.801115703403645796e+00
-6.401771738317115455e-03,-2.055454894934422971e-03,-9.795200927356020770e+00
3.254462887522956670e-03,5.437087023071054352e-04,-9.802682162035672775e+00
5.978469049330746229e-03,5.230955354054754071e-03,-9.790590781684766597e+00
-5.739695469724235589e-03,2.287250349549846970e-04,-9.798347769332634627e+00
5.545163971757647962e-03,1.200210926154743167e-02,-9.789745854160203820e+00
1.891380801105767024e-03,-1.772266794270881910e-03,-9.800913863921859814e+00
-2.531475316846979687e-03,-6.574514033503530731e-03,-9.797751673010045792e+00
2.099662963838011976e-03,5.494536035844966269e-03,-9.803222173981790633e+00
1.508428038542381552e-04,1.034544124655157465e-02,-9.788379924878608307e+00
-1.938828480950271441e-03,6.050411223593914548e-03,-9.806870736702240521e+00
-4.638661059115316461e-03,-9.421234577181379632e-03,-9.789996705039332170e+00
1.504794635080829775e-03,6.740006651199167281e-03,-9.790417783386184070e+00
9.126672224804961708e-03,-1.304388042529672567e-03,-9.788428666884030349e+00
2.954333683573101294e-03,-1.127639745560017268e-02,-9.792233041539667227e+00
-1.694251452546469833e-03,-1.488286624341146613e-04,-9.795328990403817215e+00
4.770784523014513778e-03,7.457780037621109578e-04,-9.796803413650987835e+00
-1.508358758447808038e-03,3.600140344240028347e-03,-9.802538789719701384e+00
-5.911510157103504713e-03,-4.566953717886550884e-03,-9.805657072023249654e+00
-4.725035021853420808e-03,1.043913240815468307e-03,-9.794729327471229041e+00
-1.135790080888478444e-03,4.653696960058129918e-03,-9.798287630012961102e+00
-6.477308283025826931e-03,4.334621105622878806e-03,-9.789574659956025826e+00
-4.751196862946755785e-04,-7.839226861807666383e-03,-9.796041222016816263e+00
4.540099393661383787e-04,-7.904707395053409006e-04,-9.790117323108985303e+00
3.573317740337127874e-03,1.585605686048466431e-03,-9.796881615772347729e+00
2.566531069897848294e-03,-4.998108158580772016e-03,-9.802823967276985684e+00
-4.091777993551502790e-03,1.291807672554249817e-02,-9.790591073017154145e+00
6.437281801503501148e-03,2.419740342127136602e-03,-9.798514784433606906e+00
-4.878844878703392403e-06,3.488840790960652874e-03,-9.794837213832801481e+00
-5.003898280825350500e-03,4.524862546403738274e-04,-9.789765287787764336e+00
6.456919972327033325e-03,1.205496972889909604e-02,-9.788865187509271593e+00
5.311776985903687506e-03,-3.944840669160644235e-03,-9.793558501583987663e+00
3.170387058095100116e-03,-4.715900542964733804e-04,-9.796691127347708417e+00
-6.216720858276373815e-03,-1.929579059533263578e-03,-9.792463922343662475e+00
-1.464409724122601574e-03,-3.521977931571394597e-03,-9.786360846129566582e+00
2.781859449904858402e-03,4.822147501717974718e-04,-9.795121312433046512e+00
-2.672127087545691886e-03,-2.822510538491944474e-03,-9.795217874765031141e+00
3.823825056963516683e-04,-2.321975893656289154e-03,-9.786172350218505400e+00
-9.560696652358889602e-03,-3.754311188334052973e-03,-9.795388882737960046e+00
-2.938811276655148817e-03,4.717704665672379605e-04,-9.797738815712673244e+00
3.149005492316791360e-03,-5.834354735469258341e-03,-9.803561394502894544e+00
-5.130305214508152929e-04,1.333884734705265401e-03,-9.789179152246383353e+00
-1.021467147056530703e-02,3.006880617125392424e-03,-9.794967748581999700e+00
-4.465272281577297234e-03,1.785187099073844760e-03,-9.797800533506242360e+00
-3.891359694453860353e-04,8.120955695133118615e-03,-9.792887769412624621e+00
-3.125948595256524982e-03,-5.089158157831448308e-03,-9.795933803374946791e+00
2.245045422593051464e-03,6.936956572857030240e-03,-9.783612522005817880e+00
1.441676013190583850e-03,-1.664587777763455560e-03,-9.790918820020419133e+00
6.488795140726402212e-03,2.513938601274199117e-03,-9.792479826121230246e+00
2.161508068268732383e-04,-3.085267208781364203e-03,-9.789300516712485134e+00
-1.587630167461450553e-03,4.527115676976468223e-04,-9.793210648816003783e+00
-7.619162056895782860e-04,7.978019232939542044e-03,-9.783571708767645703e+00
7.075796552334392281e-03,7.840259436530454609e-03,-9.787103781875613251e+00
4.125592855250906094e-04,-6.581614666622134617e-03,-9.793254631015958722e+00
3.041473684400644063e-03,4.219502540754137623e-03,-9.787292610683683947e+00
7.405807972402297934e-03,-1.786343551026556547e-03,-9.797061718902771332e+00
-5.435706091315057296e-03,5.998240553640888512e-03,-9.791730192360919460e+00
-5.007019885755593577e-03,5.255235845511888396e-03,-9.793861938868593242e+00
4.349194671433902204e-03,-4.313039767643910526e-03,-9.788441258866797057e+00
-2.019206458784645209e-03,7.412848505595749605e-04,-9.784928717765641437e+00
1.241975188841346620e-03,-1.312416290653240034e-03,-9.799623823128806421e+00
7.898957023260886126e-03,-9.780701806490501270e-04,-9.793957800082866427e+00
8.023707405031236129e-05,2.413271430696731570e-03,-9.799133018891568625e+00
2.798012277742160762e-03,-1.782016829688993706e-03,-9.789802048057499206e+00
-6.853275418908813489e-04,-4.885550177496575386e-03,-9.802932303509313883e+00
-5.494705480900937029e-03,4.361591105396249619e-03,-9.800092789017774919e+00
2.190679029579671675e-03,-5.252444488354349357e-03,-9.791735357832203945e+00
-3.130449088458481417e-04,1.467471254236253500e-03,-9.794398604778784545e+00
-4.389107796029068781e-03,-4.410360168388108466e-06,-9.802998194887827310e+00
8.475369801490580460e-03,4.110036041876569124e-03,-9.797132563438356812e+00
-2.012447968036447116e-04,3.914054328972954924e-03,-9.783612830902422175e+00
-1.305802479589327891e-03,-1.627839934705976313e-03,-9.793975321253828525e+00
1.217680327846864911e-02,-8.209137543260957735e-04,-9.793111122268078006e+00
-1.860311762411705509e-03,-4.386110238736379979e-03,-9.794390748605202646e+00
1.933498653524645498e-03,-2.780258623588964181e-03,-9.795460192875175665e+00
-4.053823742345488701e-03,-8.348486290385544184e-03,-9.794325592089231591e+00
4.847642511465440410e-03,-5.925608007588349831e-03,-9.796637647026246398e+00
9.229386787840545420e-03,-2.688245741592008853e-03,-9.795280343796131106e+00
3.790255766313502641e-04,1.858276034716981853e-04,-9.786455441198233629e+00
-2.668589966830252867e-03,2.044120123586352054e-03,-9.796629097870358294e+00
1.874398995964488609e-03,3.068452753635059899e-03,-9.784810571816542790e+00
4.326045311808755615e-03,7.145074136084647197e-04,-9.795274571223115956e+00
1.479213813226027806e-03,-4.519585566969127471e-03,-9.790110479731215065e+00
-1.002327113829174507e-03,1.127896894889212406e-03,-9.795921783460459054e+00
-1.939192218922363917e-03,-3.098474533904266651e-03,-9.794016971364618129e+00
1.192991090780953951e-03,-1.406207168545710188e-03,-9.798734686495121693e+00
-5.576623086323991528e-03,2.650304413243964358e-04,-9.797488748716142837e+00
-5.410903756488200100e-03,-9.745437632232371514e-03,-9.786708421632649646e+00
-4.155691670246527969e-03,-5.173245595456659818e-04,-9.794605701822906241e+00
-1.445144644134851997e-04,5.497291923403558114e-03,-9.794060703629861919e+00
4.072170183405366371e-03,2.252640161309073935e-03,-9.797111299288273401e+00
4.442220495627736965e-03,1.073146358899277134e-02,-9.793733721633104850e+00
-2.288802407412162320e-04,2.505723145861864752e-03,-9.786720775691970076e+00
1.033021991104924112e-02,3.523528198664512088e-03,-9.795460986623519162e+00
-1.380525384729935261e-03,1.001154092685918161e-03,-9.793076828516051435e+00
9.154977800618963393e-03,-5.538825368474109556e-03,-9.794499943883106852e+00
-5.651761607989030586e-03,-5.769609116149375036e-03,-9.791022358307003515e+00
3.377690152072907685e-03,-6.485761153711033095e-03,-9.792616826930171214e+00
-4.707886409465796007e-03,4.986223312000378355e-03,-9.797651617949520997e+00
-8.127479634145951199e-04,1.866216935387711592e-04,-9.788038142758926696e+00
2.634614312331091945e-03,2.194665326726886589e-03,-9.791995916616201612e+00
-1.626221416264126644e-03,-8.428184240712558199e-04,-9.798849334429677427e+00
1.078403544413345048e-03,1.012251661959196608e-02,-9.794106251601535362e+00
7.208689423156295489e-03,-6.602191021696907601e-03,-9.792379867912641700e+00
-3.944697642166913876e-03,-2.375528357050946549e-03,-9.799827263085976625e+00
4.012801085631132261e-03,-5.471073858123160980e-03,-9.796115329484964107e+00
4.890867567575344493e-03,-2.277096113012468462e-03,-9.792283483289613955e+00
3.405297715454141082e-03,2.834910026018724449e-03,-9.794361326881746876e+00
-5.764016814987062490e-05,-3.581266791456230465e-04,-9.789347588859724780e+00
8.529800991565439708e-03,-2.486103205933345821e-03,-9.800353910476527375e+00
1.178631857962807649e-03,2.776659876509154218e-03,-9.790515769824381209e+00
2.539165265591377361e-03,-7.349167544976701119e-03,-9.793861708512840991e+00
-4.799382208713698708e-03,-8.147955252603878047e-04,-9.800374122650238107e+00
-4.971442221553853784e-03,8.741822896444881655e-03,-9.793739572367782031e+00
9.395125330781232964e-03,-6.788556648034620167e-03,-9.800840060315803015e+00
6.384215004770188093e-03,-5.372767079394146069e-04,-9.795132302083793263e+00
-3.798318803769872454e-03,-2.905560504804124023e-03,-9.798138225558901127e+00
7.562813197717267732e-03,4.543799679402910942e-03,-9.788701645813567609e+00
4.090000648202370137e-03,4.302004583390479052e-03,-9.795217581000109419e+00
2.776651649656412205e-03,1.038204983093202584e-04,-9.799235794968831570e+00
4.479262756812007074e-05,6.352280205840010047e-03,-9.794496411332181296e+00
8.899901679212215977e-03,-1.289801128619185323e-03,-9.806974828251933118e+00
5.290189011044848892e-03,2.762499015710758073e-03,-9.791713828968163114e+00
4.862127635916074948e-03,5.669838016878945251e-03,-9.794641142721925320e+00
-4.902074303343460782e-03,-3.302013803763602894e-03,-9.793661436583255053e+00
-5.822674405062329937e-03,1.868359805417800371e-04,-9.795399148984687443e+00
-1.055351965438008997e-03,3.862655594980434707e-03,-9.789128163373380431e+00
1.382274849551554975e-02,2.313469731748295927e-03,-9.793461602190919990e+00
-9.022214877588143837e-04,-9.520542979261960043e-04,-9.802594051934056196e+00
3.078341738730720756e-03,-1.575395269901708022e-03,-9.802317847811394813e+00
2.596492990238947422e-03,4.242078395539691099e-03,-9.794069310368394454e+00
7.100228622243616103e-04,-2.153453043064613125e-03,-9.788330197632539864e+00
-4.031162983187356642e-03,7.244357673878825017e-03,-9.799023698951037531e+00
-3.856991104358512869e-03,-1.614237187892372805e-03,-9.785739869086679477e+00
-1.276575070181313817e-02,1.336953524984159977e-03,-9.801355704520190670e+00
5.010698559767341048e-03,-4.655008648434772432e-03,-9.799973608768311806e+00
-3.658375774058262100e-03,-3.799007771305105367e-03,-9.792397908873633483e+00
-3.419816665003450745e-03,-7.182310745547578444e-03,-9.799249352904492838e+00
-2.586035577564117609e-03,-6.645266676788855360e-03,-9.792093688369039484e+00
-2.907484617622638906e-03,-9.744129623248928840e-03,-9.785149091946060196e+00
4.713828130174423309e-04,-2.416173711287248043e-03,-9.802905513071738852e+00
2.256114410102894388e-03,-1.460826900715563471e-03,-9.798850827479103742e+00
-3.331099322585761181e-03,-1.013251196834765583e-02,-9.793142094664744945e+00
-7.307161969774196228e-03,-4.229904631720608592e-03,-9.804647590712461280e+00
-5.004718537785450734e-03,1.092187367383614304e-03,-9.797413714308069288e+00
-5.374071551222896551e-03,7.490697250447896083e-03,-9.799761999635636656e+00
8.738719787108273568e-04,6.726383646363833825e-03,-9.793772686524508941e+00
2.896349097798278909e-03,-3.498917433783225745e-03,-9.787694557302225817e+00
-3.842005400718244076e-03,4.292634491869606710e-03,-9.800905757546173547e+00
-5.183580482642792184e-03,4.442904729670519876e-05,-9.792599921344017133e+00
3.772700971434129243e-03,-3.164682873939758927e-04,-9.797261187237207736e+00
-3.536638220856854874e-03,2.405735071343268524e-03,-9.794459553552290032e+00
-8.872783186826674329e-03,2.610815083968053268e-03,-9.800989137647228233e+00
-4.645212240072844542e-03,4.486921199112192497e-03,-9.786935115726636880e+00
-3.398384401994794177e-03,6.522084241821074491e-03,-9.793458231409733372e+00
-1.111204038152681286e-03,-4.349172249803562491e-03,-9.801828078806430256e+00
6.387914174624979152e-03,-5.373309178880824807e-03,-9.789360457331166998e+00
-9.590000119901739362e-04,5.577628374169646061e-03,-9.795962515226307232e+00
1.943634768987271937e-03,3.120494498153364611e-03,-9.799716147477868233e+00
2.839357126752729225e-03,3.010867918799181239e-03,-9.794137973351508819e+00
-3.798977463283507083e-04,7.054892979778614685e-04,-9.797952959410540785e+00
5.033173522485479522e-03,8.859836838790175612e-03,-9.795622239339413895e+00
1.319991433936145223e-03,-1.181050994243406900e-04,-9.787807957177731666e+00
3.835660139501604129e-03,-7.282579360179815622e-03,-9.796001958638077767e+00
4.587969537214416950e-03,4.902435774804094273e-03,-9.792192855082451075e+00
-4.588664703254847696e-03,-3.440618611517528777e-03,-9.796058448272592756e+00
4.731212601204409438e-03,3.878539902154867595e-03,-9.783763965004164120e+00
9.667282314140513214e-03,-1.306947339728417937e-02,-9.787195276664901300e+00
-5.470352765997789010e-03,5.024989825586043644e-03,-9.791350216626515390e+00
2.521773595871352851e-03,4.134506183735254907e-03,-9.789028849208204264e+00
-4.079559087733027403e-03,3.204122600804288918e-03,-9.791498933264493942e+00
5.167130451686964554e-03,-1.057557179555816164e-03,-9.782113886122562718e+00
2.476266577036060398e-03,7.240852876023121110e-03,-9.801523927921296675e+00
-1.835591125916699075e-03,-5.984985553098559966e-03,-9.789477264111093646e+00
1.065849509216017232e-03,5.489923353637405669e-03,-9.803024161714748885e+00
-7.710401838924213274e-04,-8.505347961486794603e-03,-9.798375572262809641e+00
-1.394210456790048822e-03,-7.489357384665438697e-03,-9.794699869365652845e+00
-3.440397528610357296e-03,-2.917951874121606269e-04,-9.795093369734091837e+00
8.512371213890887120e-03,-4.206178782147291031e-03,-9.799922564962097127e+00
2.756734564215426384e-05,7.598957990337016320e-03,-9.795407826741541868e+00
-3.949448310694155667e-03,-6.128896490970000329e-04,-9.796829623716345026e+00
-1.527463839850915113e-03,1.190012684595933602e-02,-9.793236993642411292e+00
1.191899749538682810e-03,-9.594669774133570295e-05,-9.789119005223772874e+00
3.490901663046184177e-03,5.376997951180043263e-03,-9.803106443951600468e+00
-2.067732876297751887e-03,4.455069292266740410e-04,-9.787739347361608111e+00
1.832314099584333653e-04,-2.434347002518886041e-03,-9.792227281365237346e+00
1.297896070624755382e-03,2.832719037978487578e-03,-9.801659445310827223e+00
1.388360906475619768e-04,4.834700227563869593e-03,-9.791709771785138017e+00
-5.858548335866803868e-04,3.496059067402581058e-03,-9.788638728143547851e+00
4.875980873841292973e-03,2.201060981452840348e-03,-9.794880401822300797e+00
-2.132000907142143301e-03,-4.971527614352395236e-03,-9.790899302442392482e+00
9.522297031503351239e-04,7.045389184687408587e-03,-9.796183717266337965e+00
2.185813144306083134e-03,3.486830905682783768e-03,-9.791383405844229060e+00
-9.682222808793290031e-03,-3.135637877757448469e-03,-9.792340617884729426e+00
-2.807409857791278839e-03,-1.401797799173045041e-02,-9.797788934621564749e+00
-1.417043843449878942e-04,-3.430920635436924063e-03,-9.791798863731385083e+00
-1.909314578098769439e-03,9.895097770610736948e-03,-9.795834957286123412e+00
-1.365340120032915855e-02,1.941252817333312657e-03,-9.795194052510565186e+00
9.257877195255205093e-04,4.016314321798189653e-03,-9.796980816546104975e+00
1.081872641116743677e-03,-1.969193089020353313e-03,-9.798690563061494885e+00
9.112613702526658685e-03,2.917403460898681904e-03,-9.798103454826030401e+00
-1.049695319053236750e-02,-1.910503281253397119e-03,-9.795663445196932884e+00
-3.836355938350289891e-03,-1.573503697578239931e-03,-9.796277036545635752e+00
-9.600669532071805928e-04,-3.689486464675595379e-03,-9.794227499695230321e+00
-7.583275241249924116e-03,-3.438328614080766749e-03,-9.786148614106380705e+00
1.313291234353115497e-02,1.101152784407899259e-02,-9.789092388455747695e+00
1.010770876186463038e-02,5.436589682083608696e-03,-9.798100630658927557e+00
1.627680735192441920e-03,7.911832066029012272e-04,-9.782951122442282710e+00
4.609577094956180190e-03,-3.894080737001067230e-03,-9.796172715078759197e+00
7.148567601059749484e-03,-6.499513287889530089e-03,-9.794073759896811282e+00
-3.520911699055836921e-03,-5.530074918280666191e-03,-9.798741067516216319e+00
-7.209853225005365476e-03,6.086833961242953117e-03,-9.799969033832057974e+00
1.262573908684486330e-02,4.616846242726816915e-04,-9.793764771346333831e+00
4.783366438617918728e-03,-2.541240918392962973e-03,-9.789650100867666183e+00
-2.278920874323325796e-03,-3.075213108877322341e-03,-9.796710872858795938e+00
2.506481273295807933e-03,1.161117033280598468e-03,-9.796429513350256357e+00
-4.390342700877122167e-03,2.281461202748078345e-04,-9.793960168031919267e+00
-6.488644862746258124e-03,1.778672361498652866e-03,-9.795699117723975391e+00
1.721815459927604486e-03,-6.810059890130969185e-03,-9.790596846167137102e+00
9.479014329245138981e-03,-3.200485505058812789e-03,-9.797004768999867608e+00
2.261491488095381842e-03,-8.646001245350785208e-06,-9.793171036330818424e+00
1.633352335743818839e-03,-6.744683058381006208e-04,-9.791578436119550588e+00
7.804419920733969042e-03,-1.016660148797151643e-02,-9.790884818770782871e+00
-6.421635871999700068e-03,-2.252094896745221973e-03,-9.798354375852193598e+00
-3.988677081350537569e-04,-5.428125807801619657e-03,-9.798973449018262727e+00
-3.519810025522207130e-04,4.469617733644155357e-03,-9.791565865691474357e+00
-6.781553837972915293e-04,1.354203923624190502e-02,-9.789818999582154291e+00
1.224150284999780524e-03,-6.507329533993291490e-03,-9.789582590410395468e+00
1.871169699204289737e-03,-3.385256770491641958e-03,-9.794258545341945066e+00
-1.442184797962152302e-04,1.272370119032896919e-03,-9.785331486894797592e+00
2.967843537436524494e-03,-7.153833996953255260e-03,-9.798102248079036514e+00
1.095058583706699827e-03,-4.144574280045000255e-04,-9.787078863127119277e+00
5.984498346029664545e-03,9.549905413277843397e-03,-9.797051522447739913e+00
7.710966645717767971e-03,4.076616377101106338e-03,-9.795888173645540320e+00
4.458978114165040862e-03,5.291769006115628823e-03,-9.794483976093667721e+00
-4.219471745876845776e-04,1.025096603863092162e-02,-9.794573600514688394e+00
-7.981031825154990102e-04,-1.106973530598961281e-03,-9.788947427088434239e+00
2.709112882206796830e-03,1.706105300021315812e-03,-9.794041339318290795e+00
6.473622029323481200e-03,9.234157228158791121e-04,-9.793781925889591733e+00
-3.533352271705510108e-03,-4.921064325646090989e-03,-9.792664339998520262e+00
6.629691001579898595e-03,-3.831849580493974089e-03,-9.796425042711677023e+00
5.771282127523082346e-03,9.586834782597199525e-03,-9.801448607951394720e+00
-2.619633583629005918e-03,5.847560806132135781e-03,-9.794390437242288527e+00
-1.291588949305139903e-03,2.115938178451821938e-04,-9.796951865262082393e+00
9.518213177985023615e-03,-1.837937977694920674e-03,-9.786809416681586882e+00
-3.155603441968875007e-03,-9.181193818402287599e-03,-9.792023109340515674e+00
3.893685933062433985e-04,5.727258819055383457e-04,-9.792320754330777532e+00
-7.023570123237732332e-03,4.414023945645051406e-03,-9.798064665420167074e+00
3.463360459943751885e-03,-1.743305920016622245e-03,-9.792712145402804325e+00
-6.309571724788222424e-03,2.744702590461443967e-03,-9.800664151593613482e+00
6.834170021785749075e-03,1.299351300558857338e-04,-9.795464532375925515e+00
-6.076420984004898308e-03,-3.764818745776177429e-03,-9.781800033611375511e+00
-9.946285858580346164e-04,-8.522950440891964921e-03,-9.793771696786672365e+00
-4.936349864202843434e-03,-2.873430951495772965e-03,-9.795016075113821330e+00
-4.496493170073112555e-03,4.654823904266235449e-03,-9.798858849870230259e+00
-7.376425278049194602e-03,-4.959264503068130242e-03,-9.794330002454962880e+00
1.509455393642984353e-03,9.612370644666920830e-03,-9.790235215302104166e+00
-5.916586875766766986e-03,-7.241638127126297231e-03,-9.792718379718429844e+00
2.524909155199759822e-03,1.337522733373186674e-03,-9.800540718244599603e+00
-3.203356833021542022e-03,-2.277827302530847225e-03,-9.801467395258246285e+00
3.048321570777385095e-03,5.646287319385477968e-03,-9.798768288694567730e+00
2.765829714535464681e-03,4.598999318574414127e-04,-9.802501981008834520e+00
7.994205690371670309e-03,-4.013863954547977446e-03,-9.794493435093494682e+00
2.545894213346583390e-03,1.424483709493220293e-03,-9.800482646434021561e+00
-4.147207482856490879e-03,-2.544047702211670557e-03,-9.804327045331017842e+00
-5.466755790133767667e-03,-5.464316773237005986e-03,-9.794735847712153998e+00
-1.870945014220618766e-03,-2.802946281005655113e-03,-9.790289916750467114e+00
-1.708897405565445830e-03,-8.220288686339007403e-04,-9.787353462349337008e+00
2.275041924447161832e-03,1.294344611063477819e-03,-9.794426682698928133e+00
3.017830955342478295e-03,-7.100361779625739313e-03,-9.786056708337106613e+00
6.475493711623116037e-03,-6.319057489519780066e-03,-9.797958938907289195e+00
1.388693270543820725e-03,1.258142316815004380e-02,-9.796122813678920238e+00
-6.244221701956638969e-03,1.309734812914665819e-03,-9.800684539941473261e+00
-8.580053891983687245e-03,-1.462876640734208679e-02,-9.795547151658064777e+00
8.111936269480906486e-04,6.294817684689785198e-03,-9.798297341726319942e+00
6.737281776357901923e-03,-6.324193854648447154e-03,-9.786264932761854496e+00
5.549392968242232481e-04,-7.294099002484439806e-03,-9.802404309652095193e+00
4.692966566080611877e-03,-6.924050618357066242e-03,-9.796245157947371496e+00
5.033593068494547976e-03,2.154572798443891296e-03,-9.790307836776866779e+00
-5.739785915304638358e-03,3.783373716719717027e-03,-9.796961022206534864e+00
-5.382398543542454145e-03,-4.018034920615236143e-03,-9.787045252720313115e+00
-2.140694200409085438e-03,-6.008406324559627427e-03,-9.799875264253056883e+00
1.553849341855169115e-03,5.250400498757856749e-03,-9.797908968351755732e+00
-3.585027417744769077e-03,-3.248378643405012978e-03,-9.794872143772302309e+00
1.048735199019485646e-03,2.852227577724469540e-03,-9.796158313747923785e+00
-3.013146463755530472e-03,3.763023309889960803e-03,-9.799542079260984195e+00
1.532659221014754693e-03,-4.013398482660641975e-03,-9.785609950772396815e+00
-2.386595739179278152e-03,3.308868622532538072e-03,-9.800425121523884897e+00
-5.125838380780661091e-03,-8.863035788339772379e-04,-9.791762502257256529e+00
-5.070145047989233107e-03,1.388439206067419024e-02,-9.794152455206560859e+00
-2.859993158771668466e-03,5.162584892456793806e-03,-9.789995139114035183e+00
-3.604488002487056010e-04,3.891180441346761814e-03,-9.802460419189722884e+00
-5.779292002424980465e-03,2.299118371044682127e-03,-9.790730728755013601e+00
1.941276015404221761e-04,-4.814791144234533945e-04,-9.797338755128505383e+00
-4.796551534675548220e-03,-6.274328961168154639e-03,-9.785655694453957665e+00
-9.975366097578831567e-03,3.252535207296043153e-03,-9.794842836685562659e+00
6.756781514533050613e-03,6.563613948063064078e-03,-9.797256986563818160e+00
4.809745614097323159e-03,-1.666338675569596856e-03,-9.795980778981034476e+00
2.116978585000990620e-03,-5.547719551723053096e-04,-9.794036683907409113e+00
2.578047130400268686e-03,9.616800451834384145e-03,-9.787470357298445833e+00
1.835354834929150102e-03,4.297165108818935125e-03,-9.797308111251362917e+00
-6.540457369956420054e-03,8.778176753177149502e-03,-9.788572024275072891e+00
5.024005854872167203e-04,-1.156700427476945597e-02,-9.785780084051914685e+00
-3.718642935107816135e-05,1.338530720570655329e-03,-9.798437968559607469e+00
1.539934090791352048e-03,2.421700741710622329e-03,-9.791437832894434479e+00
-4.256980929966986717e-03,2.191718481889594252e-03,-9.802039740866174355e+00
1.113822171988704951e-03,1.916140415260760336e-04,-9.798140975617503301e+00
-1.681811080934587227e-03,-1.285596602083375738e-03,-9.805772754845591521e+00
1.278289889846624065e-03,4.280927322703275903e-03,-9.799312081570439759e+00
-8.321283352877111711e-03,4.531831362996241626e-03,-9.794908454682211385e+00
5.891163713028633141e-03,1.649783397485973108e-03,-9.795202447262967738e+00
-2.669286526148749016e-03,5.025531634206439717e-03,-9.797114890654738062e+00
-2.751934214147440383e-03,-5.627812316972095321e-04,-9.792613804913743891e+00
-2.406105987955697682e-03,-3.834861052637478316e-03,-9.792753649793761284e+00
5.384444365423022953e-03,1.202712728212670381e-03,-9.786161928157110168e+00
8.772797980160677378e-05,-2.169703133869044578e-04,-9.789304015058862163e+00
2.248007999045756496e-03,4.388989848584880574e-03,-9.796726362177995640e+00
-6.543257360141958162e-03,-5.800047827514596792e-03,-9.789216486009838292e+00
7.780953148686872451e-04,-4.595075767139846119e-03,-9.792183191574965306e+00
-4.327691117737537431e-03,4.573099662002438719e-03,-9.790216658011408057e+00
-1.351141179858425696e-02,-1.059205577564620998e-02,-9.800294499979061769e+00
-1.600316595997255953e-03,5.466161055145434856e-03,-9.797848121652947384e+00
-5.489404619796949686e-03,-4.922798429904920621e-03,-9.797260878694750375e+00
3.887348610214115671e-05,-2.888486323510418112e-03,-9.804196844919770726e+00
-6.077305251556614808e-04,3.035840886284026357e-03,-9.793788005412677578e+00
2.979652083135109642e-03,1.489852658385016054e-03,-9.792166412465224568e+00
3.951216591648324316e-04,1.521711222791049091e-04,-9.804092636285384188e+00
7.855665961424015227e-04,4.161269995300635738e-03,-9.797917251284712137e+00
7.040531548290623887e-04,6.189331984784326307e-03,-9.798601673766857090e+00
-5.320884484990810216e-03,3.327574005857167859e-03,-9.786184371639757629e+00
1.588766209353200494e-03,5.530754008319120271e-03,-9.781501817156010858e+00
1.912006972100819928e-03,-1.808168319911737480e-03,-9.786963300939591548e+00
3.892564255755738469e-04,9.202687802106686603e-04,-9.791969614741066863e+00
4.954946722548931280e-03,6.928939496149889464e-04,-9.801286777099702974e+00
-3.762190969901144967e-03,-1.023035213145102353e-02,-9.796643960936435747e+00
-3.379101522316128522e-03,-6.931891920768950589e-03,-9.785428387301358555e+00
3.130303645340555812e-03,3.070956459697651592e-03,-9.789017937546297787e+00
-2.540229831569081140e-04,-2.849614253793327813e-03,-9.790430559756829965e+00
7.910804375374209593e-03,-7.196002238920832942e-04,-9.797418650096350490e+00
1.798091985603241525e-03,-1.863445450182694106e-04,-9.786693758494866557e+00
-2.708948757931175805e-03,7.575886085768595776e-03,-9.795118511256863059e+00
-3.429953469530824285e-03,-4.959675153755995110e-03,-9.799887930934005453e+00
-8.892601913713966012e-04,-2.134881091740464983e-03,-9.788164465892714716e+00
5.440356663664946274e-03,-5.585283346066069379e-04,-9.797096720596313091e+00
3.949383337611650870e-04,8.034468851265533229e-03,-9.794095192672694239e+00
-7.919860212714594991e-03,-6.978529182342412462e-04,-9.802272121146661021e+00
-1.150385391707380803e-03,-8.774102826501487679e-03,-9.792501511694185368e+00
-3.742422917084917144e-03,-2.244395068428190355e-03,-9.791580408997747398e+00
-2.393597351995751469e-03,-7.304410297273754987e-03,-9.792968156623262033e+00
-1.974086165199408303e-03,-3.710045023309068574e-03,-9.795142565632014353e+00
3.701128277343379742e-03,2.150094978823237704e-03,-9.787970030887592543e+00
2.339594912474443622e-03,1.632503580886307147e-03,-9.792488157572101670e+00
5.720160673370191379e-03,6.669987168490562265e-03,-9.800264414256741219e+00
-6.971994423037142230e-03,-1.736377904971006438e-03,-9.799156541738078374e+00
-2.536025799864322691e-04,-6.096928314638606558e-03,-9.789955993644579024e+00
-9.210865093019664825e-04,1.342216514595636527e-03,-9.798253368607689140e+00
-7.735078660167499925e-03,6.746365449865803290e-03,-9.800271269041488154e+00
5.971424664584140674e-03,4.734348272125599166e-03,-9.792728696005402966e+00
-2.317656063017561538e-02,4.833298936055652022e-03,-9.796413183374186318e+00
7.567992158539575513e-03,1.792075511242130622e-03,-9.796133353108450237e+00
1.015950412637981089e-02,1.393143903005116327e-03,-9.789208807703245085e+00
-1.535267621735178414e-03,-2.840761151676611616e-03,-9.793454339762870831e+00
-3.468662679771966108e-03,2.314957003962311030e-04,-9.791119117111858117e+00
9.302351368349098121e-03,-4.401828366760529056e-03,-9.793922919388954540e+00
-5.341379462355160066e-04,5.221149905975498197e-03,-9.787468943281655953e+00
5.186106018250983413e-03,-9.953836076407531971e-03,-9.795971505676460467e+00
4.571811077601260764e-03,6.554989087710801944e-03,-9.799270155306427199e+00
-1.874793486048768106e-03,-2.620115624232248908e-03,-9.792812970761234581e+00
-1.984959088566401724e-03,1.071686220441469845e-03,-9.792579390581842347e+00
-3.122011054968783922e-03,4.255336242961369093e-03,-9.796109551320116182e+00
-5.192679346262931046e-03,4.123085983573867609e-03,-9.791119117356915424e+00
2.766826192463099285e-03,-5.659170756960956415e-03,-9.796789886360958377e+00
6.094008016369396007e-03,9.877062651557385123e-03,-9.800173336241828181e+00
2.403897795510110368e-03,1.953132912157362448e-03,-9.793458463721506746e+00
6.889325475073278422e-03,-1.220557856324139788e-04,-9.796801902489377767e+00
-7.861765950313858581e-03,4.507354799546509604e-03,-9.793985241839369138e+00
2.546456331877858421e-03,-1.617257980213904168e-03,-9.792824958838227900e+00
5.207547820187094327e-03,8.768716755780414131e-04,-9.794673843596687135e+00
-2.913259180500440623e-03,2.054761009533250492e-03,-9.790397378815901774e+00
4.152801784386869061e-03,-3.235826573288868441e-04,-9.791439337355077654e+00
4.558995430348079369e-04,4.570110348791031271e-03,-9.792692057755333579e+00
7.824230390748229940e-04,4.837777707076648670e-03,-9.798557829593558921e+00
4.281257366382489570e-03,4.979621193667694776e-03,-9.795441884455351911e+00
-3.475419957082968858e-04,-5.042118048277686483e-03,-9.783698191513373388e+00
-5.553837810608904489e-03,3.707614114131487816e-03,-9.782397334869326500e+00
3.336353540855280936e-03,7.383447650000906845e-03,-9.793113402330170914e+00
-3.536633784661021452e-03,4.255876593164960309e-03,-9.792036423784500343e+00
8.689646436601593943e-03,3.882075409945843678e-04,-9.790587657593329496e+00
-2.092002535183196078e-04,2.825391137545433824e-03,-9.793838017401222729e+00
9.001610757774011892e-05,-5.999816616877596794e-04,-9.787935350671599366e+00
-2.517630215246719188e-03,1.447865017716042438e-02,-9.797269535472485913e+00
-1.526723842999376697e-03,2.313095469857418852e-03,-9.793058016523717768e+00
-6.699152510889245940e-04,-1.273526883696413873e-03,-9.798907893037055672e+00
1.399338079064006615e-03,-1.010008952984664359e-02,-9.793691534627443573e+00
1.234049243049355031e-03,-2.671238459158891722e-03,-9.786568579627520137e+00
5.494553508939724676e-03,8.800599369075734263e-04,-9.803148001415893376e+00
-1.692068988864975495e-03,3.052118316713731995e-03,-9.796850097482485253e+00
-9.803849915245499078e-03,-1.401939834074651626e-03,-9.800482476817590438e+00
-1.116385946379646124e-02,1.467655786748513734e-02,-9.791498340084348939e+00
-3.844037321136958840e-03,-6.110647470367183871e-03,-9.790511849811181833e+00
-6.025800791627157916e-05,9.583548865136293227e-03,-9.787622690285848748e+00
4.822091029162268658e-03,-3.302321332490361187e-03,-9.791258730523248133e+00
-3.021441916526872336e-03,7.478695699898740140e-03,-9.797832947575354723e+00
-2.866889359767570838e-03,2.020208799887786982e-03,-9.788169221835374856e+00
-9.800245977406411846e-04,4.685899501728992868e-03,-9.797670998270644915e+00
-3.737206675101970282e-03,1.611395135813523680e-03,-9.792761841731227435e+00
-3.819588243998747485e-03,7.138063954692691919e-04,-9.802814099761668842e+00
-4.463999912471032505e-03,-2.949969846449772455e-03,-9.795885007961230073e+00
-1.175289099580959515e-04,1.800351056588474523e-03,-9.789558206241510518e+00
-7.818893478010407669e-03,4.545820663349867986e-03,-9.796390731294559728e+00
-7.160004365993800565e-03,-1.012152525029999355e-02,-9.788145353534604354e+00
4.585399313366439987e-03,-3.450724887830074281e-04,-9.797615132571312557e+00
7.885201932004995418e-03,2.856849605088131357e-03,-9.795824565050383015e+00
3.546935927456549686e-05,1.768678795746949760e-03,-9.793533701582491702e+00
-4.418466955063865033e-04,4.245320875192852561e-03,-9.799533035490503252e+00
-1.156342421463715363e-03,-6.578284219380217332e-03,-9.790639155514220704e+00
6.155402827654439047e-04,3.612555315083512599e-03,-9.796673510298919751e+00
5.436754777135209722e-03,4.509052245739032794e-03,-9.792612680623436816e+00
1.195703271478938071e-03,4.492522440994409921e-05,-9.795318143149509993e+00
3.622917872864979318e-03,-4.695692582956087274e-04,-9.801211250747279280e+00
-3.245069025923330054e-03,2.514919317507970879e-03,-9.793444710109570295e+00
8.364473892808949040e-03,1.434631522502908402e-02,-9.801757630271673349e+00
2.211136287144965188e-03,-2.853617768958698064e-03,-9.789193996595722425e+00
3.001665473038826141e-03,-3.372045620092663579e-03,-9.793726089423275383e+00
-4.773688753974483648e-04,-3.952781524250163943e-03,-9.789170631000677858e+00
1.155791382887008428e-04,-7.776667164115765377e-03,-9.790514072588734962e+00
-3.438937606495831838e-03,2.213803334861429682e-03,-9.800414791944742632e+00
2.317681755494084214e-03,3.228989588349413277e-03,-9.788293555334492524e+00
-3.195410632408982911e-03,-3.051324103804479559e-03,-9.803707643643166492e+00
-1.269248418111403737e-03,-1.614321721075069821e-03,-9.792012152206666542e+00
5.238172041152761894e-03,-1.217753855111432248e-02,-9.791820646427817465e+00
-6.693204012224439683e-03,-2.582961836130432624e-03,-9.789707847570261023e+00
2.593814682353611824e-03,3.937142264485429463e-06,-9.792402336481512037e+00
-1.731272468382629836e-03,1.701319347010080683e-04,-9.793702575100144969e+00
-6.972155298056387576e-03,9.224903243431179303e-03,-9.801383400130013968e+00
-1.232420644811880669e-03,-4.869339149846177439e-03,-9.796758804029822798e+00
-4.523377690366068432e-03,-3.599681582460139556e-04,-9.791958067246127939e+00
-3.216919988462557840e-03,2.910622537254414430e-03,-9.783366471299178357e+00
5.879698688163460286e-03,6.918348187359691509e-03,-9.812221334437644771e+00
7.669548131845333253e-03,-4.413286022956287901e-04,-9.795161555828910238e+00
2.029913412566096680e-03,-8.895520891049739712e-03,-9.794241309321744637e+00
9.170189999993640442e-03,-1.295171066997392352e-03,-9.787899598824941094e+00
-7.428431893870876719e-03,-2.271517540901477929e-03,-9.792559754775673753e+00
-5.327117776138118321e-03,-7.036488637516178334e-04,-9.794459600356340445e+00
3.593763045184515887e-04,-6.807880918750574412e-03,-9.800562563273555128e+00
1.458534343093523689e-03,-2.033908027458254924e-03,-9.803875400293490472e+00
4.910670493764065017e-03,-1.017345307036328882e-02,-9.794790323054879622e+00
-3.620691756999678754e-03,-6.218683913056629242e-04,-9.791801876460002774e+00
6.405564714105142950e-03,-1.813534493770166574e-03,-9.790399780140287334e+00
7.731978584274819093e-03,2.939761944369291904e-03,-9.796118949723755520e+00
2.964919944969710876e-03,1.054069301294342093e-02,-9.798008892294559402e+00
3.944547069481068105e-03,2.786895244720622410e-03,-9.800877455046865805e+00
3.485360372526768395e-03,3.191315808760601582e-03,-9.793670255524375534e+00
-2.967198550097999155e-03,-9.139466634334750261e-03,-9.789784441141909710e+00
6.987263513059678577e-03,2.292253890990236624e-03,-9.799642113741743543e+00
1.367576140398135080e-03,5.750518587242853773e-03,-9.797196594967049421e+00
1.609015050892441076e-04,4.230178343267786828e-03,-9.788676358435075997e+00
-5.784809352389643639e-03,-5.501116910320432221e-03,-9.787546724693099165e+00
-6.355211123022133646e-03,5.747873461532528039e-03,-9.801885366887667317e+00
-5.363819367018895883e-03,3.748686222511359153e-04,-9.792743909190001261e+00
-2.740791562808026546e-03,-4.953137173710821586e-03,-9.795844747350534121e+00
-7.295828152104513742e-03,4.514185775134445439e-04,-9.788686721406270053e+00
-4.741931163048396410e-03,1.051689939113580052e-02,-9.791220004461038684e+00
-4.187087514017611388e-03,3.852746898669693124e-03,-9.792680265131551209e+00
4.813553157420351856e-03,3.604976030944972033e-03,-9.794375674975931645e+00
4.807022445910616578e-04,1.784980249179814182e-03,-9.802921134522740942e+00
3.987744430110361921e-03,5.939993855866930461e-03,-9.803281566085548349e+00
2.447272315931576375e-03,3.204668812662014865e-03,-9.789741142325190992e+00
-9.925062542426625004e-05,-5.398649502526681881e-03,-9.800124837315170367e+00
-3.639379994488680086e-03,4.206317013051811583e-03,-9.788341867493434378e+00
7.939152704639471439e-03,4.603064898662909306e-03,-9.797845778968232722e+00
-7.591032220715865884e-03,9.362753498727025090e-04,-9.798686157674666219e+00
7.654575836354066999e-03,3.992228993349975635e-03,-9.788251337823526299e+00
-7.789393448443358327e-03,2.452456015165993888e-03,-9.789952505800213700e+00
-6.039020169578971503e-03,1.332669754556250032e-03,-9.785125361567077462e+00
-1.865763367216308893e-03,2.993781744173865805e-03,-9.795078458610277039e+00
-3.305144854084493111e-03,-3.568687355123715231e-03,-9.783469147561516976e+00
-5.814639014315342233e-03,6.251208450628003947e-05,-9.801993627931613773e+00
5.737317361368348897e-03,-5.871215917524339432e-03,-9.803195231621367967e+00
-5.447530325974121734e-03,6.695791732174186280e-03,-9.800550856301526892e+00
-8.179805080748151283e-04,1.397179776673966806e-03,-9.799064853403800512e+00
-6.044175969731783310e-03,-3.152277387176076993e-03,-9.789995220504716045e+00
1.142594010612083726e-03,-2.725087570130718846e-03,-9.792050208909030218e+00
-1.205471071890160334e-03,8.713846014038410109e-03,-9.799383655613629784e+00
3.090403053660618297e-03,-4.462002425043226812e-03,-9.797754311247139469e+00
-5.014913109965833497e-03,8.073044479061852394e-03,-9.797548513435827999e+00
2.759621122845288925e-03,-2.715880812818548089e-03,-9.789604244849421377e+00
-5.493996365784288398e-03,-6.461523201835714207e-03,-9.788419345406275340e+00
6.972526889604799272e-03,8.567754856342812975e-03,-9.786245025672469566e+00
-4.629271499675721713e-03,3.282316688419432537e-03,-9.798844138475754306e+00
5.415207263982534623e-03,-4.865999717374881045e-03,-9.804729016854183854e+00
-5.498646861179080567e-03,4.283706410865655272e-04,-9.789541213291769850e+00
-3.342771606415773089e-03,1.197048744302262437e-03,-9.806199503143263385e+00
-2.409018938048931684e-03,-5.034963053605200078e-03,-9.786625027227030316e+00
-3.512607592397761110e-03,-1.712054278893709522e-03,-9.789426930109691227e+00
-8.915066658494954013e-03,3.739279422349082874e-04,-9.792026211212172981e+00
-6.631768849801425968e-03,5.104713757222063136e-03,-9.791084331605100388e+00
9.031919615208550134e-03,-5.994178275956994198e-04,-9.779542375265632970e+00
-3.456426226591007098e-03,1.904084337764149664e-03,-9.796360329369749209e+00
4.746633269617518518e-03,3.522904953356064978e-03,-9.793752164858524623e+00
4.728620514539517115e-03,9.460779757931213558e-04,-9.804381434956715324e+00
5.209968763321548048e-03,2.704698727656244892e-05,-9.791449894198212434e+00
5.255586973079467289e-03,-6.677695474711671866e-03,-9.796067962640705673e+00
4.600369558965401728e-03,-8.311714563191465246e-03,-9.789567982375027455e+00
-5.772561604423657230e-05,-3.142585460147430398e-03,-9.795087886460864368e+00
4.470927818556907560e-03,1.292881050075554358e-02,-9.793381909821308184e+00
3.511573941114647188e-03,-3.190964063824137942e-03,-9.798619963602563487e+00
-3.242436436599026913e-03,2.463667241848097218e-03,-9.784623417683516067e+00
-1.522870708198536443e-04,8.641486907114526161e-03,-9.797565516278362807e+00
1.243219078355201285e-04,-1.863722702085254465e-03,-9.793042267149937530e+00
-2.392931958672930154e-03,3.335863798720052880e-03,-9.802181886236105868e+00
1.014755528472881772e-03,-5.224282572919124699e-03,-9.798984430094733966e+00
2.215805330953661122e-03,-3.982921282606283371e-03,-9.792458087704165592e+00
-4.627249448707798944e-04,-8.422560806259988403e-03,-9.796562642435132418e+00
-3.881649882296700580e-04,3.501498743259681690e-03,-9.790071650176573215e+00
4.154721700420737143e-03,-5.675423156652834554e-03,-9.791611811572613178e+00
-6.632036583551388642e-03,3.028976418772943904e-03,-9.788515191042224117e+00
-4.114946247175871319e-03,7.985511050167612077e-03,-9.801619325416730533e+00
-1.102457921466741281e-03,4.793062650713666929e-04,-9.797499612456130436e+00
1.368792883229415919e-02,5.233576323932632654e-03,-9.795404892005885600e+00
2.223662276246280139e-03,-4.068892653376416290e-04,-9.794905044033935582e+00
4.227497023538718916e-03,2.558610733554711122e-03,-9.791527359969855127e+00
5.766894456240572071e-03,-1.182446771736283793e-03,-9.797311156048182923e+00
6.254646839428739183e-03,-2.136060552484724158e-03,-9.791009047450003777e+00
4.488878585645912807e-03,7.775129008120561062e-03,-9.799413959565132615e+00
4.179459372195776755e-03,7.443828683747978799e-04,-9.795395590991144985e+00
9.736627442593724993e-03,6.119576989739931340e-03,-9.794376857185602248e+00
5.097097217203883437e-03,-5.498890969879851980e-03,-9.796207668282002956e+00
-4.217700832170121449e-03,3.930407653984883086e-03,-9.801826418202907121e+00
4.648659370502478821e-03,3.370034710559903501e-03,-9.785759142915924969e+00
5.749163245973226873e-03,1.109171903750109413e-03,-9.791546041619319851e+00
-4.318768347217283310e-03,9.103635218320803388e-04,-9.786486209404060332e+00
2.986556067464425993e-03,-6.012313931471835460e-03,-9.803537611916489425e+00
-9.075225299553789024e-03,3.983127189514849495e-03,-9.790039564042254838e+00
-5.498314998337199173e-03,1.155939906590934887e-02,-9.796765655454150235e+00
-1.764653510955391854e-03,-2.217027021796260863e-03,-9.787333503024523651e+00
-1.011740894756116282e-02,4.312040992558402279e-03,-9.795074182797625539e+00
8.105787458605266324e-03,-4.018940074501022898e-03,-9.798288913965356173e+00
1.655262078034914911e-03,2.281866909656456947e-03,-9.797544643614521931e+00
-2.603805205745975864e-04,-6.177974333873180110e-05,-9.802567579967570666e+00
1.263257206544576849e-03,7.859647774663316988e-03,-9.784652841577514693e+00
5.376495108997426768e-03,1.097767668869835053e-02,-9.798001650026424869e+00
6.267376639887129244e-03,-4.012688679255283462e-03,-9.791220813919199628e+00
8.174644592602853949e-03,-7.163059074971955993e-03,-9.795170466422181477e+00
7.080525843946173202e-03,1.232866376968546869e-03,-9.799093381843308137e+00
2.000120558762456639e-03,9.738491291432404195e-04,-9.791572356086367890e+00
8.066405058964761475e-04,-9.822158186220241588e-03,-9.798629414913104796e+00
-5.515156771765523241e-03,6.165543008667367497e-04,-9.793396151247026893e+00
3.231630984998594067e-03,-1.560836089308159300e-04,-9.789198047219661802e+00
-2.347051282360912167e-03,7.560086311984548155e-03,-9.790905339893415160e+00
-2.804523148875538371e-03,3.637879736693593394e-03,-9.799145579823342445e+00
-3.943554428526143546e-03,4.537738206788609167e-03,-9.784331816667174664e+00
2.535991151552949036e-03,3.277348746784038060e-03,-9.792235186043853901e+00
-5.752934353337782122e-03,-8.768172080902325929e-03,-9.800127865971189678e+00
5.267436564187217684e-04,1.393057674764232399e-03,-9.797876770113022715e+00
-1.118474355800568639e-03,9.715998287788676566e-04,-9.794790234331705037e+00
6.874520407424433016e-03,2.690203418346470265e-03,-9.788596330411817092e+00
-6.267887103100829721e-04,-4.278079978126067291e-04,-9.792607288203630134e+00
1.142998464939979503e-02,1.855559452521819176e-03,-9.805947170647019817e+00
1.303144479107056115e-03,2.262273856601661540e-03,-9.796476447428766221e+00
7.468270016985602971e-03,1.898355142865777809e-03,-9.800067578508906863e+00
-3.253023145586100319e-05,1.428175422152958354e-02,-9.794382346218130309e+00
-1.220670369062004353e-03,-3.270559907790870392e-03,-9.781095564253556418e+00
-5.180379073817004305e-03,2.063912822424851957e-03,-9.797548292765132061e+00
2.836925493702289677e-03,-2.400872052463244328e-03,-9.799240387328577384e+00
-8.808117416995537782e-04,9.619062676775144011e-03,-9.801457587895798795e+00
3.956702134282827354e-03,-8.524369189525387094e-03,-9.788619963111642619e+00
-5.417280958564925364e-03,1.363721945450663102e-03,-9.795586857061678643e+00
2.736948420731159445e-03,3.235965410510042344e-04,-9.796938723483874512e+00
-6.684116925348341717e-03,-3.408441824134034355e-03,-9.794252728980080036e+00
-6.352136517610266694e-03,2.495776838504422043e-03,-9.797808489128183140e+00
-5.299049877655215984e-03,-1.397944384309995859e-03,-9.805703763844560328e+00
3.594841000028021951e-03,1.017161524365223918e-03,-9.788690514492024874e+00
-1.755524605647541293e-03,3.228275066169636245e-03,-9.790064947373286586e+00
4.170206398789801615e-03,8.878423089783673422e-03,-9.790600477304954197e+00
-5.367121947303734458e-03,4.400106778557862260e-03,-9.809208132065597496e+00
-1.756638237813782592e-03,6.078485157136503253e-03,-9.785502131360191314e+00
4.664785847026711209e-03,-5.424149237957090301e-03,-9.804707934231435829e+00
-5.321073882823807062e-03,-2.142307806889372571e-03,-9.790375565207400044e+00
-4.707476082250480233e-03,-3.781011187440133647e-03,-9.795106507833954979e+00
-1.431682989057128826e-03,-4.802342887471096854e-03,-9.799150846411874838e+00
-2.421935645177794062e-03,1.786508206311313322e-03,-9.787785815394217437e+00
3.528520391892620185e-03,-2.957951040439875737e-03,-9.795906744917942888e+00
-5.584868302048281996e-03,8.682778331092337945e-03,-9.791350421879293719e+00
-6.290937692220125756e-03,-6.221304116767635041e-03,-9.792185336963154185e+00
1.122592701759231662e-02,-6.682842303897663580e-03,-9.790076382151886136e+00
-3.191776116008926325e-03,6.146331106756443632e-03,-9.800465139188696995e+00
-1.671095793959899607e-03,5.777005946419001749e-04,-9.800018591359012987e+00
-6.815384775872148498e-03,-9.815554111609180871e-03,-9.794740441840694700e+00
-2.274100446430962329e-03,-4.301208272912405289e-03,-9.795478371119855865e+00
4.300195323214261491e-03,1.567674802292085218e-03,-9.789222693753897531e+00
-1.300174107769368897e-02,4.990229313479563160e-03,-9.791621839326149157e+00
8.432618118485994685e-03,-5.302477859550541739e-03,-9.805135698419174872e+00
-9.641352275747114980e-03,-1.466756536347840539e-03,-9.792223687968082402e+00
7.181532261374994584e-03,-1.486655625012621223e-03,-9.785823935834075726e+00
-1.594840740625261353e-03,-2.298886763933358397e-03,-9.781534189956753167e+00
-5.491476266874824666e-03,-5.101009378155577263e-03,-9.791603693451808255e+00
2.598827007634802247e-03,-2.832180299430752009e-03,-9.797206109406760177e+00
5.050539805862870732e-05,2.281509925440452276e-03,-9.795902520512299816e+00
1.261896191415724441e-02,3.324111394670342234e-03,-9.789969832809694239e+00
-2.605393333710473002e-03,-3.148297941028051477e-03,-9.797207802993041170e+00
6.889919093524057847e-03,-1.144398420359620623e-03,-9.782616920433628849e+00
-6.507976903517515531e-03,7.923749258685051575e-03,-9.794705445917088582e+00
-3.079924177186766070e-03,3.000855682144748428e-03,-9.793360573073686126e+00
-3.057438533581613785e-03,-2.642468937641874547e-03,-9.778847383849097241e+00
-3.527106280781186400e-03,-8.851631395528054098e-04,-9.787499826613615284e+00
-8.740218350821038354e-04,4.124871587236536748e-03,-9.792722414696942934e+00
4.850499109010247313e-03,-7.923236116411930610e-03,-9.796177343228620771e+00
-6.913150412586350352e-03,7.801933405151465807e-03,-9.792221865182023421e+00
4.833964188669260392e-03,-3.023586408072470762e-03,-9.793768510035398833e+00
-4.060298873678360072e-03,-5.246410972525102513e-05,-9.801588279428475659e+00
1.802675969134693180e-03,3.123854716353296687e-03,-9.797700552562741194e+00
-5.716870812279371133e-03,6.323528727167758434e-03,-9.794265883001836315e+00
2.938062569180185588e-03,1.140737053313144438e-03,-9.789329209214447047e+00
-1.767244370110732056e-03,1.105853226895692556e-02,-9.791669592345677131e+00
-3.177829356356545037e-03,4.915202226685432170e-03,-9.791000095685005178e+00
-5.184822762013923704e-03,1.132242900827646736e-03,-9.793474290996003973e+00
-1.842385993184106124e-03,-2.962362597981834690e-03,-9.799040563932409853e+00
1.141425498411692378e-02,3.789047711730078767e-03,-9.787991491839280300e+00
5.663916827032908913e-04,2.644888346846808840e-03,-9.796431175001050207e+00
9.404857254113290280e-03,-1.082507981634513346e-02,-9.787012489499213430e+00
-5.534355644795650384e-03,3.159162638834747336e-03,-9.784124717322994158e+00
-1.628224823696393158e-04,2.007635351410802169e-03,-9.796396835369945322e+00
-7.058561577925290828e-04,7.055432345924431831e-03,-9.794033940884041556e+00
-4.151611057429593563e-03,-4.896050945150281272e-05,-9.789978185091582574e+00
7.591810190889385079e-03,-2.185174889607524595e-03,-9.790351727612423005e+00
1.102302755788159977e-02,2.666355734669632015e-03,-9.801461720174543757e+00
7.253179089832850800e-04,1.543397543477301528e-03,-9.795367610359763333e+00
-9.107070763283087872e-03,-5.322747997831346264e-03,-9.800034482649017775e+00
-5.930727996446416052e-03,2.387803123103404181e-03,-9.790875215040069079e+00
5.938558003079716201e-03,-3.921154409173017996e-03,-9.795021928089910901e+00
-3.534444888512937137e-03,8.716962105982202155e-03,-9.802368168934789239e+00
5.396451917669018924e-03,5.058074478215227911e-03,-9.787483999452835093e+00
-1.684118994810489267e-03,-1.906309227395062977e-03,-9.785521752363056436e+00
7.107633503861203982e-04,5.629422223055068585e-03,-9.797280069451115736e+00
-4.644558972871897645e-03,5.778279930824772176e-03,-9.792482105068060605e+00
-6.558176683394024292e-03,7.064823042150733881e-03,-9.793116682397950967e+00
-1.033273619235899670e-03,-5.195601149469285685e-04,-9.793019162960842294e+00
-5.241293718841388491e-03,-5.957815981717168481e-03,-9.796091300489742082e+00
5.874661435549287380e-03,5.637561572285443127e-03,-9.798196034068675786e+00
-1.269159843872829426e-03,6.568318576682336506e-03,-9.798617469216837961e+00
2.503512308127670677e-04,-6.043757639304356060e-04,-9.781212758967743781e+00
-3.921889007881653247e-04,1.813908839667491713e-03,-9.794866917663206607e+00
-2.562305994409229837e-03,2.709486806736838890e-04,-9.803077296641165006e+00
3.859718140423628284e-03,9.111158834821985256e-04,-9.790122039822973576e+00
-2.608800525366721575e-03,-7.060509301190375994e-03,-9.796328422490471866e+00
-2.069836500219801589e-03,1.016849553404926276e-03,-9.797162997288339170e+00
-1.088743431247513049e-03,1.492644721074519454e-02,-9.801505506508297216e+00
-1.840874731920663556e-04,-4.022160832042162484e-04,-9.790198472023465825e+00
2.062324018046863411e-03,-1.480237286822762288e-03,-9.792529430544814062e+00
2.490940297530015897e-03,-7.167748225108441264e-03,-9.786671797113404736e+00
1.205917043783888117e-04,7.799289817250328223e-03,-9.795197334178563864e+00
-1.871079632804521775e-03,-2.412497526425996536e-03,-9.795475788710886533e+00
-8.596387492735554437e-04,6.164712937325842086e-04,-9.792484522563940530e+00
5.310906760097275706e-03,-4.322611268583599446e-03,-9.799825656274654406e+00
-3.193882088280825676e-03,2.839682117361087919e-03,-9.788702621803039960e+00
-5.681114481268066327e-03,2.076301571515479488e-03,-9.800183806014050703e+00
-1.227057861874340057e-03,1.484538572076178403e-03,-9.795497626092924293e+00
4.317953479871750218e-03,-6.719010696578143777e-04,-9.792047132508743701e+00
-2.829060486072267934e-03,-6.068388723828052264e-03,-9.787336206060695432e+00
2.612877756402562542e-03,3.527700073066918768e-03,-9.797258936986549926e+00
7.406724174499796504e-03,-1.508185710757128060e-04,-9.789984255328850082e+00
4.751921332483332629e-03,-3.463982249354915187e-03,-9.792032237552582785e+00
5.450625746320636109e-03,1.019719571199448945e-03,-9.790610015087596096e+00
4.377073064381083352e-03,-7.962198183017197076e-03,-9.798405954950940355e+00
1.512797317399384306e-02,-3.377750472848966038e-04,-9.791023234082352644e+00
2.020886791380699203e-03,4.589051668483870063e-03,-9.800298887241622126e+00
-1.314229639352555799e-03,-2.875623278064226487e-03,-9.797469289756332245e+00
5.576032853212238355e-04,-3.700524385330278710e-05,-9.798356128157486467e+00
5.408118465601120112e-03,-4.211720826650716155e-03,-9.795114099205788349e+00
-3.649315887595115226e-03,-4.167852050715992705e-03,-9.790179750240294965e+00
1.864830780084088301e-03,-4.677131505609393933e-03,-9.795147440318714871e+00
-1.510104595057162576e-03,1.471315712644027072e-02,-9.791197899049066677e+00
6.348060439951903238e-04,-4.171428794832602108e-03,-9.795106844161546533e+00
2.228471043097383399e-03,7.879347116799693268e-03,-9.793188207094665643e+00
2.203362382645226211e-03,4.838136567309966191e-03,-9.800268001404710105e+00
5.297483784491156464e-03,3.482077360038101851e-03,-9.802585654887602473e+00
1.618723056513141252e-05,6.874007959837646550e-03,-9.794902605534653972e+00
