gyro_x (deg/s),gyro_y (deg/s),gyro_z (deg/s)
5.243164602906499328e-01,4.782915047017263777e-01,4.942971743239459315e-01
5.505323034879956445e-01,5.629685903964332105e-01,4.574121033540647918e-01
5.677007540157946730e-01,5.571664965099951683e-01,4.925456319425202123e-01
4.874600182279553162e-01,5.140378526576658835e-01,5.442851453981790710e-01
5.170094911357351330e-01,5.359340470288451730e-01,4.867873742680552396e-01
5.002406276076911684e-01,6.089310136703158793e-01,4.786084632606564249e-01
5.166311660315774379e-01,5.956744251449046512e-01,4.378988728939862685e-01
4.510297404390432585e-01,4.852198167739747436e-01,4.518615838577764721e-01
4.703049998571402490e-01,4.768485676272630758e-01,4.338938167101531462e-01
6.218513282811272136e-01,4.575725280181431875e-01,5.371189441574968360e-01
5.154715489378440818e-01,4.039715559851229654e-01,4.787437732583548211e-01
5.068131318938331464e-01,5.291795691726459694e-01,5.099120001213459652e-01
5.233302798963200830e-01,4.952401295164771677e-01,4.975303567065790800e-01
4.349977672594729228e-01,4.920346945932346783e-01,4.608576014051603553e-01
5.586579789639902760e-01,4.175312476667584760e-01,5.188313539484245007e-01
5.065809589548222469e-01,4.505883285680739592e-01,5.272761911617108721e-01
4.896420219151271236e-01,4.807657056328946688e-01,5.545041277424347381e-01
5.114934167157826339e-01,4.559584387603676237e-01,5.190745947551655970e-01
4.279779711567133771e-01,5.230215355250142917e-01,4.406939284204238194e-01
4.188947234235844697e-01,5.316850377827169183e-01,6.236558482101969281e-01
5.575835544146309219e-01,4.897640582204089710e-01,5.016826283252443508e-01
5.174565508146922177e-01,4.966318003960459859e-01,4.551086388995279064e-01
4.503012630519468984e-01,5.138215167568186414e-01,4.532957360737203123e-01
5.323440316128302818e-01,5.116041746132197199e-01,4.721166955129290077e-01
5.108286533104211546e-01,4.545569761812367493e-01,4.616468835198724863e-01
5.280469331161524726e-01,4.361062546800461015e-01,5.186841451367031341e-01
4.703816648950611690e-01,4.778054819247916085e-01,4.677044605780517061e-01
5.294169162317323707e-01,4.637339586996527263e-01,5.688426386918948863e-01
4.802783526770484368e-01,5.586815449585476046e-01,4.875654988450701111e-01
4.825027189331924093e-01,5.187461180236786484e-01,5.377802400748312728e-01
4.520889691970905178e-01,5.024371914321876798e-01,4.299536856394528539e-01
5.281326301610800300e-01,5.534418533333235191e-01,4.974194196160572901e-01
4.700160084769736124e-01,4.266645679824531134e-01,4.496291505411668110e-01
4.361400717376220371e-01,5.032455371181314696e-01,4.908697758425145108e-01
5.031280419140725657e-01,5.746461038121576381e-01,5.660366457094552217e-01
5.184430718257970749e-01,4.810965985460808336e-01,4.898291542242995678e-01
5.115862682213897505e-01,5.014188146304368043e-01,5.261020917061471902e-01
5.505560499786205098e-01,4.966104681618471184e-01,5.000347234183620815e-01
5.332982281437504968e-01,5.118800439835012872e-01,5.048326200986608114e-01
4.457592627851442724e-01,5.157761374660680964e-01,5.149471374243943522e-01
4.698936984019593255e-01,5.776860437579045549e-01,5.013583891564531436e-01
5.293033718693440637e-01,5.015363029946842133e-01,5.044975810793880244e-01
5.063413311236231173e-01,5.021556315677284665e-01,4.948279164215291792e-01
5.020193815098260570e-01,5.027722439530974974e-01,5.661870893685561068e-01
4.858247669645148759e-01,5.071570746124015594e-01,5.326307500579653409e-01
6.122729605889212223e-01,5.608829056686277514e-01,4.789558400129644844e-01
4.925852477648482997e-01,5.537497248794274185e-01,4.831008357435771505e-01
5.605672387939325541e-01,5.522341523589030521e-01,5.048183538624899658e-01
5.084142149174081249e-01,4.775245176373061895e-01,4.458317953986389859e-01
4.481611314129833601e-01,5.031060982588347885e-01,5.026392882433660114e-01
4.383322836253753518e-01,5.695205389878039703e-01,4.995072690910775659e-01
4.961386938913270317e-01,4.272402786206402903e-01,5.586002634989728488e-01
5.380584949841117348e-01,4.336681090757649182e-01,5.899257528580768017e-01
4.609429577276005219e-01,5.132641257714015692e-01,5.511339251073059664e-01
5.137779222327553130e-01,4.886115023655187017e-01,5.411030306102411203e-01
4.844712642302206884e-01,4.662638860975447108e-01,5.271687601616540375e-01
5.826518938150592186e-01,4.223559079490194490e-01,5.259885685326372018e-01
4.820916720205586925e-01,5.597217664875083765e-01,4.675029800253074352e-01
4.455991181212829444e-01,4.888077412628500373e-01,5.201450133674910825e-01
4.658174308679011166e-01,4.957060271782703365e-01,4.586040057840772843e-01
4.628949656367769561e-01,4.708135048652328791e-01,5.308731525512240257e-01
4.969277674741264805e-01,5.371405463309641970e-01,5.085527247574261889e-01
4.877881112227582805e-01,5.486462913051849410e-01,5.026933236916185654e-01
3.974171585099489090e-01,4.818660492814473284e-01,4.967671306667396647e-01
5.249650715151558122e-01,4.832532865516914189e-01,4.505379572602845606e-01
4.662735721378223896e-01,4.709810189446497208e-01,4.721119467053286889e-01
4.917231490733671717e-01,4.678835584509944967e-01,5.552025540279755811e-01
3.983440743493640301e-01,5.251997679387808704e-01,4.808336687655687114e-01
5.049693179793702802e-01,4.383390456116517675e-01,3.901057244973767379e-01
5.651182569639154885e-01,5.058008245339717934e-01,4.660930914586007834e-01
5.332660413830251356e-01,4.536964146749260518e-01,5.402957530097600714e-01
4.723239732287149995e-01,4.742178648354242743e-01,4.814322282079417925e-01
4.884607405231847221e-01,4.442560874010582084e-01,5.130927922798146357e-01
5.520207869077646823e-01,5.611755984563000510e-01,4.453276409377261991e-01
5.498930770838214022e-01,5.107186062088656664e-01,5.238854988692556169e-01
5.019910606057454983e-01,5.134909894107109185e-01,4.426284512947534777e-01
5.153332122767290135e-01,5.386282448536650058e-01,5.679445383595030927e-01
4.163694060938841202e-01,5.721877965791399845e-01,5.248046638633215855e-01
4.977468141923503953e-01,5.447790357456248067e-01,5.510881018538493770e-01
5.271508949232125429e-01,4.505652997216566535e-01,4.992294473504771957e-01
5.458678192921735395e-01,4.882364670860699363e-01,5.114442910712656554e-01
5.056964160442875000e-01,5.178180642826114566e-01,5.494688298663570336e-01
5.197459540958376811e-01,5.494337795646845324e-01,4.048857177440632893e-01
4.680970799120974246e-01,4.892520471090378020e-01,4.043973406353028044e-01
4.184442188879050617e-01,5.501533592391254501e-01,5.084818188697148855e-01
4.150099893325813194e-01,4.599614722996070992e-01,5.057785134891096268e-01
4.967456053514501813e-01,4.877865894248581413e-01,4.831002125947659320e-01
4.239545026074305611e-01,4.916644035789203282e-01,4.986449787991600879e-01
5.178508454379743275e-01,5.242202745658476326e-01,5.064786148202912175e-01
4.565045761559622384e-01,4.678262210562387780e-01,4.792219167780549793e-01
5.044735449717260289e-01,4.466561820548374251e-01,5.790603157520168853e-01
4.691610760366176636e-01,4.276315508214802996e-01,5.489134181469138563e-01
5.364582454188266958e-01,5.163462262887394960e-01,5.576919816098119265e-01
4.846326174119804930e-01,5.061323632400617223e-01,5.472429928399195065e-01
6.259179481412533441e-01,4.012636189841949363e-01,4.519186913176371778e-01
5.845296701035057607e-01,4.772344362862877554e-01,4.342703142546839867e-01
4.909954579954532994e-01,5.178728385951104629e-01,5.203455710163816805e-01
4.697181670925271724e-01,5.436764039886327060e-01,5.583062111284928797e-01
5.483954869986131797e-01,5.450529699072678147e-01,5.197774329923521286e-01
5.279153569229028120e-01,4.922525881419010374e-01,4.595102846756293768e-01
4.137323410080058217e-01,5.260752031305708787e-01,4.719932355718114425e-01
4.769531200041614571e-01,4.595075862874626882e-01,4.825906047338607285e-01
6.032025468655082268e-01,5.121936026801157116e-01,4.730585285565513942e-01
5.254720999037125750e-01,4.983896407096102266e-01,4.635176010699926796e-01
5.096721785337063881e-01,5.573104246616306101e-01,5.291313611326848854e-01
5.516560188338746062e-01,5.685948027635322477e-01,6.037753086589484619e-01
5.133856026687654284e-01,4.808415707949638684e-01,5.277873716259329218e-01
4.820725610488055257e-01,4.946834066190200496e-01,5.481124246111858112e-01
5.178621847214865959e-01,5.208836373823521049e-01,3.920916922909569724e-01
4.983840761866173974e-01,5.280364347428586624e-01,5.685251372658610691e-01
4.375420407491057428e-01,5.050252209353669475e-01,5.658293332405248677e-01
5.333998942859616843e-01,4.269419331612083202e-01,5.456854062318271525e-01
5.114328020951197651e-01,5.774317607922655471e-01,4.454169922872305287e-01
5.386998089667619505e-01,4.765097149034034918e-01,5.350687540561727129e-01
5.565608224619520428e-01,4.866559530477050921e-01,4.654158236601488308e-01
4.321103201356287227e-01,4.793059971333121227e-01,5.053498023709380726e-01
5.427873044237210287e-01,4.757422024703192864e-01,5.072304959357478715e-01
5.523268453460817851e-01,5.128001164707016724e-01,4.766506004214103864e-01
5.125786827074187979e-01,4.989029858262494233e-01,5.087152142683816214e-01
4.865013444218383443e-01,4.076356063904411631e-01,4.436496705808242735e-01
5.413188220520570582e-01,5.258397264217342659e-01,5.419982624304886532e-01
6.111582388153640188e-01,4.843354499016689352e-01,5.618820231138055288e-01
4.572539797429558406e-01,5.463948436127291641e-01,4.515810817766193197e-01
4.556872557678555147e-01,5.713689903027258099e-01,4.409191186588310440e-01
5.748489937622585089e-01,5.504369042068100182e-01,5.700308959820628019e-01
4.300863762872858542e-01,4.408926574351379468e-01,4.964964969814097406e-01
4.878781108119488175e-01,4.973174274750508661e-01,4.562622986961251681e-01
5.751904159126846050e-01,4.937712619168684314e-01,5.172478425974383898e-01
5.270751863295687345e-01,5.570261842793534646e-01,5.457883288806608668e-01
5.361733498352933003e-01,5.140765116562657777e-01,4.775605055036993285e-01
4.981048146228284623e-01,4.992737772522957140e-01,4.959146993386190916e-01
5.044638109823679217e-01,4.986783969938487493e-01,4.718480499608185275e-01
5.005857040091989951e-01,5.274540067947520727e-01,5.069556545003301995e-01
4.622371300309210951e-01,5.335278874693388795e-01,5.172989183854254103e-01
5.196242014184179192e-01,4.448426660420327083e-01,4.823890456612678346e-01
5.092376847715521793e-01,4.602954367713966710e-01,5.678357913356277820e-01
5.189559369301982583e-01,4.624682629817654655e-01,4.401548574247410306e-01
5.350489761672444500e-01,5.230233391893372996e-01,4.794154831112025783e-01
5.148791289757842504e-01,5.499723645702883079e-01,4.927411790140571179e-01
4.870302428786250082e-01,4.803387890988073394e-01,5.113848208866199618e-01
4.970113645406687430e-01,5.058972398086205580e-01,4.271749514818029558e-01
6.060014687321734206e-01,4.548991245635785052e-01,5.229991231464359291e-01
5.513458868731176965e-01,4.792412560609159988e-01,4.972879191739312255e-01
5.248973835562316115e-01,5.012381811361020789e-01,4.695401511826409191e-01
5.123143470392244048e-01,5.355921593569186179e-01,5.028145947001325666e-01
5.561637649634407765e-01,4.440649671991824254e-01,4.197208530162227502e-01
5.583490982236442024e-01,4.505431588580006697e-01,4.435933012647649276e-01
4.237960846936886239e-01,4.768334726992994321e-01,4.732428079008735855e-01
5.546670434940328409e-01,5.500811754891715699e-01,5.014550652240989947e-01
4.521146058966308279e-01,4.843551014704177149e-01,5.030071321586422339e-01
4.278121888160282271e-01,5.307248016038924598e-01,4.911432430941056193e-01
5.656603053748655574e-01,4.743018751994945159e-01,5.128177428279434569e-01
4.867796007372944822e-01,4.400891634404422437e-01,5.460743702467439897e-01
5.227811063728347030e-01,4.676714882268230844e-01,4.334229155377577469e-01
5.184177394877048650e-01,4.614320195998202201e-01,4.664004933275633924e-01
5.310406624612682425e-01,5.520012334730421966e-01,4.273747260189505459e-01
4.925753520407454289e-01,4.287226269033986292e-01,5.104231204199174421e-01
4.854744302588370752e-01,5.389108630845961256e-01,4.966212274848999519e-01
4.982697178002526983e-01,5.078131727247784388e-01,5.177995265736144992e-01
4.444792598536430051e-01,5.339586487921871294e-01,5.408184575323329302e-01
4.478670383433051572e-01,5.136127582244628398e-01,4.652659619124750456e-01
5.794303193744935188e-01,5.372489574598163786e-01,5.445719346420513363e-01
4.805230743253818271e-01,5.156916681785888024e-01,4.991865090232845970e-01
4.927368114143144129e-01,4.871389707054034623e-01,5.527917319323878420e-01
5.582031875260140552e-01,4.096209790586279875e-01,4.763083259268944269e-01
4.694531867640043821e-01,5.094362604556890162e-01,4.594121865589971820e-01
5.317454388638477303e-01,5.605322334567822695e-01,5.182052314620108069e-01
5.380042682852290703e-01,4.928768886377728475e-01,5.156446084935959462e-01
5.086371657225090548e-01,5.286798219680169941e-01,4.921462094621386063e-01
5.406741541246992133e-01,5.502476086061894867e-01,4.957065230730964833e-01
4.367947300575528158e-01,5.115759834313060583e-01,5.195318059435050095e-01
5.241735087999700449e-01,5.237952068208855394e-01,4.737432942740275599e-01
5.873962677708465252e-01,5.132133313212255965e-01,5.473655846302344363e-01
4.713873507208118374e-01,5.581400721414195853e-01,4.937927515389698985e-01
4.875252195866583427e-01,5.143787128975938483e-01,4.798157871751119741e-01
4.772217568649485542e-01,5.575773932935795818e-01,5.040188086888728325e-01
4.952929368405962762e-01,5.027840937227084916e-01,4.635223725107714410e-01
4.927841309097603095e-01,5.317335818953262683e-01,5.067772500664416979e-01
5.703493316430372495e-01,5.223883423716827457e-01,5.118245753048447089e-01
4.202095918571113753e-01,4.555684061005104146e-01,5.643085476618657781e-01
4.623220343783865927e-01,4.989487973099175355e-01,5.128420413872800676e-01
5.107439669486656397e-01,4.065295689408043311e-01,4.968061529373640761e-01
5.191702455171941510e-01,5.177804239582302070e-01,5.021027785510459029e-01
4.557063613172528949e-01,4.586222149473704324e-01,5.081945289941230959e-01
4.452440236951240027e-01,5.092547239204336940e-01,4.958672664862813217e-01
5.545587643356157947e-01,5.357163238065502098e-01,4.672974950123305327e-01
4.526858160317447366e-01,4.535967919483590016e-01,4.892124195894283489e-01
5.518158021731622842e-01,4.934544040083828076e-01,5.410613998800221092e-01
4.350455532860302288e-01,4.954951774873492254e-01,5.014266073789754863e-01
4.451504215429719635e-01,5.370033307924755306e-01,4.386529989789253459e-01
5.322116393098255127e-01,5.125179107498851749e-01,4.792203358868767360e-01
5.057157091946544725e-01,4.775132395226279192e-01,4.767803696566731420e-01
4.470942839000012214e-01,4.860489702091613795e-01,5.260196995303121348e-01
4.617039452028602331e-01,4.638652872020486706e-01,4.982482672652369105e-01
5.453540511104429944e-01,5.100149202391339731e-01,5.361934809574890881e-01
5.187766766656625173e-01,5.232998011493958934e-01,5.254442959738164776e-01
4.571708175781462602e-01,5.256289804105650498e-01,5.686785575258572756e-01
5.493028579145100565e-01,5.407672197784595403e-01,4.806657204453153587e-01
4.744708817675541423e-01,4.675808877002678998e-01,4.471067529784977790e-01
4.797278385987135962e-01,3.901805303683111847e-01,4.969507442245134077e-01
4.742285314665161677e-01,4.828730257860471831e-01,5.534685483222842040e-01
4.946973364045555988e-01,4.440912310295903609e-01,5.014834463674073817e-01
5.220254458751674154e-01,4.916011674166216872e-01,5.038074131141602185e-01
5.487834586997599740e-01,4.688857360117486550e-01,4.766298956468977277e-01
4.919159558883255956e-01,4.360726188751619659e-01,4.723930302075363130e-01
4.791909719179888172e-01,5.604080689917081415e-01,5.139000216539678645e-01
5.223845769615774737e-01,4.233588130192690313e-01,4.592718910476533134e-01
5.046284275985541967e-01,5.939791340210739401e-01,4.890574909784968782e-01
4.819148702076095359e-01,4.710129788613601765e-01,4.586051906859437421e-01
5.648690053357988683e-01,4.967200159478962207e-01,4.994483705694797160e-01
5.860119496476170475e-01,4.511614340476646778e-01,5.334890664637615965e-01
5.090143650315124280e-01,4.683690113145896894e-01,4.907747956094546948e-01
5.104283881778972631e-01,4.726068518980153232e-01,5.422979153485166792e-01
5.310345103562599256e-01,4.245781406833810667e-01,4.425547466917806316e-01
4.589614097136837101e-01,4.914526253863144012e-01,4.918006161759307382e-01
4.593281852342510074e-01,5.246301185877989548e-01,4.770680515465367533e-01
5.407327638395933445e-01,5.322020755651745150e-01,5.044831146491729479e-01
5.349815625093934379e-01,5.231083268062288738e-01,5.270386704615573903e-01
5.766832444696349258e-01,5.148209957745534249e-01,5.079474805295826068e-01
5.118089608429036153e-01,4.448755082049422049e-01,5.304516129160670168e-01
4.672674715118528277e-01,4.774330399303025607e-01,5.185921460809989059e-01
4.947979713334628160e-01,5.054541875597043932e-01,5.689450052322424511e-01
4.635993024931358009e-01,5.591488382399875112e-01,4.614410741693802942e-01
5.532407929220919396e-01,4.578396931475393061e-01,4.858305059147079996e-01
4.949604883482949247e-01,4.864711488458720035e-01,4.504887122183644510e-01
5.175198480559075609e-01,5.200003599371266771e-01,3.928705723581413234e-01
4.558883257393255284e-01,4.951081914421793795e-01,4.716870822740225067e-01
4.886924899677031475e-01,5.387087620604709137e-01,4.936056015942412722e-01
4.997752708904650842e-01,4.652189669385264903e-01,5.352845102291892143e-01
5.496246056769391597e-01,4.715786267831836853e-01,4.775349007389058653e-01
4.781217601957272745e-01,5.705715518918059725e-01,4.642578580536885768e-01
4.828442051504306942e-01,5.012216282258115108e-01,5.104914809948001286e-01
5.061035138947528322e-01,4.788140711864383170e-01,4.730947470703872337e-01
4.904978410099100627e-01,5.291896054736322519e-01,5.577142280504203686e-01
5.601961970137558922e-01,4.655371046675374491e-01,5.435085219081497998e-01
5.225220376795747246e-01,5.418028520420737904e-01,4.966557851464367124e-01
4.746129535440495317e-01,4.143615012013752708e-01,5.330573783790506504e-01
5.081129322759970757e-01,4.843741482233152040e-01,5.162620536260670301e-01
4.689525793708499424e-01,4.758466965799935666e-01,4.894249119466651532e-01
5.251163896073105519e-01,5.752896550497782480e-01,5.160763554711452761e-01
5.096440847517155204e-01,5.324509616956297764e-01,5.345676216624996036e-01
4.943626439691924390e-01,4.588947849224127018e-01,5.305722045378538088e-01
5.507209049016639213e-01,5.397511924006046513e-01,5.146981547418033598e-01
4.948482931728481748e-01,5.513426206177596267e-01,4.532390742520739924e-01
5.134598959029578191e-01,5.509277193632743375e-01,5.025986801772619472e-01
5.296097015549896536e-01,5.214255547506847499e-01,4.420248151267796022e-01
4.744936842646135244e-01,4.781393220703576419e-01,5.549711654837676811e-01
5.740833878935646117e-01,5.116761513701365560e-01,5.613068037099797625e-01
5.398760478911840410e-01,4.893837882565022501e-01,4.543299597289670588e-01
5.263079236552518081e-01,5.242007068826907146e-01,4.629077550219057868e-01
4.698482935227449309e-01,5.192927269399429946e-01,5.329050894937020777e-01
4.893111425187067764e-01,4.774187822441710582e-01,4.943476147295323697e-01
4.769367321103047952e-01,5.350612975102634339e-01,5.351736305728215237e-01
4.979759969375809336e-01,4.760140973515863960e-01,4.799777573107237294e-01
4.686112033977322677e-01,5.506855800834333792e-01,4.982446703429947998e-01
5.772657211568863467e-01,5.599513772961520752e-01,5.347811147807286503e-01
5.096850319075973967e-01,6.057968485614284582e-01,5.437641895503168010e-01
4.572654920070964857e-01,4.970562322307853220e-01,4.786455346602487282e-01
5.099409694739177601e-01,5.541436516320675798e-01,5.440565856505727993e-01
5.296503260456526530e-01,5.795296986318765331e-01,4.813973200501303062e-01
5.645373583710099341e-01,4.321409383695883899e-01,4.750800167352121628e-01
5.343739077758844491e-01,4.682145969065240054e-01,4.971126537008525581e-01
5.512162754683044286e-01,4.929756459431017812e-01,5.432978418876913684e-01
5.296514651072538049e-01,5.570535357029662293e-01,4.492526794168256177e-01
4.654787309845738186e-01,3.978829991739018523e-01,5.072188831814082866e-01
5.157364161901468735e-01,4.943493912239219634e-01,5.137251790464968382e-01
4.851466072456998568e-01,4.834412509504572575e-01,5.278005784790255062e-01
4.943727177809980056e-01,5.094303629919414433e-01,4.801087081096788167e-01
4.706355715985986454e-01,4.309913959414229945e-01,5.252157989738943655e-01
4.710900377141743478e-01,4.678618776891541597e-01,4.925943211240269015e-01
4.886790891919226554e-01,5.190800480662046690e-01,4.814493345433877303e-01
5.980022565173218618e-01,5.099318281605809133e-01,5.213503283362297402e-01
4.999598221330255887e-01,4.578619427867639535e-01,4.391826640374763557e-01
5.111635973711600167e-01,4.913568895865680908e-01,4.419348631975816288e-01
5.158814856482966116e-01,4.850595042394884038e-01,5.584317729506866890e-01
5.140301972605959557e-01,4.517745190728758020e-01,4.660809983796476152e-01
4.829166882232163727e-01,5.101046775096196306e-01,4.844282483402742034e-01
5.195940937912369995e-01,4.164408432244417479e-01,4.687500897259411770e-01
5.120242394243534889e-01,4.996277292131787728e-01,5.103291514901869830e-01
5.059160086359144604e-01,5.022594405995275402e-01,4.471390420532478926e-01
4.566674813626669382e-01,5.012927470896764159e-01,5.564915000130264966e-01
5.488834295426633370e-01,4.945849246755408823e-01,4.743322921768743927e-01
5.148604589787355579e-01,5.113258467860504197e-01,5.478215419671714770e-01
4.648765196280314482e-01,5.268804504905640895e-01,3.787951736300759764e-01
4.780512262041977656e-01,5.203529799377916154e-01,4.591992668745202288e-01
4.880092707849246203e-01,4.757176215146280418e-01,5.886230093994456736e-01
5.304348715300923889e-01,4.822135503815581092e-01,4.716654764427956059e-01
5.108852644089506567e-01,4.956289197033371119e-01,5.297788069953149881e-01
5.029653896564534321e-01,4.992344360117237922e-01,4.563249544960362725e-01
5.385525166811853115e-01,5.600202937091515176e-01,4.543794441866261247e-01
5.346074307490343847e-01,4.838520280438216026e-01,4.546699331998166893e-01
5.000081419549420314e-01,5.996261016988678749e-01,5.186791066845178877e-01
5.073426362948981749e-01,5.408789983991127981e-01,5.201575291512980925e-01
4.976134352263277272e-01,5.220733681111416891e-01,4.898605627901915782e-01
4.338133465177866910e-01,5.006136868668046302e-01,4.845925316992516496e-01
4.573239618893788494e-01,5.301583157687054237e-01,4.203953939927745909e-01
5.212755423030590585e-01,4.509041635146655014e-01,5.391410507535201457e-01
5.051362152627296709e-01,4.069214696208369730e-01,4.680546661765263572e-01
4.918638483823129515e-01,4.607995358837719824e-01,5.189366516042263067e-01
4.669869720217216247e-01,4.814442934872139035e-01,4.194916268524400693e-01
4.237456603184900361e-01,4.803843940209286401e-01,4.467661805491835447e-01
4.723466645476877002e-01,4.646390784258180306e-01,5.677036538065378668e-01
5.767538447152373848e-01,5.277988916239546580e-01,5.465087994427096918e-01
4.762874089430124136e-01,4.374476839501735825e-01,5.048046368509081505e-01
4.682217757917698231e-01,5.829039797330169970e-01,5.271543060262678937e-01
5.619392429174294712e-01,4.779032172664435807e-01,5.226762028139112504e-01
5.269583283536070084e-01,5.537147460424387546e-01,4.768393012934868946e-01
5.074486173339937123e-01,5.281062181441908976e-01,4.959149446005683415e-01
5.409244308268352786e-01,4.922933198420152423e-01,5.328622263800076864e-01
5.527791296824607903e-01,5.013635902227933094e-01,4.744632347075376511e-01
4.947248127335409640e-01,4.923510580572159068e-01,4.313595431019086601e-01
5.653115721940702443e-01,5.116459205649294129e-01,4.650740124249150842e-01
4.530879223419241320e-01,5.480309575242532372e-01,5.391798377618982618e-01
4.822718249076274888e-01,4.364820945009440512e-01,5.337899997604398372e-01
5.477812590611463861e-01,5.411529393980581970e-01,4.635716933554485109e-01
4.958875952829866485e-01,5.236212304974997567e-01,4.415119710206924508e-01
5.253383029140769045e-01,4.830592402930991569e-01,4.700179570142790642e-01
5.465776285279073665e-01,5.381568237561275003e-01,4.876297501141153012e-01
4.698882935351884060e-01,4.896775273164762354e-01,4.778418671479906510e-01
4.809324308116326718e-01,4.453413806760419535e-01,4.900500210077996521e-01
4.995438830199974145e-01,4.918466210462935639e-01,4.984667410033950530e-01
4.434779649830488668e-01,5.113236075573442951e-01,5.243912711212466160e-01
4.975415668017674209e-01,5.450926764871696362e-01,5.578809884692232934e-01
4.842472935215741958e-01,4.570734126324954016e-01,4.730275529620893704e-01
5.726386215364825949e-01,5.554294085613412646e-01,4.659140743149705610e-01
5.288556084862057194e-01,5.558000757316883256e-01,4.693160316555763378e-01
5.024547161507314508e-01,4.961493984210157415e-01,5.335218097140871363e-01
4.852993469115078340e-01,4.991631997165001389e-01,6.061822265120696551e-01
4.638979257895010089e-01,5.103778815189403684e-01,4.546457115631549750e-01
5.166586793638336950e-01,6.120658452101018776e-01,5.276465139227823897e-01
5.187916124518928696e-01,4.955812109256760856e-01,5.135490263129490751e-01
4.384193319218146478e-01,4.911189753955896853e-01,5.585621252084467248e-01
5.077284385594662552e-01,5.421348412671472827e-01,5.733744630721961943e-01
5.086801033618997270e-01,4.887331343565171626e-01,4.371740800853447517e-01
5.101333110467369814e-01,4.966095173554567754e-01,5.250311597035532962e-01
4.835859738802085195e-01,5.117186265702552417e-01,5.274018383720499026e-01
5.487036744685932499e-01,5.489220163374198824e-01,4.534795593910824762e-01
3.997395751398960528e-01,5.073278341530864655e-01,5.732908668893607063e-01
4.906647444866725771e-01,5.103305490074763195e-01,5.551400455723801697e-01
4.231882279168871497e-01,4.819247414131989649e-01,4.270552233692810895e-01
5.242641885204327723e-01,5.647678075077875448e-01,4.843413757181553314e-01
5.312036542160161190e-01,5.407176106470369392e-01,4.613235384852878429e-01
4.783860864324723794e-01,5.286981966054522530e-01,5.831288040299257291e-01
5.153429467028474154e-01,5.110989863899874086e-01,5.291194756031190050e-01
5.184437032195035044e-01,4.766673556957443103e-01,5.054474741586280073e-01
4.714352874354229561e-01,4.234961685672955500e-01,5.162547156369700074e-01
4.750142836207518759e-01,4.628607201826214768e-01,4.800399205896268007e-01
5.201492887683961674e-01,4.846534052543490789e-01,5.244308329707603189e-01
5.176255720912145142e-01,4.919385496866366947e-01,4.604676605549928303e-01
5.727503138284971707e-01,5.408202242613447952e-01,4.909743373336196148e-01
5.212659524856917415e-01,4.779043997553577561e-01,5.353541545401133694e-01
4.971158489491945276e-01,6.193286230567837114e-01,4.852570408850601091e-01
4.945159085309686064e-01,4.524036107178778243e-01,5.565593946760054589e-01
4.237138302213275809e-01,4.662722039067178637e-01,4.734367009757836087e-01
5.051200314817716475e-01,4.427902388860772698e-01,5.406641776574623304e-01
5.594412272069549941e-01,5.048948236044420446e-01,5.164508913387885203e-01
4.970071948084231472e-01,4.400809753937061086e-01,5.702636560356134643e-01
4.945098145634063691e-01,5.527025564700763782e-01,5.337832178905379532e-01
5.407635385534532713e-01,5.288633091437542344e-01,5.611777335101095776e-01
4.973541717072765822e-01,5.773685495641617260e-01,5.024631107219005299e-01
4.473040954883522602e-01,5.477280761809818488e-01,5.551705993784243898e-01
5.560892370295414944e-01,4.261050593160946587e-01,4.872259907341657814e-01
4.963799598206676822e-01,5.243505360195944709e-01,4.766472584696021531e-01
5.217899627244897420e-01,4.942053815280481044e-01,5.458213227962162017e-01
4.670603985380931134e-01,5.466425831686007042e-01,5.193963179152041310e-01
5.148657788228457877e-01,5.125932271273488938e-01,5.198273689844541412e-01
5.733992634066178429e-01,5.059226349851195792e-01,4.483323900953883334e-01
5.423558215380869241e-01,5.179304023248815225e-01,4.387113784274387362e-01
4.946572307098481835e-01,4.614271185178714929e-01,5.194302522956255608e-01
4.406768117239837079e-01,5.688726919120865588e-01,5.192214773863734756e-01
5.266173813485292010e-01,5.075153893033244046e-01,5.520820867705700241e-01
4.675342153654158950e-01,4.682070884536201905e-01,4.324983266867636900e-01
4.951675049817363394e-01,5.444568962226021824e-01,4.431782640621934610e-01
4.883299475235665099e-01,5.304295018816057583e-01,4.929635446229062579e-01
5.521973355281128981e-01,5.128963362503013990e-01,4.842624468373138980e-01
4.535714952692720958e-01,4.925239974988623315e-01,5.034991988411032793e-01
5.007716561777844078e-01,4.309122722461172228e-01,4.795867409551437532e-01
5.511082263996250896e-01,5.518305487081980321e-01,4.920003389201793031e-01
4.577830601074837635e-01,5.317300984302784084e-01,5.607307421605083331e-01
4.559255684291795840e-01,4.574654904032255387e-01,4.564999486494561443e-01
4.840093424431340940e-01,5.029432592896271315e-01,5.473858694493370924e-01
5.262143274198217702e-01,4.891702273783543609e-01,4.848109015119113629e-01
5.360256924274895418e-01,5.572381424196494182e-01,4.643133019861072075e-01
5.121133848677295042e-01,4.660953751693088787e-01,5.228751648138065811e-01
5.204246847666315068e-01,5.008571720615806466e-01,4.503216465302850580e-01
5.063676550227242945e-01,4.954618157677779244e-01,5.115332463922908079e-01
4.820473837024072949e-01,4.907134070649289415e-01,5.002179912996892464e-01
4.944524920198247742e-01,4.445994729670144086e-01,4.714795255073765401e-01
5.285878613941076276e-01,4.714748904645014171e-01,4.632906285193294504e-01
5.011759644324660368e-01,5.428519303496321946e-01,5.124143545779269449e-01
4.790580000219467616e-01,5.318671614057242092e-01,5.294261757057117102e-01
4.958233455531048661e-01,5.215558750409060584e-01,5.274306580413624657e-01
4.841771017440897329e-01,4.903268622606190008e-01,5.302646585109782595e-01
4.669707862094785722e-01,4.935632085138736413e-01,5.223150681075435786e-01
4.453237898857048682e-01,4.599872160369783969e-01,5.031917774792076248e-01
4.441676622320150924e-01,5.427579197070689920e-01,4.694020948132534565e-01
4.938558666281131493e-01,4.753702024384063307e-01,4.028878400466655574e-01
5.361082521334447071e-01,5.583226954255265939e-01,5.267038818613937190e-01
4.434386370416641965e-01,5.849078378324833460e-01,5.445540302178814018e-01
4.589205358738018270e-01,5.010707196495387539e-01,3.920987878801517890e-01
5.434553140887928846e-01,4.532251603424064523e-01,4.951425972664950659e-01
5.054282812531437630e-01,4.897524098675358206e-01,4.999659522932784483e-01
5.626201204646680276e-01,4.697399840215563116e-01,5.110700634547858945e-01
5.203768452921436749e-01,5.714092258643822531e-01,5.091518753181681900e-01
4.237002068113745468e-01,4.652954441027399857e-01,5.326158638163531744e-01
4.960181903973257533e-01,4.905511266722068497e-01,5.114596498517247625e-01
5.010624882252583401e-01,5.420399166530639468e-01,5.125729920652140059e-01
5.337495415003589150e-01,4.584953191446142773e-01,5.370905396305932777e-01
5.461223846139625637e-01,4.862106007433765198e-01,4.540904939978226418e-01
5.105547904664056169e-01,4.060697159455107230e-01,5.766847213921648674e-01
5.027218170057848878e-01,5.287155801835785596e-01,4.230507801085827690e-01
4.907879829252679849e-01,4.636714311926020127e-01,4.492643357372964608e-01
5.377167208114788099e-01,4.115003803965421314e-01,5.267854361846850964e-01
4.942256980085670270e-01,4.684373037090018843e-01,4.282549254118316329e-01
4.939178522547659766e-01,4.515270856412715306e-01,5.152087064781258885e-01
4.893215516058828651e-01,4.885419578012292763e-01,4.831207801570983618e-01
4.982990947649607039e-01,4.720008192138463454e-01,5.411127981062491266e-01
5.335441517611205775e-01,4.818485530596171018e-01,5.204225106705350212e-01
4.724438258802491353e-01,4.918425348260260788e-01,5.183825317445134306e-01
4.732092279592596262e-01,5.157271374816652099e-01,5.246181199948688478e-01
5.854473073874909561e-01,4.931067409551500580e-01,4.578869264394059835e-01
4.802259607011015730e-01,5.204736274762775672e-01,5.471532361825035551e-01
4.474938219345871993e-01,5.067148944517709808e-01,4.589315078217360844e-01
4.884031655833052099e-01,4.967711427354367104e-01,4.731785825097664655e-01
5.771759680313270913e-01,4.628489260697642993e-01,5.125550412885691021e-01
5.085382337798888264e-01,4.765782843773280764e-01,5.334265292414531734e-01
4.977619533009307595e-01,4.505990943687490091e-01,4.861008063434938964e-01
4.276861896523224127e-01,5.387069529243154742e-01,4.709333011709895267e-01
5.645521298406581678e-01,4.962791644367012811e-01,5.760224947791213745e-01
5.239128002846361598e-01,4.456105773763825995e-01,4.862040278009248095e-01
5.245990026038683807e-01,4.181280387503537033e-01,4.842501863910859683e-01
5.145830165487021990e-01,5.039241086348466014e-01,4.657100940563673186e-01
4.823874053782212790e-01,5.157535958387655661e-01,5.174869716300822819e-01
5.340394614831538433e-01,4.828619900092054329e-01,4.779146641101114645e-01
4.390948972878083167e-01,4.479152362279414379e-01,4.582792337759902246e-01
5.372789294983519870e-01,4.444603283765804491e-01,4.829435537981102144e-01
5.240306296956700471e-01,4.543297392153984871e-01,5.097162997329300893e-01
4.511905919451876246e-01,4.751590063526980878e-01,5.243907120618409579e-01
4.932463208385102216e-01,4.245558536811153139e-01,5.008123310434190456e-01
5.310198622909267918e-01,5.085090950035073831e-01,4.516047034907318403e-01
5.089818616530744633e-01,4.166402536432973758e-01,4.416978794084276960e-01
4.259714553537500281e-01,5.090389189066030218e-01,4.762737971090008071e-01
5.077945427559605873e-01,4.971567544707587438e-01,4.653432743228469448e-01
5.450797694810511906e-01,4.547746894767484283e-01,5.646861835803852481e-01
4.611238747561334228e-01,4.925972694646322259e-01,5.051461744354646122e-01
4.635276925725715369e-01,5.485845227162153837e-01,5.416041079287231552e-01
5.644556483279367098e-01,5.015916500134165457e-01,4.151674729723780488e-01
4.889927229684130072e-01,5.312526752231628846e-01,5.494909748660943283e-01
5.098126370397418894e-01,5.112570481641253162e-01,5.210567816031482780e-01
5.021640613372467810e-01,5.806753468870207158e-01,4.324137198030858498e-01
5.027085931544530428e-01,5.142102260823834259e-01,5.015789187126012960e-01
5.177294372346404883e-01,5.007684400289332816e-01,4.825307069358988343e-01
4.981834411360834824e-01,5.750594800936198459e-01,5.195805502902119954e-01
4.141592540195208616e-01,5.688721160880965133e-01,5.740463871945343799e-01
4.732392798162849967e-01,4.863095157523178447e-01,3.807645152875420713e-01
4.135646316999568861e-01,5.606824793411572250e-01,5.482592129825392124e-01
4.763119003055597545e-01,5.004565401456182450e-01,4.863822688756597179e-01
4.253422107454966072e-01,4.683987929523398264e-01,4.736568893748194231e-01
5.507284400710906747e-01,5.136458748572689803e-01,4.717883951571852919e-01
5.172132210550881570e-01,5.130467756879666386e-01,5.330918454414192986e-01
5.146245802210953624e-01,5.619352306697966704e-01,5.006120215878824276e-01
4.571521141014969758e-01,4.559423310285690700e-01,5.555521469416595526e-01
4.477668059642799236e-01,4.565311211210107412e-01,4.533656095179930956e-01
4.350404413990100472e-01,4.833150532291635160e-01,5.020843212523473653e-01
5.261302084464339890e-01,4.021001775675208112e-01,5.071181447356410965e-01
5.252419003980509649e-01,4.607799455393402077e-01,4.327389655861664797e-01
5.770137233165248958e-01,5.179341660125207358e-01,5.227677188332183755e-01
4.707392309123897278e-01,4.945039603284554497e-01,4.988180677877078195e-01
5.334137317260494449e-01,5.474425890357045299e-01,5.803022460745691502e-01
5.516740348246448322e-01,4.917279299689718552e-01,5.892431450989509267e-01
4.881061721296915401e-01,4.834384654807246662e-01,4.158712183469077672e-01
4.958004865029141950e-01,4.946748890876264126e-01,4.704950449650788791e-01
4.832480392431906524e-01,5.009049310771959140e-01,5.410672770410053234e-01
5.607936580966305096e-01,5.306527268928087349e-01,4.957833882448487994e-01
4.343480398344651827e-01,5.144583444623889168e-01,4.915982388483228216e-01
5.116849945165924396e-01,4.730869983551196922e-01,5.272865186311422869e-01
4.734438843947141873e-01,4.972277144428812190e-01,6.363101299961394508e-01
4.741848360942750307e-01,5.531728388228129845e-01,4.866689031520813336e-01
5.266875337107220778e-01,4.976875855398548709e-01,4.890564641142466362e-01
5.630188780565092976e-01,5.589897204967442246e-01,5.354621335406061222e-01
4.815772653700340911e-01,4.219427528632170299e-01,5.332912037036017239e-01
4.075907607281262779e-01,5.092694836909938960e-01,4.723857967939520952e-01
5.384764951407842171e-01,4.848762501443976136e-01,4.873205029015173495e-01
4.994985885399282344e-01,4.739144177472495723e-01,4.698389589258846755e-01
5.601601422723772039e-01,4.837373678533650190e-01,5.242183418046525434e-01
4.929362543532753715e-01,5.289468045604690527e-01,5.442678774665543617e-01
5.626644256585420223e-01,5.250192328685984178e-01,4.769829415551254947e-01
4.395550823353880365e-01,4.700304987388114197e-01,4.338627441807887952e-01
4.523547874109928313e-01,5.046551832352673683e-01,4.788854851402823409e-01
4.899009143790207799e-01,5.093522750680381517e-01,5.155332068702342951e-01
5.159166153065518623e-01,4.965564046096836437e-01,4.956985706515553147e-01
4.892034144223610381e-01,4.696462061628219331e-01,4.786148541396506029e-01
5.438168058945340722e-01,4.185551008528277661e-01,5.275872592909175429e-01
4.818140115786062605e-01,4.550320224999741536e-01,5.095911225032592196e-01
4.823273926819810486e-01,5.144760781074028122e-01,4.964605640123652686e-01
4.941352074440159559e-01,5.891024502176369637e-01,4.593163940383716559e-01
4.830652927719466527e-01,5.110278050324464916e-01,4.887311248871766822e-01
5.698306970804662974e-01,5.554653051408231512e-01,5.134418012311009472e-01
4.594054310264069629e-01,5.131742644828918287e-01,5.750838272088233394e-01
4.621488955808436550e-01,5.071233090805038479e-01,4.784864280280763937e-01
4.321027820473101189e-01,4.532336132370339277e-01,4.653486628984561668e-01
5.656568866999132084e-01,5.321930349412007377e-01,5.423917749376347963e-01
5.151751731852737271e-01,5.055476010891305494e-01,5.260995931498431144e-01
4.643065775200018730e-01,5.792393948676013427e-01,5.436718160849056680e-01
4.921032196310634599e-01,5.284310558807951974e-01,5.627238012292419267e-01
5.780167675174439079e-01,4.703229984281696030e-01,5.980586206215906531e-01
4.806211846788955855e-01,4.667890542745765092e-01,5.183853548001754463e-01
5.002620243207076545e-01,4.655557943211762750e-01,5.024184073750774804e-01
4.799946334248167412e-01,4.583899700366116936e-01,4.237518026433230167e-01
5.893176296387442337e-01,5.261639477892079420e-01,5.173273292542084345e-01
6.380602154415095928e-01,4.772710951061087670e-01,5.160850204642052352e-01
5.056953596504832893e-01,5.127738888733134326e-01,5.488991878406445091e-01
4.880341203902353042e-01,4.802931852074192043e-01,5.839155251317688089e-01
4.683478026861749854e-01,4.965276855977621695e-01,5.581900067941907295e-01
4.921284005137963047e-01,4.953350602707473072e-01,4.832134639651370911e-01
4.053929433236396762e-01,5.150172194497958378e-01,4.851277654273296602e-01
5.390658178481120277e-01,5.698245799730572436e-01,4.976638126065073831e-01
4.440501738932756681e-01,4.424917648012438587e-01,5.021887613895906766e-01
5.248454438177431181e-01,4.833427555891232630e-01,5.143053640911802171e-01
5.451075274375390967e-01,4.730282824215108484e-01,5.007419833870533354e-01
4.780184635252005543e-01,4.785648960819768871e-01,5.962829342457022230e-01
5.206984466782559329e-01,5.043146443661846723e-01,4.527232565667690944e-01
5.400920350938908099e-01,4.723695109289729466e-01,5.549755484485481283e-01
4.843919371400025042e-01,5.293701221971695015e-01,5.278532955705939056e-01
4.543770704863898668e-01,4.461346803831839347e-01,5.290138713910739199e-01
5.426479322950890083e-01,4.674389628137761155e-01,5.319073232398922046e-01
4.923265171986233035e-01,4.999389913260258167e-01,4.509107051750096962e-01
5.600927206555369464e-01,4.801060115587011956e-01,4.561592930159158454e-01
5.164400979650598522e-01,4.488704504271943674e-01,5.338434942434333585e-01
4.894666266831284585e-01,5.426298983763893080e-01,5.125551749153247627e-01
5.294802427644160758e-01,5.062405156008856766e-01,4.900440551123801391e-01
4.756195811082807312e-01,5.151528639278809552e-01,4.817707412476468498e-01
5.673454730902687260e-01,4.424085075694066949e-01,5.173757857212354372e-01
4.989823225263074202e-01,5.579474798303756256e-01,4.950882447417135901e-01
5.217124723244294104e-01,4.299664537963232558e-01,6.168066645511474100e-01
5.144174868447052296e-01,5.221148474409738061e-01,5.507184084062283214e-01
5.164808660168992427e-01,5.157634676418479946e-01,4.427519045336787973e-01
5.051602322903062658e-01,5.013631995370529948e-01,4.408116478844169017e-01
4.915587462779701378e-01,5.255518018856158990e-01,4.436748771534541058e-01
5.523287452025574806e-01,5.700225018699131008e-01,4.412398998485261847e-01
5.013788320659795517e-01,4.769314244369364242e-01,5.584557698090808486e-01
4.708092689864301073e-01,4.467160450891632384e-01,4.525679021970940297e-01
4.928211519186844747e-01,4.733814094672958994e-01,5.385302925278552255e-01
4.909473024061419832e-01,4.849635150260837579e-01,5.588405194934362719e-01
4.804177049546608513e-01,4.618082018461444616e-01,5.124628320281153782e-01
4.192082106925025808e-01,6.003424441862864613e-01,5.307397476747593990e-01
4.700459986503580656e-01,5.290724479774935318e-01,4.447965151891236091e-01
4.256747475675409786e-01,5.076377908306960451e-01,4.006170928833560629e-01
4.730177413157794497e-01,5.334475151041445651e-01,4.968347523731463933e-01
4.606986375337677742e-01,5.035497877450002546e-01,5.348586500550763789e-01
5.253204883131546987e-01,5.104018976408057906e-01,5.047435451569273201e-01
4.542381000367990973e-01,4.351058440960543505e-01,4.933295175432960145e-01
4.595372220639561966e-01,5.403466416273898787e-01,4.496708975164742106e-01
5.706710397327953155e-01,4.666637594156278213e-01,5.180161525211764983e-01
5.586001874685124768e-01,5.241479990297637226e-01,4.820536408224187497e-01
5.353798098205255762e-01,4.072445546324828802e-01,5.082008936763775520e-01
5.056965498128940251e-01,5.572067754440984677e-01,4.532839770032233706e-01
5.134171359943344726e-01,6.080211884796420385e-01,4.602513624171359341e-01
4.830441447178175918e-01,4.763684165433120232e-01,4.515593598441942635e-01
4.099431610476826915e-01,4.783376645196760202e-01,4.398464861585850705e-01
5.210943187590936221e-01,5.656759389708437835e-01,5.478150013226280590e-01
4.531778195151376920e-01,4.466285762148090033e-01,4.978944307829146210e-01
5.146083813089354919e-01,5.204000178781013064e-01,4.823386916483726194e-01
5.251123053763600002e-01,5.394020047107539462e-01,5.939946616755027442e-01
4.735129716123390731e-01,4.846843170903042397e-01,5.267641659152508815e-01
4.645309622702212815e-01,4.948739307854239100e-01,5.039318629500624258e-01
4.490039249022875767e-01,4.706903628825381269e-01,4.494813277761337544e-01
4.817882106591598879e-01,5.214325112600763923e-01,4.558389236280926404e-01
5.547244558657112856e-01,4.509482051404043457e-01,4.829636950798700257e-01
5.131156569112053090e-01,4.594555250030454285e-01,5.277939169428111921e-01
4.924416190122459791e-01,4.796371980236701638e-01,4.681428578581637856e-01
4.945349593682002998e-01,4.902138979570150323e-01,4.969955767582968642e-01
5.091259322619900995e-01,5.211119790899816362e-01,4.996601346796119003e-01
4.981177148973875979e-01,4.692767661486519359e-01,5.036380234823510937e-01
4.924321984326778257e-01,5.079996172331732174e-01,4.404227592604830210e-01
4.768068548491450898e-01,5.184770541448188164e-01,5.797600773855173806e-01
5.103065705114070427e-01,4.871742959668435846e-01,4.669451725798763331e-01
4.229712401348575401e-01,4.250908794915774780e-01,4.723240848459198116e-01
5.059380246006546233e-01,4.932383166592483326e-01,4.982351710814884038e-01
5.341912050122674671e-01,4.309939863573747920e-01,5.168843131981125660e-01
4.541860008248915781e-01,5.633493678454478681e-01,5.136298826916994020e-01
5.252228763691538793e-01,4.384623125653416831e-01,5.729992993356703979e-01
5.235535457919101576e-01,4.575838040069391544e-01,5.261174951968192737e-01
5.454013478166044315e-01,4.820897808222623926e-01,5.098994918991426317e-01
4.872246754677134195e-01,4.612739072738261670e-01,5.004133560830460459e-01
5.251271274272759637e-01,5.271426050240962669e-01,5.132828949845520405e-01
4.202210529564654462e-01,4.910232184788109744e-01,4.915353622005770307e-01
5.465365944934263975e-01,4.644234924374616158e-01,5.375701697034572790e-01
4.598366166116825138e-01,5.033535141944459612e-01,5.728583816737014001e-01
4.292702608643636508e-01,4.717008143355201910e-01,4.773618835601202703e-01
5.167892806452903942e-01,5.054395750074569538e-01,4.397062725160332253e-01
5.295490857859364020e-01,5.216083764332962724e-01,5.262147913409366273e-01
5.579050881293471376e-01,4.508307985890226965e-01,5.167323732947238790e-01
5.136546106486979957e-01,5.035758858918238934e-01,5.035093872558771277e-01
4.722473805512891198e-01,4.452330466132310427e-01,5.279104134355866451e-01
5.556600786386893809e-01,4.843877881574064626e-01,5.465952606876631759e-01
5.271109944715819395e-01,5.290124673554558177e-01,4.360374266612178085e-01
4.693349161529783431e-01,5.154016220070815057e-01,5.306264072241991814e-01
4.832002614507902027e-01,5.176374932100227255e-01,4.405901851327553298e-01
4.499714441914676177e-01,4.587378525448520539e-01,5.200816517706574604e-01
4.759489839138679734e-01,4.844648797503762205e-01,5.964729752701306564e-01
4.434940299666569330e-01,5.097910096599957974e-01,5.207778541687591023e-01
4.924351005758384470e-01,5.320280642153334405e-01,5.205114476761779629e-01
4.819136587560671203e-01,4.867373183095761169e-01,4.558741965691876508e-01
5.361376933288843905e-01,5.101421323362417271e-01,5.097530497505271541e-01
4.822103267433974771e-01,4.492788876533319598e-01,4.804854940133203023e-01
5.133960565897159878e-01,5.133493075524883098e-01,5.005226473817339095e-01
4.894639842835832866e-01,5.462649915632666886e-01,5.640000704910711482e-01
5.435253409466243024e-01,5.110111262889813766e-01,5.376489174324071696e-01
4.240395974493562647e-01,3.905492661777802965e-01,5.467326535241325836e-01
4.956943836290538252e-01,4.959396895592487753e-01,5.594543697719860376e-01
4.519600374948139487e-01,5.055884702582738033e-01,5.779745607893483905e-01
4.918612549876281159e-01,4.996960163460184567e-01,5.592238661179118608e-01
5.047676313439305451e-01,4.638973328009925456e-01,4.923856064984468150e-01
4.491072807394701494e-01,4.852889916069724197e-01,5.392809034250607425e-01
4.963494273764338383e-01,4.593193624559890331e-01,4.922498191648885801e-01
5.282731702512487582e-01,4.309204517809518964e-01,4.705782162183272388e-01
4.582802307911377215e-01,4.617897826066180711e-01,5.215491247878799586e-01
4.601201656157583031e-01,5.786179259624006921e-01,4.604723908984628689e-01
4.949176560280181270e-01,4.680974872727582947e-01,4.054884169246156800e-01
4.566036123467184238e-01,4.684282376817593407e-01,4.623466151958346426e-01
4.960339036134628898e-01,3.999503868572266141e-01,4.740464951591989440e-01
5.927120036630473265e-01,5.085198199303904154e-01,4.625071098485247223e-01
5.443797516515607171e-01,4.094875747951700062e-01,4.333202539661849539e-01
4.766209905343672393e-01,5.280637964664542938e-01,3.898285622075730594e-01
5.507126303124363353e-01,4.714810834777194426e-01,4.813477892640299904e-01
4.935475528601420692e-01,5.450048459913966470e-01,4.780918456855557386e-01
5.115216162900851904e-01,5.451574069919439269e-01,5.256264586261896188e-01
5.010077964170478459e-01,5.401418419857796360e-01,4.749899683962432451e-01
4.671295583511246297e-01,4.607503078695328047e-01,4.810430018690302068e-01
4.350997307468170150e-01,4.530389500413116166e-01,5.200474706537224767e-01
4.732419108162894128e-01,5.826948999248883210e-01,4.565632630520455315e-01
5.539450500713716252e-01,4.927152132490373315e-01,4.665265853571343713e-01
5.323160127688585375e-01,4.894657600654804264e-01,4.653698978629084437e-01
5.015521442580560540e-01,5.149315322052602228e-01,4.458972380459273466e-01
4.402183186677931515e-01,5.361696091140788489e-01,5.423083565972695030e-01
4.836777631603362826e-01,5.969325348075795734e-01,4.481397683166442047e-01
5.361277118725573665e-01,4.434054741793133081e-01,5.809989195828001440e-01
6.337603355395233784e-01,4.617999417974527621e-01,5.541498115997375296e-01
4.515274998631378378e-01,4.598730760478805246e-01,4.996717246580799632e-01
4.167733534368299742e-01,5.694755886812814527e-01,5.747116391739682806e-01
4.755436982785503086e-01,5.333957704358989194e-01,5.157253834227296663e-01
5.259793242350152553e-01,4.502963446219876986e-01,4.601155073260324024e-01
4.460046860934998025e-01,4.989002311204516760e-01,5.060073843234375035e-01
4.791610737488176675e-01,4.520665137500680109e-01,5.064970614685828654e-01
5.043725755490053864e-01,5.399302424409750945e-01,4.708364883857483751e-01
4.970057621669183856e-01,4.741029993122400921e-01,5.927131171858515124e-01
5.280743144885502449e-01,5.419595263150694953e-01,5.535989036489212811e-01
4.802987979855009582e-01,4.531551343184961333e-01,4.745532348000525702e-01
5.387598528049714064e-01,5.395497206006429902e-01,4.717998586878219269e-01
5.542191382752943429e-01,4.897510379958547877e-01,5.418243200644560220e-01
4.881855893060378371e-01,5.402461370147950692e-01,5.185423842925669380e-01
5.290252769261479804e-01,5.039829520890897196e-01,4.892712235527502673e-01
4.618501113039856221e-01,5.469469238405246792e-01,5.506011947281981289e-01
5.513653851047958243e-01,4.623287012804633833e-01,5.284105535196791381e-01
3.934464323968962507e-01,5.038770942578122414e-01,5.024187914554489875e-01
3.867757614738139837e-01,4.969019771905908711e-01,4.625583707388988830e-01
4.932761079261647752e-01,4.845999190702343085e-01,4.830041413574940323e-01
4.779106809270358691e-01,4.381496098849562149e-01,5.271535281156112251e-01
4.772996622398377742e-01,4.903200406295761815e-01,5.253536260311658657e-01
4.925371175615100849e-01,5.555997867067863361e-01,5.604909301336469252e-01
4.912809121695393411e-01,4.799684095008094342e-01,5.499229821721569600e-01
4.971187752242646196e-01,4.843167029432673409e-01,4.654077364670433647e-01
5.295778901310951303e-01,4.661832010419746375e-01,4.831446645252594485e-01
4.475921466835504625e-01,4.915377990855351875e-01,5.113997331086129750e-01
5.291860045135065027e-01,4.430830887118087369e-01,5.615078929126712248e-01
5.160500889027235250e-01,4.841072596210896917e-01,5.130319619553961319e-01
4.704549464330720632e-01,5.570577974734282067e-01,5.041383838359561054e-01
5.390661300021605262e-01,4.663107057998133187e-01,4.718458971277633696e-01
5.813647429885171469e-01,5.147394078873943624e-01,5.524422839856643064e-01
5.194933810222384096e-01,5.577493106865708539e-01,5.654232232385922874e-01
5.387654187116570625e-01,5.029477686657869429e-01,5.280225266867154543e-01
4.824632270570360371e-01,4.584514180747711887e-01,5.320158481260699457e-01
5.004327503486831752e-01,5.165374407665992429e-01,4.654328636147036513e-01
5.211043082057555953e-01,5.567433111618991237e-01,4.818077213025921957e-01
5.306666806274928927e-01,5.364695679038375964e-01,4.808210480022798716e-01
5.399585858801094762e-01,5.747503173997986492e-01,4.395397028852480736e-01
5.437393467816087345e-01,5.063479695033824557e-01,5.477108098781979795e-01
4.718347624162940179e-01,4.965225267936163034e-01,5.647646745644540056e-01
5.514169534195493272e-01,3.968552485599918245e-01,4.889779961664682539e-01
5.162984662000635883e-01,5.100822317963271679e-01,5.191861460539667350e-01
4.590613467927527336e-01,4.690236896258720423e-01,5.235426814173811394e-01
4.977767766180410947e-01,5.094853727184537329e-01,4.975516647837747719e-01
4.919040816748526668e-01,4.647708086521487036e-01,4.621886411495980118e-01
4.932940106436425887e-01,4.478184057062654655e-01,4.935373327403104193e-01
4.767519546383323092e-01,5.963632902364732757e-01,4.804520257427959407e-01
4.415131378910192583e-01,5.103193977640875234e-01,5.172238053275829417e-01
4.661992144053788145e-01,4.794098256258240709e-01,4.773438410076339955e-01
4.468795957762917159e-01,5.039144025150520401e-01,5.665247461499762771e-01
4.735644667562724508e-01,4.998709003118730343e-01,5.000811756715070056e-01
5.111179251197818241e-01,5.147339595336047902e-01,4.385635088724284536e-01
4.868120469747923007e-01,4.871025024699664474e-01,4.926894149108359544e-01
4.613782376469702795e-01,5.455462042534794387e-01,4.996434822446409463e-01
5.177893612436609283e-01,4.545695382074420587e-01,4.477149732087241651e-01
5.048473672119601074e-01,4.836138081611257022e-01,5.275018973951560719e-01
4.926036429212815593e-01,4.138497385773401427e-01,3.918758481856580711e-01
4.383500368386609725e-01,5.113429624286488506e-01,5.003976684342412717e-01
5.552825933472822495e-01,5.672448632541691182e-01,5.534457984253673413e-01
4.269845773303890812e-01,5.886500657801099212e-01,6.132960336829911263e-01
5.007264297396861741e-01,4.571564747830180742e-01,5.633665043961680885e-01
4.823554883411813043e-01,4.868801853477582875e-01,5.381151572706717179e-01
4.283383529975391957e-01,5.041633040390431919e-01,4.162787503552879964e-01
4.884704493222103983e-01,4.528763671361233367e-01,5.689336619369254056e-01
4.565629356035471043e-01,4.411251452585832067e-01,5.067939816514951401e-01
4.745868380632439210e-01,5.770423323257698467e-01,4.774857437987301556e-01
4.823737535516105512e-01,4.717646516089285536e-01,5.036913254824301189e-01
5.773989044497639389e-01,4.859182486043738813e-01,4.590414174666940794e-01
5.138194493196039936e-01,4.206135022598089801e-01,5.173770392370552473e-01
4.678438264462581597e-01,5.283928020416601701e-01,5.153618540144832005e-01
5.020418751698160209e-01,5.330388281729806499e-01,4.938076436006565983e-01
4.953990878384076368e-01,5.296496193436601718e-01,4.519780887686818960e-01
5.405552817040155666e-01,5.011023378661594307e-01,4.925255355278042591e-01
3.974930903466509235e-01,4.524466077885090920e-01,4.961337488209622837e-01
4.527047662259032768e-01,5.021154312647668760e-01,5.353620047668345983e-01
4.895663664407908233e-01,5.408779153276402907e-01,5.078075346563407644e-01
4.320325012352796423e-01,4.290601651632701685e-01,3.989367323654969266e-01
4.963183440564014615e-01,4.877287226515192864e-01,4.376486723271294510e-01
4.885575040220290766e-01,4.840027479683537970e-01,4.475310510469102665e-01
4.530311453938050681e-01,4.787885672117428437e-01,5.068896355871004289e-01
5.417902006062267350e-01,4.423887183206983154e-01,3.937152221825255261e-01
4.954705253355473626e-01,4.938889225827097773e-01,5.069140924560187056e-01
4.007046881915393710e-01,4.826495724021790390e-01,5.815310001038471732e-01
4.866760182323221495e-01,5.460018031452920084e-01,4.740201802589426028e-01
5.707720389100536806e-01,4.613725041318766373e-01,5.254832390316819257e-01
4.776525226832357141e-01,4.709515567126188462e-01,4.803183865637626337e-01
4.558055575333349596e-01,4.891663827087484595e-01,5.280630187486299310e-01
5.150658991728085390e-01,5.117204144243018282e-01,4.635365304576237744e-01
5.960290757726607325e-01,5.305785917937684282e-01,4.962919924983320019e-01
4.932219722630479808e-01,4.614604223180366893e-01,4.783646672337796835e-01
5.074741968520385393e-01,5.048320431237687256e-01,5.282904981735931926e-01
4.977816884838446310e-01,4.705167981618439965e-01,4.871253950080972617e-01
5.075074783409263546e-01,4.702681836922583125e-01,4.795617399854201768e-01
4.999031784377210297e-01,4.570754744165546612e-01,5.176080828420333013e-01
4.461871048084338764e-01,5.871607654888350014e-01,4.581010794525953722e-01
5.049409354012261986e-01,5.124399146281913842e-01,5.378839928129751646e-01
4.589967982423969750e-01,4.957361731978799924e-01,5.484743819866766401e-01
5.079513943665741049e-01,5.863924924722124787e-01,4.842817934696506676e-01
4.800712516042185962e-01,4.580856181547083295e-01,4.930248253689334947e-01
4.943098920002073626e-01,4.704436673843149785e-01,4.852507375115907018e-01
4.908434082649664187e-01,5.460145810058559812e-01,5.501768889496672088e-01
4.864002160016372422e-01,4.712604780253766279e-01,5.305092198415097826e-01
5.731182113655742816e-01,5.149104228267813443e-01,5.661121199206097243e-01
4.771831219874325125e-01,4.881699906261761646e-01,3.961761992544950428e-01
4.552608857311644108e-01,4.458588824965548092e-01,5.103135019958932039e-01
5.585503654691630349e-01,4.959590279225805642e-01,4.533981523695398974e-01
4.923578877789476782e-01,5.231606704221994919e-01,4.999438646997009239e-01
5.466344394655453520e-01,4.766034909188565094e-01,5.179470005673141308e-01
4.132902131752831942e-01,4.898450345996238631e-01,5.640738734741574945e-01
4.578652076879739519e-01,4.992510003164952748e-01,4.428539353210832474e-01
3.606689405499011181e-01,4.595687358917591725e-01,4.897514042902239018e-01
4.683955934538713284e-01,4.833174931071491653e-01,4.993533435464323489e-01
5.391946833603742384e-01,5.386952678701080188e-01,5.271511134184158065e-01
5.649392579134381309e-01,4.774284372397706311e-01,5.264894084710022293e-01
5.351969347388603193e-01,4.723972483853622895e-01,5.137391859195814536e-01
4.370980199807450450e-01,4.827439842566512707e-01,4.756078952966925066e-01
5.622630067407026200e-01,6.002731832549024205e-01,5.115568810692785462e-01
4.995264286717788771e-01,4.596207032590808317e-01,4.623676685999077440e-01
4.598724193312605513e-01,4.578356692682241658e-01,5.358686969352582929e-01
4.812958952760664766e-01,5.145215482964466958e-01,5.160214659408657312e-01
5.118629006464985309e-01,4.512443018196468092e-01,4.292000197737949052e-01
5.134633035025372161e-01,5.020599010971197318e-01,5.024830224705821857e-01
5.571278804996294687e-01,5.084717646231131649e-01,5.255527627996309237e-01
5.441236424219819678e-01,4.747352180985384140e-01,4.739185148228472477e-01
4.721695384165723874e-01,4.905949947989656779e-01,5.006831286989198437e-01
5.005709529555404380e-01,4.607241284167501449e-01,4.854019635992708470e-01
5.229852895055678852e-01,5.268186008201678483e-01,5.604205432088010808e-01
4.727511616768206859e-01,4.914442080901007537e-01,4.558670175948482672e-01
5.172204026427082990e-01,5.309577947029899825e-01,4.677715654657498279e-01
4.779599882210827100e-01,5.457302867556468318e-01,5.664875748671855948e-01
5.324949509410327186e-01,5.830295940051406500e-01,4.937131627678636447e-01
4.738031898060305891e-01,3.798424524671041302e-01,5.467046595780288287e-01
5.128963624918829733e-01,5.250267626484020900e-01,5.659931515991404316e-01
4.618385588772455086e-01,4.490135410856594955e-01,4.840385057377203926e-01
5.677456552613538987e-01,4.867979836293889750e-01,5.497272305809178805e-01
5.918904159061453285e-01,4.703287038639563655e-01,5.335149746429214135e-01
5.618846039236523593e-01,4.372365887529218176e-01,4.868464821612447646e-01
5.512589348927432464e-01,5.859802674800662636e-01,5.745004345917964494e-01
5.411324813059465999e-01,5.478029790731049342e-01,4.772412705914652054e-01
4.728974181907514285e-01,4.873817044337651616e-01,4.951117033677894241e-01
4.614728371432217369e-01,4.898165080166297369e-01,4.958779758469139542e-01
4.721568975267612100e-01,4.306269391794776413e-01,4.885394076563069343e-01
5.641525058242576884e-01,5.144062696535762758e-01,5.257681487923426822e-01
4.684168389914363795e-01,5.033171469595507652e-01,5.007582461771814542e-01
5.081124813221145065e-01,5.276047998453575749e-01,4.681590266624255370e-01
4.953925672890843179e-01,5.510366145562993756e-01,4.694289233600894562e-01
4.261689784247533752e-01,5.265327832686745868e-01,5.060300503087921120e-01
5.059856031547624866e-01,5.149667557858258471e-01,4.808026954567520828e-01
4.298220682420910155e-01,4.788836312003121876e-01,4.581006879077595406e-01
4.824169593224001962e-01,4.510486060541712416e-01,5.570413911511146177e-01
4.720357983059794149e-01,5.313816982054280214e-01,5.669982075441132308e-01
5.247506759647835306e-01,5.451742183169749900e-01,4.348140662468004680e-01
5.454415742364947528e-01,5.402592703663523510e-01,5.197231865335347756e-01
5.127901572708938316e-01,5.519728866291142566e-01,4.987740338682434271e-01
4.937866585004885844e-01,4.270279296568934568e-01,5.065538767292141475e-01
5.060439478149774128e-01,4.735735052308229220e-01,4.802993278742036520e-01
5.315439790293159383e-01,5.081566361117968444e-01,5.397130725588042965e-01
4.464269565942714513e-01,4.535780641580670070e-01,5.965527260533993736e-01
5.525832851005504365e-01,4.757619107703192074e-01,4.494957459949335821e-01
4.277799618134244808e-01,5.138185552631295838e-01,4.860338948518338476e-01
5.318968486936438422e-01,4.587629977524291247e-01,4.901749876928979677e-01
5.300744599323947703e-01,4.848545911872637615e-01,4.135706471618484370e-01
4.900913080734178862e-01,4.791384458599927676e-01,5.415635296346175132e-01
5.073518074121021737e-01,5.276924752365073079e-01,5.352219569878132743e-01
4.574130685734720259e-01,5.107674323368450731e-01,4.760769203325699861e-01
4.992736093626274352e-01,4.829431687327493394e-01,5.875981116056524511e-01
4.855483368691367874e-01,4.745127436128909193e-01,4.819279870525615128e-01
4.739293907946982021e-01,5.976482306568389191e-01,5.264539610099797651e-01
4.591673372087409777e-01,4.494995164324060988e-01,4.674698184803274259e-01
4.862495378674401292e-01,4.826851150304489191e-01,4.974651741811659256e-01
5.147069738476499623e-01,4.022116605291863878e-01,5.302272691410491179e-01
4.277179573287067105e-01,5.319671020907028591e-01,5.041057108186680624e-01
4.796453485759236690e-01,5.561159676417567477e-01,4.207596217045493359e-01
4.651022876379087845e-01,4.855275218231258072e-01,5.562858197513467218e-01
5.040759340900814456e-01,5.508816402178687843e-01,4.671628125980341051e-01
4.217067490633512605e-01,4.218481467915681793e-01,5.115146323539168094e-01
5.037278542458664132e-01,5.373549204595333695e-01,5.003765151454767635e-01
5.290203608023064108e-01,4.323730217852501112e-01,5.016352886388786292e-01
4.925365018569038966e-01,5.489636400854586151e-01,4.790850750244783351e-01
5.399641296871646734e-01,5.559673624865454356e-01,5.455249979174011665e-01
4.410089938242572338e-01,4.726524015134028756e-01,4.552280036393435703e-01
4.428375752594125303e-01,5.358414117175078761e-01,4.479941805993282733e-01
4.798110149225823795e-01,4.474532855129674247e-01,3.600268966901601919e-01
5.630620104510312141e-01,4.143146476064645811e-01,5.038224401213432513e-01
4.658855254612155328e-01,4.342283812165530499e-01,6.130462708226815938e-01
5.933180098417104587e-01,4.516980467035842661e-01,4.775627923054185930e-01
4.808960389679765579e-01,5.275247094573871642e-01,4.831090951788643006e-01
5.643278042111300463e-01,5.001269248408467538e-01,4.742827689914601574e-01
5.470422944852276759e-01,4.195024939032268030e-01,4.579738179526929298e-01
4.842671132114135801e-01,5.808109847090981992e-01,5.370546492298960972e-01
5.540763993363566620e-01,5.116649618033056734e-01,5.050466646232331103e-01
5.344746660665820048e-01,4.773259547994231355e-01,5.127584146747842242e-01
4.688663350118230100e-01,4.904739332813914388e-01,5.141886125370473959e-01
4.754507821420625446e-01,4.735230162070902526e-01,4.868853295309910623e-01
4.572544297995447260e-01,4.730055226265860724e-01,4.660786882216294003e-01
4.597826647510681597e-01,4.264614916141017398e-01,5.498845670212284542e-01
5.009933752096019655e-01,4.960493484196500380e-01,5.057076637220887516e-01
5.853159961436955605e-01,5.715575117701038321e-01,4.590792121076633925e-01
5.100239746407171371e-01,5.294750647529533616e-01,4.955121658975995547e-01
5.776029870037856506e-01,4.823192958507965256e-01,4.256745095067411833e-01
5.595523418254129133e-01,4.818811366508147231e-01,5.372394751229057075e-01
5.362004643470446030e-01,5.347328970452482899e-01,4.540758332168313149e-01
4.978366022969379912e-01,5.041282813849832234e-01,5.214623053949406506e-01
4.329857150170744462e-01,5.945312404448007682e-01,4.914185903835614488e-01
4.967889725385232214e-01,4.575811133972387257e-01,4.598742723898242568e-01
4.504230597949314685e-01,5.011043859754781282e-01,4.737490824799419076e-01
5.523500182382182766e-01,5.033285358940592369e-01,5.016342435064352623e-01
5.092248222755615394e-01,4.531597479956059882e-01,4.881019683836830270e-01
5.655051696135100503e-01,4.782764257513771322e-01,5.249914135180546726e-01
4.625812546213629584e-01,4.149641510392980126e-01,4.860236940216902668e-01
4.299303622313005446e-01,4.320030463188780367e-01,4.578989677633642508e-01
5.727473811409414806e-01,5.240557276193869018e-01,5.245022069992236746e-01
4.756445892794896602e-01,5.704961851972454312e-01,5.424043260752666740e-01
4.432662099911310327e-01,4.780036299036598546e-01,4.511393138882819343e-01
5.267231544039522317e-01,4.695456922111336806e-01,5.182626989318694921e-01
4.933496082233354563e-01,5.426487951349413530e-01,4.659483098015479996e-01
4.776875315069523675e-01,4.977248069673499975e-01,4.849778332551393234e-01
4.602235662727281462e-01,4.582753671294252928e-01,4.796449250405274700e-01
4.848193086099591986e-01,5.114586840760598774e-01,5.015456903741696282e-01
4.903049237969465679e-01,5.422120869710361779e-01,5.253086392813683947e-01
4.735268045631702560e-01,5.255069269944636634e-01,5.209906945730780059e-01
5.000861943155758826e-01,5.320356277764297648e-01,5.207679188180333041e-01
4.664018565355176893e-01,4.983790709071629910e-01,5.324927957597800354e-01
5.158698762581018782e-01,4.824908801457877261e-01,4.534939212082551574e-01
4.467231722366798441e-01,4.704468308302627855e-01,5.678998796506198321e-01
4.838450247394773807e-01,4.276597107679054321e-01,5.089456739788442707e-01
5.316930204755703215e-01,4.985233200687769761e-01,5.325226673797324173e-01
4.938851685632286159e-01,4.332801439182513703e-01,5.167724349196158862e-01
5.236104498460693035e-01,4.546374152918934985e-01,4.850380567592293413e-01
5.703559321604848575e-01,4.702299575847703750e-01,4.978834126240372360e-01
4.969133084167518533e-01,4.209347885197475270e-01,5.292363459257753977e-01
5.708256562098665832e-01,4.812366303767549036e-01,5.317227119096182841e-01
4.849009199623908195e-01,4.720613329900549826e-01,4.959761279202623552e-01
4.690328872710557429e-01,4.331474333695424228e-01,5.038162031476528524e-01
4.457849951195745342e-01,5.191077196247939618e-01,6.081315310700241561e-01
5.059668440572114845e-01,5.249492667238185861e-01,4.755503381570739263e-01
4.822852995582390667e-01,5.668195183802872128e-01,5.446838257844506259e-01
4.736673842246510446e-01,4.721430118729036951e-01,5.232377743077809562e-01
4.861906931355884920e-01,5.654888654326742925e-01,5.359284599424279927e-01
5.452413001353526578e-01,4.926789514789571833e-01,4.587778472386159212e-01
5.090037901580550805e-01,4.738068132670741894e-01,4.483384409512422009e-01
5.441990389366686554e-01,5.054870646278731838e-01,5.198116639435740316e-01
4.568394100325968155e-01,5.674358112018763611e-01,5.706182203112948326e-01
4.881884902633988332e-01,5.106483732631063033e-01,5.416093129860451993e-01
5.548622748303977392e-01,4.900023437612083255e-01,4.618503978554064360e-01
4.358030786415725832e-01,5.601583988364492450e-01,4.812444108305060642e-01
5.115893879523379928e-01,4.324415199492803730e-01,4.459408527429117863e-01
5.052483802589554651e-01,4.646474178069923133e-01,4.842720293493490979e-01
5.412517236484947203e-01,4.338016287859605691e-01,3.952615048525532915e-01
4.463826168264526939e-01,5.048837614573876698e-01,4.925389758088168368e-01
4.463557307442529987e-01,5.866936123843591311e-01,4.481854961211873545e-01
5.493969561048397399e-01,4.902557643984129521e-01,5.112276047025653414e-01
5.376085406284900614e-01,4.617546115109267824e-01,5.685194528357320198e-01
4.906525411298756079e-01,4.472100516275084314e-01,5.195118536564046208e-01
4.630671173403641538e-01,4.594578487253364596e-01,4.863002281650796177e-01
5.099893292089937580e-01,5.076470857286928817e-01,4.697594522104765469e-01
5.330996190179104754e-01,4.185177023414011765e-01,4.930279354453587226e-01
5.005662540310518160e-01,4.961516727937255733e-01,5.380975910335979995e-01
5.365448499422668105e-01,4.481833011400387923e-01,5.270956963406456808e-01
5.225319423995018475e-01,4.871649314389562280e-01,5.686312852864882084e-01
5.017592049314903990e-01,4.166589269472798507e-01,4.886268083981011867e-01
5.500892135350938794e-01,4.081048079084768632e-01,4.899573827113885560e-01
5.046835696313335395e-01,5.000067410600894657e-01,4.937777342272116066e-01
4.606616982160403606e-01,4.238852123667045113e-01,4.186102670571701934e-01
5.703627971759197557e-01,5.040096296736319426e-01,5.401080600050109926e-01
4.933990570203063419e-01,4.471807787811628021e-01,4.934635312999836598e-01
4.978843921977473830e-01,5.373190830660053985e-01,4.555048681802497113e-01
4.795928489169902220e-01,4.164163185509621168e-01,5.447397850328217217e-01
4.680119633171847537e-01,4.830125853539700698e-01,4.736828563212434617e-01
4.672924126155403868e-01,4.668974325379808832e-01,4.960411573518410666e-01
4.785607720543837984e-01,4.321017446273031637e-01,5.046832728822897574e-01
5.288466426788054342e-01,5.363995533272662986e-01,4.589780123838488879e-01
4.533207534842249586e-01,5.118778515090054437e-01,5.400493857421221344e-01
5.274274024058633881e-01,5.404898453905698785e-01,4.782905193993339799e-01
4.462923232762451842e-01,4.524329522498821698e-01,5.039315820772469756e-01
4.995180945848132215e-01,4.889716057257498250e-01,5.253319122069484148e-01
4.738741213123121576e-01,5.557620194501831090e-01,4.688715568210303219e-01
5.046509321685742622e-01,4.799229210521172018e-01,5.418149732788788420e-01
5.027384870453051047e-01,5.319201532371876651e-01,5.311066298660305218e-01
4.909855582027674581e-01,4.709163238256539041e-01,4.339797884651127591e-01
4.781440230857552653e-01,5.621787438482167554e-01,5.068697192143324370e-01
5.362267856988536252e-01,4.402956171976472044e-01,5.040262273755224953e-01
5.229685977815023978e-01,4.554679504044620852e-01,5.333122819668623116e-01
5.496113949101999463e-01,5.137692985638930843e-01,5.285694652475673161e-01
5.349189486938631388e-01,5.492926105448925345e-01,5.487735836707302584e-01
4.509819189382713311e-01,5.194511381528947869e-01,4.713193257698096161e-01
4.594021310284645554e-01,4.271281693131619428e-01,5.175700708917702064e-01
5.274823860938456788e-01,4.964149329547442591e-01,5.070312249752406686e-01
4.827607609429894198e-01,5.272036619813623703e-01,4.956485286930874534e-01
4.769912151803611944e-01,4.934574078628837235e-01,4.328368508372039680e-01
5.943282976689704400e-01,5.386964713756495771e-01,5.005374986646485835e-01
5.483003491973625909e-01,4.402344605448947901e-01,4.792825436710573261e-01
4.870130316063013831e-01,5.375672372831774570e-01,5.356544301813827014e-01
5.502878943849852655e-01,5.273084099498289712e-01,5.072774395141245174e-01
5.405626632139975962e-01,5.395151958671920989e-01,4.779562607176126021e-01
4.629556593683584742e-01,4.790577675602388785e-01,4.819473497746025181e-01
4.104034573034465172e-01,4.647533646650949812e-01,5.181584563244815422e-01
5.106714582728282270e-01,5.306844610121590478e-01,4.976250482417343690e-01
5.452333626166492309e-01,4.466778955553528663e-01,5.398623807452029855e-01
4.871521553552219941e-01,5.381322911137101928e-01,5.575207517311664418e-01
4.681271208720060306e-01,5.767356101032179438e-01,4.933569467565565581e-01
4.409394998890299178e-01,4.668528964841726636e-01,5.026964130917628282e-01
4.712140803339830986e-01,5.289895656366975230e-01,4.559047286286941891e-01
5.461500446031519740e-01,5.158088594342142841e-01,4.767207335814733216e-01
4.446817051620610695e-01,4.631815944921290340e-01,5.693452019184656043e-01
4.890906549470986908e-01,5.101356599121328328e-01,5.032203332366367299e-01
5.385330002992159137e-01,4.063720884744466688e-01,4.745790083588909414e-01
5.280587906632147055e-01,5.824310517417464750e-01,4.724807219293915006e-01
4.407491378645741475e-01,5.534403551227602414e-01,5.153940074143428252e-01
5.290354615775474389e-01,4.765558002240911639e-01,4.767163202848216930e-01
4.954998654477522635e-01,4.734358039208618196e-01,4.967591713482697457e-01
4.503313785952106629e-01,5.768571344369662901e-01,5.052632047947857030e-01
5.199856832976045284e-01,5.397671547439204520e-01,5.398375989905089822e-01
5.213043762653543078e-01,4.338524613263633478e-01,4.683998694485230763e-01
5.284660953489676016e-01,5.269359023127956343e-01,5.295770665286561041e-01
5.436650751993388209e-01,4.994392697357337707e-01,4.561045543445695349e-01
4.592706190880634920e-01,5.533244870974234342e-01,4.950194163301069317e-01
5.199657390362283360e-01,5.295214387256362842e-01,4.152880287529273073e-01
4.728220286444525522e-01,5.059319695763688784e-01,5.404377346002354754e-01
4.453918480149905434e-01,4.775326560490327776e-01,5.744797009333288962e-01
4.414592539718857345e-01,5.111052723679697651e-01,5.780854725079895839e-01
5.096387425216089007e-01,5.387505801907771508e-01,4.636293844488018068e-01
4.151532486665397981e-01,4.921578239608727645e-01,4.441012394401753771e-01
4.241392409985887402e-01,5.149122065120919078e-01,5.570397814019291127e-01
4.564223343178672732e-01,5.576131382803493075e-01,5.382671841376049926e-01
5.544817842321906332e-01,4.850010828765911053e-01,4.571024827382722533e-01
4.553029309886070797e-01,5.113238593250175601e-01,5.373412905883885315e-01
4.924685026400087429e-01,4.738364000995572423e-01,5.173580613643908865e-01
4.814152865055433828e-01,5.439259308351395150e-01,5.983437166434507626e-01
4.841647829710202244e-01,5.377342397592250745e-01,4.418345533172756689e-01
4.088223297937367828e-01,5.653883557846443031e-01,4.670544218950947735e-01
4.686498673007661320e-01,5.282893749571881958e-01,5.186586847336454031e-01
5.072800860129128564e-01,5.033188760279593277e-01,4.927924939551738270e-01
5.094132031582702114e-01,5.052107904708756925e-01,4.873815520109182065e-01
5.172309026639231311e-01,4.617703749184142725e-01,5.195589768120253416e-01
5.160672595126488682e-01,4.124519604622193802e-01,4.919205380244776604e-01
5.321111210445077511e-01,5.060338299515564353e-01,5.383364225473040721e-01
4.517282992876299197e-01,5.601174616065690559e-01,5.068338676163863799e-01
5.526523596460176657e-01,5.234042275650528930e-01,4.895823174659751365e-01
5.024974743263103116e-01,5.202661529243912675e-01,4.703872962710445860e-01
5.069066465596974158e-01,4.307548588690236491e-01,4.297448814183457144e-01
5.246903809107970051e-01,4.978569637240992662e-01,4.444057112438129509e-01
4.592497282238891532e-01,4.280764039720285630e-01,5.244651241945902376e-01
5.546843951878178691e-01,5.102483974811587997e-01,5.241811614735087943e-01
4.952007653192213033e-01,5.415863504014972740e-01,5.051760480113559604e-01
4.488654070935577667e-01,5.218246017513703539e-01,5.216886424709014092e-01
5.316026709035428510e-01,4.100980981050356133e-01,5.667564814413132979e-01
4.386373588188836048e-01,5.286242984963391844e-01,5.964396912770028036e-01
5.394153464661080033e-01,4.449323970290308128e-01,6.152873306557762323e-01
4.724414336249793123e-01,5.426782041124678102e-01,5.540016869086489271e-01
6.173453900153061946e-01,4.707144488258553916e-01,4.990823270661564059e-01
4.308976469805586018e-01,4.407503800020158291e-01,5.112812201241446752e-01
5.255074272786025569e-01,5.426620338120788922e-01,4.726102056027463583e-01
5.350094848320304797e-01,4.366078053554362515e-01,4.426976024586435354e-01
5.433273988425428858e-01,4.828461981022913463e-01,5.283875920291499773e-01
5.000839824557336000e-01,4.689591397256517857e-01,4.921884951594515667e-01
4.889976581825377644e-01,5.470021383350869293e-01,5.830093045864194190e-01
4.730536576598673992e-01,4.822287309924366272e-01,4.150361631011359465e-01
4.863785132609409478e-01,5.172556464606954396e-01,4.978685899137685889e-01
5.520014927921875758e-01,5.206661561539248639e-01,4.581444247997083496e-01
4.988651048376728792e-01,4.199182291760399921e-01,5.363740410974009443e-01
4.567446760542785977e-01,5.009903156987287609e-01,4.681903557780232594e-01
4.923031248557461215e-01,5.061780851903567857e-01,4.230870550697189425e-01
5.620381485252933240e-01,4.362845131799916176e-01,4.770160439387590712e-01
4.948945687684775940e-01,5.697323549904024231e-01,5.549720902976306158e-01
4.690029953015400488e-01,5.823987880472251133e-01,5.039736109938649511e-01
4.980231202567644844e-01,4.734842806817351479e-01,4.804780266691300317e-01
4.599874444081837876e-01,5.438800516742466895e-01,4.715211560059799356e-01
5.111223150244779134e-01,5.247488483592769315e-01,4.924382223820886750e-01
5.162278138480393963e-01,4.498712396719197204e-01,4.869690699371389542e-01
5.004680152945607530e-01,5.491955200939230286e-01,4.882807502044875791e-01
5.662767319232590024e-01,4.745683436756855111e-01,5.114355009417592690e-01
4.940912935608046119e-01,4.927364417281656639e-01,5.251259547533084771e-01
4.848156424588386804e-01,4.836969531536356448e-01,5.242732221089019262e-01
4.396418867898255756e-01,5.304040062287418422e-01,4.836723700356934663e-01
5.273000566097295616e-01,4.711615124033683433e-01,5.297847970873750256e-01
4.918602132970834040e-01,5.544034454712465365e-01,5.082297809464549898e-01
5.205092276480711710e-01,4.949540336840302368e-01,4.351410054640889591e-01
5.210219168727708849e-01,5.036727085548320382e-01,5.419604272649085619e-01
4.999073735967614618e-01,5.589429516302961698e-01,4.568477693685257246e-01
5.161202080295080874e-01,4.494146619770634232e-01,4.978860307418956355e-01
4.433942025487502825e-01,4.482386432492430073e-01,4.823682391245914802e-01
4.628561152897235909e-01,4.678385607915831468e-01,5.435709555746982558e-01
5.096607525090680602e-01,5.635093098328105565e-01,4.440755151730205186e-01
4.692500186891696567e-01,4.333902060498691089e-01,4.758869556000567824e-01
4.998213470465581176e-01,4.886809117870352659e-01,5.098925513820476985e-01
4.353633424637424199e-01,4.554520807281637884e-01,5.047872303857960929e-01
5.468910560749847827e-01,5.523518490532294267e-01,3.760195918951833027e-01
5.197476700549932271e-01,4.857142099361042575e-01,5.778310706001967834e-01
5.240561408516998254e-01,5.087646479088626661e-01,5.162968312620428435e-01
5.209703734910374751e-01,5.496479084210306176e-01,5.267613135957620596e-01
5.193302222167756055e-01,4.510152995130441433e-01,4.714017743544571815e-01
5.337909103374594011e-01,4.774776981723032887e-01,4.916530523425708399e-01
5.028776559451024752e-01,4.650601605243234182e-01,5.515964895495520937e-01
5.503756702286652924e-01,5.043062220339898927e-01,4.788566705866482143e-01
5.259998232474716318e-01,5.525710208793164213e-01,5.366025573244916913e-01
4.937122745631316034e-01,5.439109673113090571e-01,5.744554423384077291e-01
5.055556087769498275e-01,4.093990016017390876e-01,4.043430320073594375e-01
4.636324354985333906e-01,4.687306138355856189e-01,5.368389365173550365e-01
5.484656441242472535e-01,4.656882515658793964e-01,4.480891472748770865e-01
5.241920226610101707e-01,6.139209121998971952e-01,4.798523642907256970e-01
4.664229911640435100e-01,4.846669271961705494e-01,4.678029215983251499e-01
4.885920588674119713e-01,5.159373742283195341e-01,5.510147480943680121e-01
4.611417965217501913e-01,4.566148809788614371e-01,5.470558471530427846e-01
5.867425745759609068e-01,4.880996269961332956e-01,4.589725514766060388e-01
4.538853915764165525e-01,5.390695758227662671e-01,5.955174257032318508e-01
4.679629152423156468e-01,4.545111542436937047e-01,4.445449469430138301e-01
4.694619549623734733e-01,4.389285710373374561e-01,5.330854231500751217e-01
5.561081458838684766e-01,5.244938223877735339e-01,4.731101253179507138e-01
5.352414384747068432e-01,4.961168171537211902e-01,4.311610104814803113e-01
4.237941776710481556e-01,4.369930620555955159e-01,5.705844957728715139e-01
4.693010009868830434e-01,4.828279964631819743e-01,5.116414529731878602e-01
4.170550497746537966e-01,5.565662620858440324e-01,4.849587563443393257e-01
5.571661159795763263e-01,4.879919315154835346e-01,5.482483445771151320e-01
4.289137801752359036e-01,5.793509411618139593e-01,5.226217161474799866e-01
5.424235610357682758e-01,4.491585494850504068e-01,4.596430237556657916e-01
5.106944154911704503e-01,4.237821721817559006e-01,4.325441553261545335e-01
5.660805419888009782e-01,5.443866880251937435e-01,5.015905173899319891e-01
4.869475019775023616e-01,5.461912091451435192e-01,4.617741124993646751e-01
5.321823689118968526e-01,5.527355767371624484e-01,4.514357158025809613e-01
4.415507914655339983e-01,4.961165303317041642e-01,6.017392225079098989e-01
4.990145186266914945e-01,4.406272633235308045e-01,4.925069478599921058e-01
5.025004278634693788e-01,4.772919799254567996e-01,4.817563319561994906e-01
4.961777553226712767e-01,5.628397881819265924e-01,4.905942030495169526e-01
4.358187907990055954e-01,4.997179279152099141e-01,4.905925476953721942e-01
5.057313060068480137e-01,5.149979155947317366e-01,4.234170064887428087e-01
4.714409534868572171e-01,4.289392676841424779e-01,5.337100413068888161e-01
4.704546989095666487e-01,6.071119415416457166e-01,4.849719854097754856e-01
5.060490593339715959e-01,4.907260156878154866e-01,5.037007825242761916e-01
5.640251201073043230e-01,4.861203827718876269e-01,4.920454253014559520e-01
5.595589659158078932e-01,4.472888523280353912e-01,4.248280346357599657e-01
5.684626205165560497e-01,4.691742790364586968e-01,4.130865654041599444e-01
4.678695562291524945e-01,5.176861024643355513e-01,5.371186704122185018e-01
5.119954661639152249e-01,5.049083631784594406e-01,5.293502549621104114e-01
5.475801836851362792e-01,4.990402755110198152e-01,4.720740582825097009e-01
4.778335948386085441e-01,5.201665908933810201e-01,5.720438271064584024e-01
5.602028123644818836e-01,5.022476581918381422e-01,4.514387389613257473e-01
5.111938358329065624e-01,5.335239629178136767e-01,4.990893137919183986e-01
4.050909441950612533e-01,4.839402824593129759e-01,4.980225615218872859e-01
4.050059694159629520e-01,6.368851463575041505e-01,4.658831516682114260e-01
5.284352909894904915e-01,4.343805772830534595e-01,4.498284723058518231e-01
4.268976671135906731e-01,4.792479571890984613e-01,5.224496628166589440e-01
5.349898355015505480e-01,5.395350774769436253e-01,5.557850750729549372e-01
5.005419066416452178e-01,4.970128591979631194e-01,4.971639217366251029e-01
5.119707984817496449e-01,4.979825361262564254e-01,5.803299692073210503e-01
4.676298405251613222e-01,4.922263100288224447e-01,4.614794026361510593e-01
5.302481792537964145e-01,4.775849707428171387e-01,4.883296343645219251e-01
5.831616981987960413e-01,4.499053970763008947e-01,5.580786248879359146e-01
5.008163533105369769e-01,5.079099090764871427e-01,5.784536752342978039e-01
4.792378841997757544e-01,5.049780849555505213e-01,4.403284810324561982e-01
5.164205158720072131e-01,4.668405409533036843e-01,4.955110634931074176e-01
4.146137543464936126e-01,5.540814732614249838e-01,5.090939088302116611e-01
4.379664749904196297e-01,4.841550187506973302e-01,4.603973490570962279e-01
4.350777110061285757e-01,5.538471084744769346e-01,5.432470478317610318e-01
5.768033645554456745e-01,4.517748267462816658e-01,4.874834402221063789e-01
5.229194826696731413e-01,4.788628893979673951e-01,5.263770513034315979e-01
4.887141764953746859e-01,4.302614129960010136e-01,4.965768247175194050e-01
5.212563712044498976e-01,5.767309956421833306e-01,4.432007896703188954e-01
5.350205838432519068e-01,4.934321935380204804e-01,4.929914044905365222e-01
5.243058039346695232e-01,5.650032543882269609e-01,4.706191002916012001e-01
5.389198289126774233e-01,5.526530366668153116e-01,4.772864238461494435e-01
4.630359074699532118e-01,4.655517588195093315e-01,4.225654855510574404e-01
4.327254812711391896e-01,4.974651758650754374e-01,5.505500661662005024e-01
4.705927690947916409e-01,5.174246923039607093e-01,4.672662297212674121e-01
4.804659487144077312e-01,4.244376140741236703e-01,5.010614290102264334e-01
5.138051935903517053e-01,5.244466150105386859e-01,5.037089288964140543e-01
4.379258853136520635e-01,5.176355446858172948e-01,5.467549249130007061e-01
5.215590693836190672e-01,5.689534568537439885e-01,4.518146122883135996e-01
4.414360991127549427e-01,4.911700096453379127e-01,4.421828033369465949e-01
4.973879826776785307e-01,5.785862798394900697e-01,4.389150309861795107e-01
4.631274582478281387e-01,5.028571014371989722e-01,5.074048604687477759e-01
4.947173978764864977e-01,5.275213401080527387e-01,4.885806262024429136e-01
5.293453312319403858e-01,4.030641906618183667e-01,4.962145848702081974e-01
5.337266699662744918e-01,4.603418098085068633e-01,4.897230404788863178e-01
4.716687335472285469e-01,4.258822827890749174e-01,5.254702893727325463e-01
4.965292217038071998e-01,4.223237124429315981e-01,4.674154501212229307e-01
5.355854150257680635e-01,5.266742577293821448e-01,5.350109318972353645e-01
5.290233868001787965e-01,5.015898050946875353e-01,5.124839550469528771e-01
5.299056226211652509e-01,4.971072262354442883e-01,5.186018794804826415e-01
5.087183196788440664e-01,4.257784878023646580e-01,4.870850715049246382e-01
5.746307682406338602e-01,4.848008258635239653e-01,5.073442725058290304e-01
5.015430773934924646e-01,4.386006544379287275e-01,5.517466151101029226e-01
5.637087585611600948e-01,4.999209878877625690e-01,4.448721579695895101e-01
4.963329370612738489e-01,4.607311298289941681e-01,5.405713833199815577e-01
5.247915869610776385e-01,4.876080111195439382e-01,5.263814704634464103e-01
5.227383527443990596e-01,5.247883521182200584e-01,4.909092540424146445e-01
5.149821382202763864e-01,5.063854797761336846e-01,4.956043896487750677e-01
3.938922639719200647e-01,4.946418296963958072e-01,5.802305502417836047e-01
5.449015490667846739e-01,4.722453378816870440e-01,5.425534109500126378e-01
4.877751401604940584e-01,5.581096636846319958e-01,5.197854908988525091e-01
5.142387720936526518e-01,4.777873696403870385e-01,4.201625378280350875e-01
4.826688887587302079e-01,5.164645477451073052e-01,5.912273189683986407e-01
5.188489919395973260e-01,4.840627353461648963e-01,4.920579533210965306e-01
5.332988551641001385e-01,5.246312809673940869e-01,5.710767342333875618e-01
4.352443341520240150e-01,5.204493817955421209e-01,5.771859987395407954e-01
4.912564465868971553e-01,4.447962833018663242e-01,5.166975025683994138e-01
4.510693157639368289e-01,4.850361487243745606e-01,5.366248702386272607e-01
4.978406292890775187e-01,4.322744684491703904e-01,5.581463342462733568e-01
4.651073239650795332e-01,5.735549635354578735e-01,5.021381303024742282e-01
5.217614021904812827e-01,4.921827804842996978e-01,4.954058271340099906e-01
5.087813580252482648e-01,5.569896269756205998e-01,4.716239490573345128e-01
5.962238759737520377e-01,4.210037030277130055e-01,5.447350086693778515e-01
4.836074449699075406e-01,4.385812249016549091e-01,5.276711058526967202e-01
4.901250227032121765e-01,5.202420073311021520e-01,4.455587029228673113e-01
4.850392756509695480e-01,4.146257371993095076e-01,5.765541075440492325e-01
4.701692155863464451e-01,4.998242941361658587e-01,5.145089471094922429e-01
5.155507687640660253e-01,4.685056703498878261e-01,4.677417894678411181e-01
5.255077208020517698e-01,4.508038185743388770e-01,5.149687694830481499e-01
5.295104226051247087e-01,5.186802805254242532e-01,5.271520568780019289e-01
5.344757423330970258e-01,4.986626242396959285e-01,4.786144719024724159e-01
5.161163051148099923e-01,5.616490605032463668e-01,5.266283802253952651e-01
5.289679054018843196e-01,5.030369331165479574e-01,4.988313166308396829e-01
5.577971518525562944e-01,4.761915738729037284e-01,5.731456045591207804e-01
5.047500192102568617e-01,4.663055341829097644e-01,4.782561276412237716e-01
4.495818114631602858e-01,5.133392135332294215e-01,4.690392518765427177e-01
4.727611036462546767e-01,4.373845246350122618e-01,5.180459074519428997e-01
5.029373109346126913e-01,5.095824272644592368e-01,4.446898595606464388e-01
5.926950017928529491e-01,5.068035496063447720e-01,5.173294795465086526e-01
5.644853535043036219e-01,4.954240508935153775e-01,5.138515270338316343e-01
5.047890928894318563e-01,5.736049551521363865e-01,5.231947825587442980e-01
4.502866774324470467e-01,4.935180040173767768e-01,4.638536208830292273e-01
5.183046328512321832e-01,4.674404775879563156e-01,4.656860064149578871e-01
5.242849582628742455e-01,4.832638565340434678e-01,5.176883198207287151e-01
5.281868263429787547e-01,4.352016570081577718e-01,4.958566139190234701e-01
4.625582205642930211e-01,5.116826209994161934e-01,4.353427624187205525e-01
4.360283100825800284e-01,4.934709003005099959e-01,5.037467302358223931e-01
5.819258578846771002e-01,4.853965897050265821e-01,4.755438952847007017e-01
5.570886291913319521e-01,4.842559376507350466e-01,5.190558489665539899e-01
5.318040009263862444e-01,4.639387468744024523e-01,5.282536304807102789e-01
5.552914538250180998e-01,5.583541644529441683e-01,4.942453986585484405e-01
5.084521429883183119e-01,4.541551219340029810e-01,3.926632287083933193e-01
4.760105242083615962e-01,4.695811693034286360e-01,5.069657837886087925e-01
3.456428035671783583e-01,4.555562652484647090e-01,4.586354027714120707e-01
4.790987006370222012e-01,5.086170873411649529e-01,4.965076844028072367e-01
4.640383997677421379e-01,5.017882115833128820e-01,4.763522657208055788e-01
4.757454240260567402e-01,4.972947817212779453e-01,5.741015746021027599e-01
4.508707396395080780e-01,5.437218524037350509e-01,5.174789401195389882e-01
4.975554052760365331e-01,5.002155710536815292e-01,5.504209417949035288e-01
5.535286675407571355e-01,5.488397536407122468e-01,6.051943085907258713e-01
5.184494423174025313e-01,5.087913834128456880e-01,5.282226923138740871e-01
4.428279292152698665e-01,5.208061582264609246e-01,4.704029644636048002e-01
5.224872306121834953e-01,4.622376258266714388e-01,4.806238714096812137e-01
4.822496578040129656e-01,5.546920193044343472e-01,5.614946238122452415e-01
5.206435157622776311e-01,5.547906544452516631e-01,4.395727156004477498e-01
4.833301929060123681e-01,4.756934459315403374e-01,5.577297063168366043e-01
5.254027720694633974e-01,5.459388980032986449e-01,4.833745066793186385e-01
4.907230864043424234e-01,5.603376885632525006e-01,5.034377852586285895e-01
4.689368663500711465e-01,4.859553804470039262e-01,4.730312641276832042e-01
5.337515807405344148e-01,5.491915683560568695e-01,4.924280176204681170e-01
5.015643928420346898e-01,5.328612089576639788e-01,4.414084470230196788e-01
4.439052321264275180e-01,4.708333694097449618e-01,4.833875406558344467e-01
4.717638239730070349e-01,5.401053581286989758e-01,5.153225121606201942e-01
5.346409408532731833e-01,4.874283860769827448e-01,4.784820155916932882e-01
4.796187251125691997e-01,4.970540272221018463e-01,5.344956691487628975e-01
4.541292095772646031e-01,4.958964414768116113e-01,5.622518843298949243e-01
5.802190093555105177e-01,4.979185562271867815e-01,4.864504866436046848e-01
5.058019471011809820e-01,4.630797237141520695e-01,4.835623600608975892e-01
5.442243453842078305e-01,4.738872421092880094e-01,4.417219210872392887e-01
5.401281960036439234e-01,5.913515302061523871e-01,5.346439002431236931e-01
5.296483396201387972e-01,5.595532857916047931e-01,4.729115343976080799e-01
4.739596477457052592e-01,5.261338232150728489e-01,5.329674087945929228e-01
5.369987782631759909e-01,5.288570993288830291e-01,4.799830328213312569e-01
5.529368782329904253e-01,5.231850736312054773e-01,4.916363006057618557e-01
6.512502108952135105e-01,5.383760406525002207e-01,5.237974935389227982e-01
4.635081116787867495e-01,5.004948528184524070e-01,4.858050299721095033e-01
4.592040192839382806e-01,4.321891368060380434e-01,4.908715022641531034e-01
5.359544595194711825e-01,5.324412422155138103e-01,5.297022601545627873e-01
5.546300923112373882e-01,5.576768715104096774e-01,5.360224657636938339e-01
4.356644654294244412e-01,5.249694466661718462e-01,5.040641706092270358e-01
4.705447898443983479e-01,4.957335230847235152e-01,4.889996625465451996e-01
4.981290403723199756e-01,4.907591896583075042e-01,5.504208681671218795e-01
4.923331814718484578e-01,4.949254119211333180e-01,4.722681127088348974e-01
5.183389382084743202e-01,5.125165826323114793e-01,5.147336075963351298e-01
4.980116585795660855e-01,5.228732836425973307e-01,4.554162183497861283e-01
5.068639853330259015e-01,4.122909112689417954e-01,5.120215232965562580e-01
5.235590571886139521e-01,4.505816203556117783e-01,4.415462463616506295e-01
4.973715182678604685e-01,5.241750530853015455e-01,4.670814188372278131e-01
5.376960395653753721e-01,5.044355370463249333e-01,5.645192480717624584e-01
5.399004849490771640e-01,4.784643389700675709e-01,4.639482128214011958e-01
4.795395020610295767e-01,5.438658498772970251e-01,5.019900147961117165e-01
4.679813873563336002e-01,5.005358412773824872e-01,5.321912400720121283e-01
4.288559866580878843e-01,5.358905495935162300e-01,4.936785503178640067e-01
5.452231950900920943e-01,5.138969099880684732e-01,6.114056824443414584e-01
5.715077247690258933e-01,5.588413400834097988e-01,4.900339860814071913e-01
5.136647700276923967e-01,4.133132271619857634e-01,4.900165575480659452e-01
4.562133557403585948e-01,4.278875556730680207e-01,5.004963150585598486e-01
6.025624996701267611e-01,5.105862552053834769e-01,4.591790034094694883e-01
4.644874935198469168e-01,4.930572581312354652e-01,4.515354673223269111e-01
4.974185553318000164e-01,4.710263372425830264e-01,4.331502316897746230e-01
4.789145572601040679e-01,4.721181099968607686e-01,5.312367072928312339e-01
5.359363978500933934e-01,4.883549213982677495e-01,4.157838826024857215e-01
5.480012834086241957e-01,5.555289990018066337e-01,5.126122779816969510e-01
4.825136214596784656e-01,4.472298033484795043e-01,5.304066006369305697e-01
5.156568041369318234e-01,4.727097673792600152e-01,4.309192193560842377e-01
5.314085919039510664e-01,4.790567352221629105e-01,3.984278334940965505e-01
5.181305816783505769e-01,5.392355242823966277e-01,4.683640394642575866e-01
4.794819379568480144e-01,5.827242363057640873e-01,4.403983394927576955e-01
5.566750480038048510e-01,5.463985894506878660e-01,4.801126203639451973e-01
4.669510313780512734e-01,4.320178353234342405e-01,4.958018438281853735e-01
4.219576215973995237e-01,4.759793778446831380e-01,5.960290262109338988e-01
4.389689198983858787e-01,4.851052570592194746e-01,4.902583198935460684e-01
5.156414999326833781e-01,5.333127187914131762e-01,5.728449507113481109e-01
5.308642505863852001e-01,5.628609464708540511e-01,5.406833073288147551e-01
5.076812961256146339e-01,5.383550595949467832e-01,4.729400012717460133e-01
4.802001607584173715e-01,4.753297568548506824e-01,4.713359898403147730e-01
4.433103717173290104e-01,5.220677793388509569e-01,4.727061603436780723e-01
5.608093933637791073e-01,5.113988582653105075e-01,5.043310318135181269e-01
4.092107716834687547e-01,4.007841581421574539e-01,5.254359029803348236e-01
5.334356107279607517e-01,4.364281010664169957e-01,4.735886837431920182e-01
4.925316091680425057e-01,5.473443887752146297e-01,4.264869229572934572e-01
4.588591405882473939e-01,5.410117279157202752e-01,4.981929115272860087e-01
5.956377550786493558e-01,5.307213689596776973e-01,5.223507222253318538e-01
5.374118137734842371e-01,5.314765993824518420e-01,4.918074614377239695e-01
4.757982112311743284e-01,5.329032016052096532e-01,5.198573962769900136e-01
5.376354148302582292e-01,5.926683132502965634e-01,4.846808023907582808e-01
4.935789793878086473e-01,5.213579870606354083e-01,5.048446665887615925e-01
5.506208471989291198e-01,4.805330007733679132e-01,4.273103468101806524e-01
5.398605289847645539e-01,5.134404817368900531e-01,4.492637379000955500e-01
5.545699494537730256e-01,4.310928178993321813e-01,5.448774899039622310e-01
5.346815466373066039e-01,5.414125891714463013e-01,5.451130710182978678e-01
5.411370311818871626e-01,5.204270223934981399e-01,4.382000060142525188e-01
5.397300506575483103e-01,5.057415823237172425e-01,4.608986384424854643e-01
5.012431319646809547e-01,5.406988246774223628e-01,5.474946127934343654e-01
4.816184061641041181e-01,5.390323127804086401e-01,4.736912813361794927e-01
4.729561303306648590e-01,5.182855510615257399e-01,5.117180768462107343e-01
4.761788230864319460e-01,4.614507655210312587e-01,5.074620212788422124e-01
4.905230806015313805e-01,4.645378527384133038e-01,5.546162907291911637e-01
5.319391849915220405e-01,5.601407729404154212e-01,4.454508369325102524e-01
4.870278434361181574e-01,5.102508537104155639e-01,5.276264423521536129e-01
4.857898054214454531e-01,4.903305153338889943e-01,5.420807257545625646e-01
4.803206266727253482e-01,4.988962304789320568e-01,5.011961367602962847e-01
4.570904527290062247e-01,5.452927409685985882e-01,5.575246149480723723e-01
5.261830161672568229e-01,4.596439237253804877e-01,4.994785184131606548e-01
4.804267610568637159e-01,4.599661228431028981e-01,4.648868372086807366e-01
4.993028995283194660e-01,4.999955780573795416e-01,5.307205738226462577e-01
5.613353501063246265e-01,4.945062371269343116e-01,4.452274227589675393e-01
5.682866980559775349e-01,5.121033800070313724e-01,4.222703162419884637e-01
4.935984286859585457e-01,4.354945371538911369e-01,4.887841209719051006e-01
4.929480123211525955e-01,4.741257229938236617e-01,5.830406805775051327e-01
5.005371281159217700e-01,5.485049812011885129e-01,5.580243764556418462e-01
5.009446278824086773e-01,4.767709423786149481e-01,4.937242193299642423e-01
4.789266627664484632e-01,4.965933225881075108e-01,5.531161245466655885e-01
4.732701847085301061e-01,5.397066636840104348e-01,5.001191147721826269e-01
5.433737750972523761e-01,4.938493533816361025e-01,5.364718052605002008e-01
5.227202012189756664e-01,5.959545798532244198e-01,5.166734956013634417e-01
4.508950728487788329e-01,4.934042151633062923e-01,5.388934876549575925e-01
4.580972009434811643e-01,5.514012631099203254e-01,4.768745801986836730e-01
5.175808685455252078e-01,5.120920324500097820e-01,5.129267997537776402e-01
4.961525828402973404e-01,4.689592024990143493e-01,5.030826675786224111e-01
5.564265200764164643e-01,5.427635835878977799e-01,4.622998460342132576e-01
5.393025328453681100e-01,4.561610417968878228e-01,4.819628479115430908e-01
4.306831978597548960e-01,4.850964255034105888e-01,4.496102535243819420e-01
4.763553801729104586e-01,4.600641260074889161e-01,4.583596477608227748e-01
4.976178071262082891e-01,5.492289536403867078e-01,4.918513718453647043e-01
4.786975014171567788e-01,4.543113398974762407e-01,4.414124292801079319e-01
5.871573545151248519e-01,4.658148603620329009e-01,4.637081562503272414e-01
5.313040393429439012e-01,4.797551123531113015e-01,5.411815387163473323e-01
4.845629060982698522e-01,5.571264904151165265e-01,6.230700692383044359e-01
3.560159640652259538e-01,4.798571530340332014e-01,5.434688550168572663e-01
4.919474110509161613e-01,4.764453442681304551e-01,4.751860268753618777e-01
4.915958606668758835e-01,5.828008459285293208e-01,4.588631906514674674e-01
5.838724002317011719e-01,5.390138364500681734e-01,5.117358214396596772e-01
5.346464445375070929e-01,4.693326935236998287e-01,4.947782210235832645e-01
4.676693653752840851e-01,5.375540778592415858e-01,4.931229352472246696e-01
5.050355650564382071e-01,5.174439678843140156e-01,5.216823228278286706e-01
5.639745798896835804e-01,5.553703849725361019e-01,5.417941381354721697e-01
5.190263622045323544e-01,5.293903694921930914e-01,5.584445546461779264e-01
4.786900960094626623e-01,5.564648770921494236e-01,4.965406281764994656e-01
5.093090445025386659e-01,5.565005816153333340e-01,4.928385932067587127e-01
4.905877102528526379e-01,5.041667737090282930e-01,5.397774593917077368e-01
5.194779955558018747e-01,4.500183136839106535e-01,4.355319047927493359e-01
5.381157025288912932e-01,5.282284440180365914e-01,5.216443102832424294e-01
5.611532270160810576e-01,4.527051704967264834e-01,5.273266809289689494e-01
5.051140203732537026e-01,4.792059015857473847e-01,4.836906734316883116e-01
5.235709985907548436e-01,5.827677818148327971e-01,5.368543922543757008e-01
4.949378120989424423e-01,4.603836439670229708e-01,5.363062326219926179e-01
5.291227559275438752e-01,5.019444488026242324e-01,4.834123408887066597e-01
5.141569830876610014e-01,5.015536741689026190e-01,5.287545111001130671e-01
5.084233813133322011e-01,4.638796380079655557e-01,5.023717167207967238e-01
5.431970613032870432e-01,4.490506710509800659e-01,5.064322712816982097e-01
4.705898887089228211e-01,5.033118743264582973e-01,5.566087948822078246e-01
5.492874923835880940e-01,4.006000633493414509e-01,5.229680205715921959e-01
4.959455993994287826e-01,5.194715052894292029e-01,4.879272691525717298e-01
4.884529169778368263e-01,4.718146194582705788e-01,5.305525777606210358e-01
4.874031066491611996e-01,4.643367019330222889e-01,4.880509736327540149e-01
6.294623405396777560e-01,5.081437737328813320e-01,5.552002339372051898e-01
4.771671794883879381e-01,4.550144077257605169e-01,5.373684447853318558e-01
4.774627272760324503e-01,5.291654491723676301e-01,5.257264583614181808e-01
4.985764115892487025e-01,4.887222207219248937e-01,5.029164737627918047e-01
4.112340758099069515e-01,4.945689166028653383e-01,5.068811018137950875e-01
5.676280754025297970e-01,5.076387956080583574e-01,5.089746622252107056e-01
5.721984765467355016e-01,5.095164386969643910e-01,5.547484247242385758e-01
4.451183779096360982e-01,4.156491960678366238e-01,5.558848577207964325e-01
4.689984797623270030e-01,4.874725252227263272e-01,4.859413764306332872e-01
5.007986295866725390e-01,4.904616452446934893e-01,4.690990772612108062e-01
4.947076839597122078e-01,5.082757698250952583e-01,5.317513913998087594e-01
5.437766388204547940e-01,4.704775896011188507e-01,5.460548896529558993e-01
5.129436327281812202e-01,5.075154375484275393e-01,4.462792882826752683e-01
5.359552269017184845e-01,4.150141335847176705e-01,5.094074312662548731e-01
4.966700255358509342e-01,5.494912834956067194e-01,5.443927182628257588e-01
4.999574800699230215e-01,4.857842551355628369e-01,5.367073284366150610e-01
4.843783433337803812e-01,5.047295703381375898e-01,4.638210581595191839e-01
5.285372859443896454e-01,5.010895405090857180e-01,5.134689677552976006e-01
5.076412399816399024e-01,5.279578069364182502e-01,5.560749057149632080e-01
5.278954299480143053e-01,4.955953358588105484e-01,4.818420807779922876e-01
5.174583227502036475e-01,5.448419083074556024e-01,4.515907504901047198e-01
4.435933606249184424e-01,4.063211226643775875e-01,4.508947790106434539e-01
5.244005426350627497e-01,5.423028574231654186e-01,5.322112773527939433e-01
4.289583006871258153e-01,5.242692330636172793e-01,5.013911031806520535e-01
4.750065270959509256e-01,4.424422992168407509e-01,4.762996075733028079e-01
4.734538218010840849e-01,4.940811507204918018e-01,5.303103872422660903e-01
5.016925170131560918e-01,5.133415918433517078e-01,4.521075572850962176e-01
5.431771402848825092e-01,4.725188130856141089e-01,4.793922885130761369e-01
4.832913387584351073e-01,4.886123690780024842e-01,4.622111025646293281e-01
5.356740963967145941e-01,5.450573310736080979e-01,5.167596136575531851e-01
5.110312150309641588e-01,5.150123050572003036e-01,4.957711923174774049e-01
4.711498391689568077e-01,4.566649784689935654e-01,5.374818183353116119e-01
4.802018927291493156e-01,5.617765666981359152e-01,5.498389533138372531e-01
5.061668135891217446e-01,4.507010374207675585e-01,4.232016981681468448e-01
5.569445832652505368e-01,5.078555317029120886e-01,4.418662808944537890e-01
5.170552302207287454e-01,5.307493930827378303e-01,4.517169201426513014e-01
4.953887539350252389e-01,4.747306619515850312e-01,5.875873817114913855e-01
4.562500319057522513e-01,4.597975176500114780e-01,5.333429284397933623e-01
4.943243829517313670e-01,4.550624255611476210e-01,5.009356097651777029e-01
5.118094252196558891e-01,4.653684487929704017e-01,4.626282842480605173e-01
5.249311056864212066e-01,5.472465842047790074e-01,5.370281343869153234e-01
5.091081207024199529e-01,5.189207171970937615e-01,4.853209338449241406e-01
4.991112259304950616e-01,5.124454472701001073e-01,4.988042978178433007e-01
5.087728601945901152e-01,5.329654270624951673e-01,5.259903306055535577e-01
5.510588711991378785e-01,4.602166420868110119e-01,4.523878073712125358e-01
5.794718797190818727e-01,5.452737264334535094e-01,5.753851948386082826e-01
4.802456051852482810e-01,5.827852680347110903e-01,4.924732990041310599e-01
5.165690437220834541e-01,4.934373269675706442e-01,4.682261040054992440e-01
5.197801614234067724e-01,4.758078333777751578e-01,4.588991958108453173e-01
5.482768612573973854e-01,5.062237164638757614e-01,4.751014214482261466e-01
4.992662379503561842e-01,5.488905395694332334e-01,4.784990451198266048e-01
5.518904454262167913e-01,4.771995453030480894e-01,4.706055989074390267e-01
4.720500979391937801e-01,4.926092502335796541e-01,5.434271882519328134e-01
5.143591475125941503e-01,5.047670105370551941e-01,4.713647279672637525e-01
5.509632830358714983e-01,5.276225985593772094e-01,4.922462175481859825e-01
4.845352949512096719e-01,5.335271918660420276e-01,5.342346032310577586e-01
4.936739361211044952e-01,4.882042675457173853e-01,4.739668626062665813e-01
5.059239333581303510e-01,4.879293487284150910e-01,4.721573658702143406e-01
5.732058516050348995e-01,5.590196735648307325e-01,4.948850723329618062e-01
4.953936868128355764e-01,4.738363361084292902e-01,5.195408045971576794e-01
5.894366705112394911e-01,4.642003272790539148e-01,4.600608724024995433e-01
4.722426490645595387e-01,5.869917345785601315e-01,4.640822303825998807e-01
4.690105238308217572e-01,4.572240857424846316e-01,5.711859199311297708e-01
5.632063964175094695e-01,5.419609904487298069e-01,5.325265492454204219e-01
5.220942326346232898e-01,4.851844852619204840e-01,5.512164762620218594e-01
5.213692462779641046e-01,5.350799653026125924e-01,4.833599386032920719e-01
5.672736245229851315e-01,5.480216923632451609e-01,4.924134398880306573e-01
5.239154567236905535e-01,5.911628524863729028e-01,4.782410028908559152e-01
4.357754422529874216e-01,4.891180306671097933e-01,5.649680482464682907e-01
5.406480425959079295e-01,4.773361082915110742e-01,5.034516444523399192e-01
5.306485141197140321e-01,4.239256136240031614e-01,5.405460345761148311e-01
4.513373380025486603e-01,4.546584764969558989e-01,5.370087749219090156e-01
4.593025958579814993e-01,4.941433108553640596e-01,5.265861132470075479e-01
5.251299131106168527e-01,5.206261030494920838e-01,5.307318439674887367e-01
4.691651863698521607e-01,5.125897137854394936e-01,5.450209784082701292e-01
5.169778119810669592e-01,4.538710863771079351e-01,5.448212990328310523e-01
4.534768900226728294e-01,5.295352284969256917e-01,4.844428735522627871e-01
5.082002384235079218e-01,4.627446887358889760e-01,5.056194507313765962e-01
4.866770219137768194e-01,5.350145425465663296e-01,4.879518361070626087e-01
4.202745666718985529e-01,5.325267743629309436e-01,4.256364382841252847e-01
4.527238528572702370e-01,5.335703999946685983e-01,4.541683814097387528e-01
5.349974056502275754e-01,5.122236065456129417e-01,4.873445870505037081e-01
5.571670280901102057e-01,5.400852045094838294e-01,5.162635140315836590e-01
5.426873874422680766e-01,4.607569863637551721e-01,5.351697513686818342e-01
4.899208953780745945e-01,4.295392584407883851e-01,5.368294119526710872e-01
4.869396949028800270e-01,5.013137141292338672e-01,4.635137903393761194e-01
5.152742725204745300e-01,5.274769982527031109e-01,5.070445224484831925e-01
5.557889678704472924e-01,5.255442554856774029e-01,4.530294620953121409e-01
5.436321951525249219e-01,4.961343554834041769e-01,3.987705559871744243e-01
4.686446069116456670e-01,6.009122059890066314e-01,5.029568656601063337e-01
5.091943755407800642e-01,4.681210468941348068e-01,5.208285244480616027e-01
5.084186026977191020e-01,4.914595054596914703e-01,4.541787963202130185e-01
4.841657761469839727e-01,5.332464546153444784e-01,5.347971230667734055e-01
5.271762752184551148e-01,5.904486073598279594e-01,4.873571188743258120e-01
4.694408027804737871e-01,4.338780264628665506e-01,4.834415986940831522e-01
4.396383012841676430e-01,4.884275226678539972e-01,4.560443761702533405e-01
5.117505213661724950e-01,4.834916080928360338e-01,5.629982564892268559e-01
5.192405883666127986e-01,5.518579903615635773e-01,5.003489820191558968e-01
5.274075021987985057e-01,4.594892314322969185e-01,4.163794760011646501e-01
4.590881854196902645e-01,5.342639786380594114e-01,4.735676468291093455e-01
4.300256296826904245e-01,4.794532108675891857e-01,5.182196622075153636e-01
5.339353990960605811e-01,4.975899779263197598e-01,4.315687673116115897e-01
5.024555488311255314e-01,4.562348235515421568e-01,5.380063664203988960e-01
5.440463950405176607e-01,5.038153745491346092e-01,4.308196114204587701e-01
4.507446171373867272e-01,4.631036775958277674e-01,4.599758114986243207e-01
4.615473520961851928e-01,4.810080248978902961e-01,5.216358235383824482e-01
5.047805358624343208e-01,5.231205572195942732e-01,5.105681834170616717e-01
4.910596250440391608e-01,5.787890117250096278e-01,4.809310273444136752e-01
3.858661675110486300e-01,4.985340875664163729e-01,5.128249330655882954e-01
5.098765127743002390e-01,5.093660444066275828e-01,4.742561911760487803e-01
5.700148749556637195e-01,5.094180924399570598e-01,6.328183245129562762e-01
5.214158564540832819e-01,5.716030210080953466e-01,4.685118269535998858e-01
4.549945940814038581e-01,4.675767453957984099e-01,4.705100990806589945e-01
5.837328998926160084e-01,5.410683515855809755e-01,4.896922985337729961e-01
4.735453770500379633e-01,5.390021367096771154e-01,5.284039514290935768e-01
4.449889496439144443e-01,5.157557258123134369e-01,4.182083213088231832e-01
5.521462761881560377e-01,4.788674084173427659e-01,4.556040069452236274e-01
5.348835185263506320e-01,4.746085526299114732e-01,5.107674810162549095e-01
5.544758628892825225e-01,5.181765464468167659e-01,5.219876888256153036e-01
4.904311631492236923e-01,4.664806785363895814e-01,5.226378472116594009e-01
5.113825632697182044e-01,5.380403961997279882e-01,5.498314528802132894e-01
4.091857387388612155e-01,5.787414802511615664e-01,4.958675765477879027e-01
5.100934247901616203e-01,5.663927744968199063e-01,4.783528956684766631e-01
5.393451978928059942e-01,5.272191579448797238e-01,5.902795967274410138e-01
4.884006246415144581e-01,5.430338455888166216e-01,4.627480056714424750e-01
4.882839831163451882e-01,5.240406745685559642e-01,5.650474354419207090e-01
5.092577002673532860e-01,4.398679641643752913e-01,4.932825709247929402e-01
5.333755765535735938e-01,4.503178333746798434e-01,4.746964824001892458e-01
5.682428361321211208e-01,5.379650359739304166e-01,4.882988653624298903e-01
4.538634598912728024e-01,4.875206775990660324e-01,4.733230023847473933e-01
5.269711926554705439e-01,5.613786421273063709e-01,4.523629074247237369e-01
5.172725026879816390e-01,5.314618653773802714e-01,5.288501831343018766e-01
4.399985099633440533e-01,5.271538890753424411e-01,5.247001584531841845e-01
5.066150391825048338e-01,4.992702584343067795e-01,5.235385692118509349e-01
5.473002930287010903e-01,5.452200587468676307e-01,4.784976899484064683e-01
5.223509246916419047e-01,5.291545953524006141e-01,5.762932752906624323e-01
4.539576927661769790e-01,4.589067873674840259e-01,5.037605079290942145e-01
5.008167375604444249e-01,4.523503877372906379e-01,5.184853619985014817e-01
5.368433102304160931e-01,5.858856313107817515e-01,5.665955170494396675e-01
5.072916974312207117e-01,5.137704612271997151e-01,4.821976151158891000e-01
5.843345654964288149e-01,5.347900683296176183e-01,4.620340636338624574e-01
4.611827510711987155e-01,4.919633247983641322e-01,4.977395723504255409e-01
4.978515179969396631e-01,5.175406129081308038e-01,5.085975483699545219e-01
4.855439955231329319e-01,5.206259675772296758e-01,6.049932945854094024e-01
5.402753820110672844e-01,4.158856098722963357e-01,5.190833411422699495e-01
5.094090203780681225e-01,5.664427946940240322e-01,5.057028577255815449e-01
4.865040270611382667e-01,5.177355123547379145e-01,4.548792292492152001e-01
4.703894967503746694e-01,5.630147120202609878e-01,4.768463172121557014e-01
5.421348567285154685e-01,4.643895657635631613e-01,4.799525822517591855e-01
4.496635447445203049e-01,5.242664924905353629e-01,5.208633023070066148e-01
4.996764004461931030e-01,3.801231719573944789e-01,5.133683422248813688e-01
4.911245148118412729e-01,5.329669166389844337e-01,4.472562718519004776e-01
5.092673241435136111e-01,4.995282124458365614e-01,5.769584481819065580e-01
5.033033308006551465e-01,4.784049164352695560e-01,4.569856242375918143e-01
4.556960889029171846e-01,5.586053442481878628e-01,5.087395674395163159e-01
4.887342248186865024e-01,4.734986006969040262e-01,5.832668870176475062e-01
4.943270577729159676e-01,4.737935633873094909e-01,4.472125229993222373e-01
6.052136095586423403e-01,5.435138325159020178e-01,5.117359510332772921e-01
5.111002850088028904e-01,4.969500162491518047e-01,4.669793258832196647e-01
4.927612365055158428e-01,5.319593536838166381e-01,5.265348328095990071e-01
4.419598445811340204e-01,5.352153966382166006e-01,4.273707916802442219e-01
4.431481700121235323e-01,4.466450114615704292e-01,5.446450436606118384e-01
5.319379095641428856e-01,5.505360096769730260e-01,4.887794255395011556e-01
4.927987661435981881e-01,4.817706731978915746e-01,5.189451604651245109e-01
5.052508650221431141e-01,4.789564364835412480e-01,5.596596465166318035e-01
5.156760109229884259e-01,4.665343771529171790e-01,5.294707891770228381e-01
5.182960416799202719e-01,4.917644173367902716e-01,4.912219945505541530e-01
5.361448455340196428e-01,5.370395096270018653e-01,5.116746575247985707e-01
4.800954930324009551e-01,4.929069242681892726e-01,4.741203464642537169e-01
4.844827648049929714e-01,5.386909540870407076e-01,5.006131966901614661e-01
4.537974454305844230e-01,4.725496667563055531e-01,4.828213778738751349e-01
5.119901339812460428e-01,4.682856508557996511e-01,4.971368183786894490e-01
5.557681903951601221e-01,4.123560842344614064e-01,5.386886318536603380e-01
4.770974302657729482e-01,5.607722181041572274e-01,4.353343311851690656e-01
5.223493449958489521e-01,4.599086696815081754e-01,4.872791299469472204e-01
4.554684284915263004e-01,5.218506491774352885e-01,5.319290826135495420e-01
4.793491431387429946e-01,5.399696832019587056e-01,5.125215104262896837e-01
4.781420038677355877e-01,5.213728204806304944e-01,4.777981743039877438e-01
5.585310102220256701e-01,5.453161088809124202e-01,5.192148144199413284e-01
4.390875208709872912e-01,4.930893544180289245e-01,4.694994886035864790e-01
4.864911570698647325e-01,4.926181391228154349e-01,4.949754195265432810e-01
4.519795613809406976e-01,5.157347866913034595e-01,5.342146164668292174e-01
5.225149523957912656e-01,4.898968793219607987e-01,4.721716041695950272e-01
5.610833608254978122e-01,4.562387058649230442e-01,4.775944175023809080e-01
5.426518237839704772e-01,5.005566473630242985e-01,5.255284092569024734e-01
5.821594354045602770e-01,5.565577954833836882e-01,5.425310062396443422e-01
5.099366799235809378e-01,5.493514201276756825e-01,3.814817985226319208e-01
5.241872149494495314e-01,4.744950176683311871e-01,5.267834166322375999e-01
5.482685906857700520e-01,4.479063574355472421e-01,4.652056593347773106e-01
4.930216839701846987e-01,5.054363694606129886e-01,4.764823204318331396e-01
5.170087847052929897e-01,5.052338453573419486e-01,4.601547916011651806e-01
4.597271689834089847e-01,5.022615051057823798e-01,4.796846102301745018e-01
5.340537997017315019e-01,4.885943208771095780e-01,4.970428173715871201e-01
4.780487331347328395e-01,5.364438530410307049e-01,4.203512193126937024e-01
5.200921896631037766e-01,4.217483482665409511e-01,4.538881675333134580e-01
5.441151527587827497e-01,4.085411732236817750e-01,4.373973301163910365e-01
4.485519498007869421e-01,5.273803561478371815e-01,5.106278587879914399e-01
4.677440927731932874e-01,4.464099411078587543e-01,5.651554264948362993e-01
4.850723491468728610e-01,4.650521861653156286e-01,3.954147512630503680e-01
5.088222746286742426e-01,4.456843240355128910e-01,4.792252931377019021e-01
5.173777876406291387e-01,4.998585550627162033e-01,5.426765000423958707e-01
6.032169530691361414e-01,5.385833882746025036e-01,5.127142956521809625e-01
5.320879387153631956e-01,4.925682204037164502e-01,3.945303684711036207e-01
5.356127652409434781e-01,5.408535592997029129e-01,5.534603734360898919e-01
4.997795110509949956e-01,4.822719615054048559e-01,5.575685867030434339e-01
5.788739259447004404e-01,5.089489325349485505e-01,4.575924597510512282e-01
4.812069859328574339e-01,4.609161170568003563e-01,5.035104708437960763e-01
5.371640088476569153e-01,5.472038745485757749e-01,5.449727084247956155e-01
6.035388307236838612e-01,5.397873489642593947e-01,4.772813761571552682e-01
5.245208435364797639e-01,5.711776300378267335e-01,5.145487728566682240e-01
5.202294489567853564e-01,5.732430818288160035e-01,4.217004465406040681e-01
5.004167356997040184e-01,5.178092114348993302e-01,5.463227256345690730e-01
5.557718454903796124e-01,5.262094304096820441e-01,4.794273351625807922e-01
5.065677480345558426e-01,5.082545650157457295e-01,5.412396622122160883e-01
5.233755245063612671e-01,4.822294766550618839e-01,5.435241570798848842e-01
5.311246412338825884e-01,5.170586890970054750e-01,5.566076341706965858e-01
5.417167642442719533e-01,4.327713706477085975e-01,6.036406902927750062e-01
5.440052225882850978e-01,4.990501075377165030e-01,4.381678037725631469e-01
5.134364658921716229e-01,4.578863031745242229e-01,4.952226322922660962e-01
5.202016985905127955e-01,5.121262450375186903e-01,5.045783298736216116e-01
4.802642006544030617e-01,5.149465660099327158e-01,5.993092326217869248e-01
5.676837197244662958e-01,4.717352697231100844e-01,4.426821388402907287e-01
4.924506784941132254e-01,5.576002689039074589e-01,4.397935402351703105e-01
4.572021987881700333e-01,5.501295903353223826e-01,6.140044981239106692e-01
4.987754270819624303e-01,5.450887585290776771e-01,5.227384222121084223e-01
4.792307882310212208e-01,4.039434084512024681e-01,4.578020378096187004e-01
4.040615176274980902e-01,5.581188048597300888e-01,4.799149060055686311e-01
3.987355177905714254e-01,5.820837974557269145e-01,4.852506186944314237e-01
5.148367144455782141e-01,5.416390966717054001e-01,4.731186516945810605e-01
5.071143191383276072e-01,4.974487684524330211e-01,5.869267955864599928e-01
5.224937353608510859e-01,5.497441310634074707e-01,4.581341398230316941e-01
5.483494430006852216e-01,4.737344158485543577e-01,5.020949690677257715e-01
6.381794145013550690e-01,4.636398747300206624e-01,4.423561298487271309e-01
4.777286163884428838e-01,5.378493480841507468e-01,4.833213929493249683e-01
5.579241697128628497e-01,5.607605505924776468e-01,5.047365464081167152e-01
4.784942816507961605e-01,4.814380984960618948e-01,4.683663198293867014e-01
5.449265610900435597e-01,4.326820111673005398e-01,5.476756802431542726e-01
4.480953901759840430e-01,4.868688602481383021e-01,5.473262008467462136e-01
5.559715316527964468e-01,4.914598527741979028e-01,5.681112687979714693e-01
4.705033779709386632e-01,5.362289464610711098e-01,5.447156256530674145e-01
4.871889965774340858e-01,4.844865644741434552e-01,4.650073683417019210e-01
5.776525438635254917e-01,5.321240052400942888e-01,5.279267890123063856e-01
5.592906978741731816e-01,4.834292822137808976e-01,4.959029181425879673e-01
5.086639238955382725e-01,4.966911300877412949e-01,5.131056202003650979e-01
4.606522223758665047e-01,4.310851741440101526e-01,4.726935305044338564e-01
6.492083034828273203e-01,4.856922984310978464e-01,4.492652843526107054e-01
5.203427970726286489e-01,5.047136785216077559e-01,4.661065550115281453e-01
4.497076664016045333e-01,4.342417172431267680e-01,4.520197578787237269e-01
5.054820014099267178e-01,4.868026070444129161e-01,5.194872722315577729e-01
5.807493129920892061e-01,5.806393301109668004e-01,5.731412595198688287e-01
4.955743378782494490e-01,4.511075095003508895e-01,4.788675867451143153e-01
4.846796680779846822e-01,4.710154982092276676e-01,4.636304426903590237e-01
5.365085558476123673e-01,4.810315393961748787e-01,5.743505697694492040e-01
4.661898754258262945e-01,4.806301518817589491e-01,4.642327142518568039e-01
4.549522414177594731e-01,4.963775737452766901e-01,4.625230219899263417e-01
5.880646922921307640e-01,5.316135031104161079e-01,5.427795390568330713e-01
4.691897257572275604e-01,5.358322554605758903e-01,4.555234225786401470e-01
5.008289120181883547e-01,5.167436514215096865e-01,4.276124292739610366e-01
5.718437432410219401e-01,4.926399898189636750e-01,5.064695631413245192e-01
5.312026817003514534e-01,5.448399107904851046e-01,4.531873014953916590e-01
4.877999558135195368e-01,5.832187888379809504e-01,5.229693633813242704e-01
4.941206659022462921e-01,4.764794356882220971e-01,5.095971279319967406e-01
5.249591538510135491e-01,4.797466901546140194e-01,5.233081156971819414e-01
5.416928218008177920e-01,5.300265803452683944e-01,5.041101759745640898e-01
4.543873368126304380e-01,4.906872595426325367e-01,4.999277968103228997e-01
5.342952629156932920e-01,5.378671599859651264e-01,4.880875133596828674e-01
4.169939246980875480e-01,4.620280725335128014e-01,5.292234703194796941e-01
4.997987982341290381e-01,5.271370032979391107e-01,4.961235312707312772e-01
5.379674515544178304e-01,5.296070901705915990e-01,5.414353721265269259e-01
5.086065691796525234e-01,5.056168892738645004e-01,5.787454228687011204e-01
5.214786533403942270e-01,5.014002763241215410e-01,5.508673797228814673e-01
4.846056443606887032e-01,4.981140436511202751e-01,5.236376734153902479e-01
5.522901098784738227e-01,4.463848912733185959e-01,4.950457143199084586e-01
5.428421440394232134e-01,5.402189020685917997e-01,4.736690900870519916e-01
5.289586193046162954e-01,5.381157161069479722e-01,5.020993929058765737e-01
