accel_x (m/s^2),accel_y (m/s^2),accel_z (m/s^2)
-5.504365041270648136e-04,4.787071486676629933e-03,-9.798590696991423599e+00
-1.571677740539761513e-03,9.594992687618828084e-04,-9.789222049947429838e+00
-5.748039612646254834e-03,-2.363012447535856736e-03,-9.787184155559424781e+00
-2.084611755013317594e-03,-3.266485226639380835e-03,-9.798430786517881685e+00
-8.915691933643241605e-04,2.215105760186329448e-03,-9.804688642581018243e+00
-7.091894500956839008e-03,6.595166797807809796e-03,-9.801417134740241011e+00
-1.074337112759472194e-03,-2.616271615368198980e-03,-9.787089359324106397e+00
2.465034349605575020e-03,-1.040680225371285643e-03,-9.797806062186802833e+00
-6.256298557505934194e-03,-3.444835610675378579e-03,-9.792988830692392455e+00
5.714459703053561407e-03,-2.638257770401505799e-03,-9.795885377533645411e+00
1.272249447553126106e-02,7.518480008266007798e-03,-9.789822668940287187e+00
1.626185367672647038e-04,-8.619604292908174606e-04,-9.790208053589632087e+00
2.080608338143172600e-03,-1.548186085819010325e-03,-9.796092618132874463e+00
1.474633315567064383e-03,-6.388253112157880409e-04,-9.797899709280976310e+00
1.994776234409395403e-04,1.148258843113235785e-03,-9.794965392282245276e+00
1.087665654524926605e-02,-6.830958563526256730e-03,-9.785581868884854373e+00
-5.004254380065263630e-03,-7.910734887060056481e-03,-9.789826885427137526e+00
-7.200912586883097960e-03,-6.212907624680472432e-03,-9.797222894668960791e+00
4.433927528083339261e-04,6.854073534619347513e-03,-9.803437849938180904e+00
2.515695567054487651e-03,-2.243685485596513558e-03,-9.791464839626852878e+00
4.400336824192737847e-03,-5.268312312009412052e-03,-9.798330486642461423e+00
-2.362667823820610840e-03,8.373631707085329610e-04,-9.797319122925840063e+00
-1.094553555601914668e-02,-2.657920321545733863e-03,-9.794259424600880948e+00
1.777971275281156312e-03,-9.652994822095262986e-04,-9.791998584168602804e+00
1.120686792609302488e-03,4.763489740466678515e-03,-9.792253060001836928e+00
-3.584990445283552356e-03,-3.047014091560747498e-03,-9.802472181822219355e+00
-6.473171320785575840e-03,3.197220611058001691e-03,-9.783135936145255229e+00
4.088912018272474781e-03,2.261548232362250478e-03,-9.794517573421057222e+00
-5.875188491849619131e-03,-8.712420163012071740e-04,-9.794831551502504396e+00
3.871904983522273837e-03,-2.923381224790260260e-03,-9.787083728399556648e+00
-5.870483271847753634e-03,-7.779937030549287716e-04,-9.790436741954763988e+00
2.458463043608123764e-03,-8.087398060157896876e-03,-9.800598675497401047e+00
-5.534004377893978616e-03,4.860492495460133969e-03,-9.795917860013913625e+00
-5.706026055541172683e-03,-4.911238601704002657e-03,-9.794568104148353882e+00
-1.997676222131957238e-03,1.011212411933597524e-03,-9.801804806928485547e+00
-8.912719407969855318e-03,9.303607200624132087e-04,-9.792586817928949472e+00
4.829688693472215040e-04,6.264549207382992188e-03,-9.793020370648592987e+00
8.831108728831037896e-03,3.932689559110502317e-03,-9.792880826476311640e+00
3.570717983183273672e-03,-2.417313908189554737e-03,-9.803177067802307576e+00
-4.835976882297084861e-03,7.587452508412231324e-05,-9.795917165850015706e+00
3.234256904086827127e-03,5.445029978896604285e-04,-9.796300039452615849e+00
3.491037919792384838e-03,-1.134625212509616024e-03,-9.798085656761019280e+00
-9.283461803827134859e-03,-1.370254682387501977e-03,-9.795110063786868437e+00
-8.008634017930097229e-03,9.301254618449496595e-03,-9.806213821697340904e+00
-9.736214334528045002e-05,8.427512939615681986e-03,-9.793979069425512662e+00
2.929047300054082002e-03,-5.074776881850560917e-03,-9.794149875778840553e+00
6.595813853891707842e-04,-1.055668771061661843e-03,-9.792876068491358055e+00
-9.618489466498924374e-04,4.016219660938564855e-03,-9.797619881459317170e+00
-4.995704023882725775e-03,2.781212319955242776e-03,-9.788503289215734426e+00
8.470915754717308482e-03,1.280541412631924997e-03,-9.801652410785335334e+00
2.586142934134249595e-03,-1.880508841484688273e-03,-9.797796077885402966e+00
6.158667373807442079e-03,2.474605965336474766e-03,-9.796787820049486228e+00
-2.353853727242972808e-03,-7.526901324565981634e-03,-9.795129336194731806e+00
-7.299730773412981162e-03,2.755745047230712813e-03,-9.791478544085899571e+00
7.426101755104305528e-03,-8.688095226257573503e-04,-9.796536855774784058e+00
-1.878726844380311815e-03,-5.836307991588567980e-03,-9.802302324163541414e+00
5.816902572726837840e-04,-8.695776370612488728e-04,-9.792876771844897021e+00
4.062350907488384080e-03,1.254723162843830991e-03,-9.796293071042866174e+00
1.129610212661205995e-03,-3.868260974631471984e-03,-9.797544510797441930e+00
3.868521588511289380e-03,-2.519154779571613871e-04,-9.799211181538955984e+00
6.045597155399289567e-03,-4.412751362939769731e-03,-9.796324989081362844e+00
-1.290201518046665396e-03,-1.016167641996473022e-03,-9.787938225100255352e+00
-2.648074257677004995e-03,1.106317542279956290e-03,-9.793956469551178046e+00
-5.212787172081888645e-03,3.587428213864563356e-03,-9.793029327985474097e+00
7.993648814543482042e-03,1.110347528048897733e-02,-9.788247298773047333e+00
1.026256626847673811e-02,-3.523214897317173463e-03,-9.792117713689133751e+00
5.474739834477394471e-03,2.055273937599530823e-04,-9.793205570869785603e+00
3.939554432536841039e-03,-1.079376798056717011e-03,-9.796337885090713016e+00
-4.440502501910339496e-03,-4.673693271315722958e-03,-9.796146355499239178e+00
1.440758746370464013e-03,-8.769416246703272758e-03,-9.797243340704074654e+00
2.567827840757809141e-04,-3.298188460609874969e-03,-9.800474921785843563e+00
-6.801749950375868443e-03,4.792340379037061254e-03,-9.794793673636846165e+00
3.589908313082307203e-03,1.568175139639933725e-03,-9.801606352470653150e+00
6.343905745931097649e-03,2.525521345388859629e-03,-9.800004287546215664e+00
-2.111285362799197873e-03,4.389530618274315420e-03,-9.792346836476944816e+00
4.838093029703833051e-03,2.518404488335747402e-03,-9.792970582236305788e+00
6.323327313287074349e-04,4.260282985197053063e-03,-9.784829149610137833e+00
2.338027042942768599e-03,-1.358182098481804188e-03,-9.798047326943931878e+00
1.143919540408001173e-02,-1.508176712504672628e-03,-9.804286344015364918e+00
1.207184147305002215e-03,-7.526356420132953706e-05,-9.800235349157278009e+00
5.881510031845746042e-03,-9.681693206684457639e-03,-9.797166018000236676e+00
6.875174635176065779e-03,3.138098099388628159e-03,-9.793737705665533255e+00
8.352304303629050353e-03,9.341985937856921163e-03,-9.795471967955981185e+00
1.071790154440288231e-03,2.588545421113917864e-03,-9.796132950137003803e+00
-3.550911782929686705e-03,-1.560156970868092343e-03,-9.804517433582464747e+00
8.681540430491146163e-04,-3.128905541165326494e-03,-9.797757651811071611e+00
-3.413672732021341520e-03,9.366719784786862362e-04,-9.789845304251068470e+00
3.256459346260489642e-03,6.640319598356910456e-03,-9.790466359320225465e+00
-3.962195563801438648e-03,-6.066736897784261520e-03,-9.787908997922709631e+00
-2.243693449508358867e-04,-4.571602024846475052e-04,-9.790271322354413996e+00
4.061258257315366813e-03,2.551342266714643706e-03,-9.793842058539670603e+00
-3.742286775893270256e-03,2.017268231365700049e-03,-9.794425894920001596e+00
-2.714858556254857395e-03,-3.955259687462652808e-03,-9.795486017783550992e+00
2.615167169910945395e-03,-3.177910589916571691e-03,-9.788050984539074406e+00
4.471031300861749778e-04,-2.963373786472860844e-03,-9.797008270258375617e+00
-7.672642513169158560e-03,-9.710357114570827841e-03,-9.802667138627676024e+00
5.014673592580704865e-03,-7.885018348294963765e-04,-9.797554967765092826e+00
-3.188657984555664116e-03,-8.284872883727027737e-03,-9.785208658037547025e+00
3.469719424228290207e-04,-6.750662728907311401e-03,-9.790922979029904383e+00
5.924950298602658016e-04,-6.979391602775611480e-04,-9.793414617529654365e+00
1.661206727158802063e-03,-2.247879352320047422e-04,-9.801156221664150792e+00
-4.216120776388851930e-03,-5.122669590675597677e-03,-9.800258918313579315e+00
7.449673849842399984e-03,-2.651509281716279889e-03,-9.791768660328843410e+00
1.498638511906802808e-03,2.959061878323231663e-03,-9.793488635700850153e+00
7.276433166087503679e-03,1.939848055301426726e-03,-9.792285826634241630e+00
8.155529050475200312e-03,6.541394684426520521e-04,-9.803014029036269505e+00
-7.023084646640979228e-03,-5.566080801554690620e-04,-9.794036090784743465e+00
-6.215974391645296901e-03,1.874896461753918333e-03,-9.794758331792733586e+00
5.906873234669436645e-03,-3.147437535018612204e-03,-9.803385581454946873e+00
-2.736424936639302898e-03,5.068309391426030486e-03,-9.795233276496558616e+00
-7.489059369507378855e-03,4.683489820145539796e-04,-9.791245053774350282e+00
8.199766703032693518e-03,-4.103548641447426690e-03,-9.798672259029013176e+00
1.904545297396070011e-04,-2.073006750908604895e-03,-9.795637036696815514e+00
-3.009580223730957786e-03,-3.791470079542602449e-03,-9.787915084401120680e+00
8.881170406291690259e-03,8.152464051581944770e-04,-9.796986061437868543e+00
1.035767911010132721e-03,6.265422400578648035e-03,-9.802953111969531008e+00
-3.726867421421499720e-03,4.519764664146492909e-03,-9.791951522707988076e+00
-2.088298110095424031e-04,7.561669276158173615e-03,-9.800776231861702215e+00
2.792472559677826489e-03,6.952611129441906446e-04,-9.793218808865875147e+00
7.632319507088085320e-03,-5.903425612247372931e-03,-9.787434786235078121e+00
4.195812862778168506e-03,3.120297204394390910e-03,-9.797175576639411076e+00
4.286013987270364395e-03,-9.152798156975771541e-04,-9.792079624175874741e+00
-2.464320950653010184e-03,-1.420738364513286691e-03,-9.797957832072569317e+00
-3.729126690730251784e-03,1.781698574498345993e-03,-9.785698596498161095e+00
-5.583445378393384582e-03,9.913997827570429633e-03,-9.784263449764109666e+00
4.030694688638573712e-03,1.086621515273804642e-02,-9.797335360649245928e+00
1.799942294489157032e-04,-4.880660127664102586e-03,-9.786532366019343954e+00
-2.086201409693678489e-03,6.630708995310955096e-03,-9.799725802413968623e+00
-1.886878674309806162e-03,-6.904330949076650792e-03,-9.796469189851432446e+00
-3.426450110140236930e-03,2.114335016529082095e-03,-9.796389902429538665e+00
4.596636530905766696e-03,1.125599669751400737e-03,-9.791732773992617211e+00
1.827803181553928273e-04,-6.723951869248160143e-03,-9.799977165931728962e+00
1.050227592136896738e-03,5.506302065162536202e-03,-9.800509943625028697e+00
3.990485530444520226e-04,-9.419399553852840501e-04,-9.800304859802633217e+00
-6.234304329890990801e-03,-3.137810658399515888e-03,-9.793842780459579345e+00
-5.677304739325345941e-03,-6.790405029390928285e-04,-9.798158761709791165e+00
6.355105020656191817e-03,6.382796651481464738e-04,-9.801931268045615653e+00
-3.577450270010988642e-03,6.310929615188368841e-03,-9.795111889856203291e+00
1.034390493567627183e-02,-5.792704762438249770e-04,-9.784471090855539899e+00
-4.822162466294388147e-03,4.046388691485621955e-03,-9.791344437658986877e+00
4.927545005302318235e-04,5.500009058272054864e-03,-9.792074113153901749e+00
2.371273164667809900e-03,-4.797245347211289562e-03,-9.800341068770071828e+00
5.443261312083784616e-03,4.825413184226112415e-03,-9.790121389144163189e+00
-3.468740288314691236e-03,-2.613007852083748268e-03,-9.795288838393579667e+00
2.840018412070889273e-03,-1.153456252312580303e-03,-9.791076730169784526e+00
2.824812945573462308e-03,8.520946579443322913e-03,-9.797279026865897578e+00
-1.025402601572277580e-03,-2.877380683035046186e-03,-9.796908271397642309e+00
2.847646910384201736e-03,1.026075299340694323e-02,-9.791684255198706666e+00
2.750276824551824238e-03,-4.869960532494049506e-04,-9.781124168019980303e+00
-6.079263413227166575e-03,-5.472769271138040563e-03,-9.791898389585547591e+00
-6.198667805064350406e-04,-5.621171676590272850e-03,-9.794205437320824714e+00
4.383316333112285967e-03,5.677093624845067424e-03,-9.790629210458279275e+00
-3.472870617122376935e-03,-8.173792473781364004e-03,-9.794408686023031052e+00
8.749061509570298101e-03,-2.069358794701625561e-03,-9.792229378285110641e+00
5.382295562249721221e-03,-6.865776078161323417e-04,-9.797424022395185617e+00
-4.827910374650908748e-03,2.949322425943745433e-03,-9.796196686674703002e+00
-9.034286315518461497e-04,3.932779451159475626e-04,-9.792016659484941599e+00
-2.059611673170747698e-03,3.252032600111202021e-04,-9.795538576681371623e+00
8.284685857377201102e-04,6.220585068905170462e-03,-9.794477826914137708e+00
-5.670810091327465642e-03,-5.721460748737124645e-03,-9.797517639691903923e+00
9.160008533752191616e-04,9.810683804560739810e-03,-9.798120419842954121e+00
4.903229166554454524e-03,4.255396086383493939e-03,-9.791591668417972016e+00
-8.984347365852131092e-04,-7.189258267234424279e-03,-9.793404848719800881e+00
5.889001142611808692e-04,3.541000378732148384e-03,-9.799723242419753788e+00
2.923679458630171375e-03,3.908629352559146210e-03,-9.794466492208979247e+00
1.756393893532028939e-05,-5.080784569172024263e-03,-9.789828722640677938e+00
-6.197048833990793232e-03,-3.826180096232606291e-03,-9.791066352792137550e+00
4.570037744677229487e-03,7.837585016206162492e-03,-9.798300472855858700e+00
-1.618013164615901599e-04,-2.022177298583095317e-03,-9.792310503583875558e+00
2.016914655057470800e-03,6.733912032281803850e-03,-9.788268884565850314e+00
1.794480141816587760e-03,-8.022558263314591431e-03,-9.794575282607690170e+00
4.997864272611783273e-03,1.727808206149050035e-03,-9.792460860546620793e+00
-3.800877537228019697e-03,-9.638391105731079333e-04,-9.798975153422718520e+00
2.270429623373149781e-04,-1.818383214945025559e-03,-9.792019474965917070e+00
-1.891448224442547447e-03,-5.532195921889112092e-03,-9.790824984699415978e+00
6.980898812604324245e-03,6.879161912355779424e-04,-9.792759214842266857e+00
6.876266650641331413e-03,8.180908218163411572e-03,-9.787663015172414660e+00
2.140869414189276298e-03,5.090335509162170410e-03,-9.797901554340096908e+00
-5.030913655742872033e-03,1.601470194411786603e-03,-9.797205750618170228e+00
3.425100275418637482e-03,4.173830523026763294e-03,-9.795681535474006552e+00
5.918027006211780405e-03,-2.223483932321310488e-03,-9.791444400184001751e+00
-5.432705221921212439e-04,-5.203165673882586065e-03,-9.793376007245079506e+00
1.540097006726569425e-03,-8.282821756624427715e-05,-9.790674317305457564e+00
-4.054794858064296285e-03,7.514009006507582980e-03,-9.797134793639985517e+00
-9.837172598859817568e-03,-1.277792109907704065e-03,-9.801847606641180377e+00
4.130538639883173796e-03,-3.507762482742640339e-03,-9.798733270085810076e+00
-5.220103199693047931e-03,4.243288226070742429e-03,-9.797814549695921471e+00
-1.190898816581552506e-03,-3.626004092580907730e-03,-9.789027990858137684e+00
6.232092797338151940e-03,4.119025021955851316e-03,-9.795489785424889462e+00
-5.816034241798428810e-03,-5.068315494831780905e-03,-9.789938296319238731e+00
1.343076861986349391e-03,2.648514535888674831e-03,-9.791450919857323854e+00
-4.719633956441393087e-03,2.202090093806348837e-03,-9.790737655610119106e+00
-1.382278922852187919e-04,6.641986052892144554e-03,-9.795722881519692393e+00
3.888898188607771336e-03,-2.658665197828397053e-03,-9.803202135694196073e+00
-1.006586016184534901e-03,-6.745080908856011803e-03,-9.792315550653064804e+00
8.484920873964739083e-03,1.488562672747387444e-03,-9.790875870375932877e+00
1.352570800054096311e-03,-5.032448291202276831e-03,-9.789178737394992780e+00
-3.375349318664402735e-03,-5.882122581159731495e-03,-9.791320516328784862e+00
-5.523653528498232920e-03,6.991634464356123041e-03,-9.797162862333168576e+00
2.333198534598768335e-03,4.388287872287425714e-03,-9.786432087575015260e+00
1.250628857307381600e-04,4.981890885127353459e-03,-9.797232434416921265e+00
-4.133254683084440842e-03,2.751312206135816864e-03,-9.796497353354014948e+00
3.212922435033041492e-04,-3.129348216907956986e-03,-9.798858592665983025e+00
1.133719608819163966e-03,3.817209877375349249e-03,-9.797651871302038629e+00
3.914677186060933024e-04,4.282461416704802710e-04,-9.792232807702353270e+00
4.576085738984351711e-03,7.880956125072502427e-03,-9.786930835274894491e+00
5.655729031750002765e-03,9.346288801445085549e-04,-9.783957220831338120e+00
-3.458645483930977097e-03,-7.423511013614191197e-03,-9.790647063864689414e+00
-4.809050626331662359e-03,-1.467179414616632139e-03,-9.792681752422954133e+00
5.921436234253299458e-03,-5.878064262467924683e-03,-9.788749934783348650e+00
5.371253124105557740e-03,3.542174049754913661e-03,-9.794326693210935630e+00
1.244762561925896044e-02,-5.393191435549641796e-03,-9.793018833547868951e+00
1.950692858379508062e-03,3.882075264851665795e-03,-9.804831025474014083e+00
-7.282714986574552983e-03,-1.083223690779481531e-02,-9.797700895303831814e+00
-3.880913659956436446e-03,-3.844019126045520977e-03,-9.790234512854462778e+00
4.274840339241480630e-03,2.685668035698270291e-03,-9.792546135175173916e+00
1.734835380343108680e-03,3.111689273605194872e-03,-9.793816286489676060e+00
2.086853427193053126e-03,-4.545136691422796589e-03,-9.787030660349577360e+00
1.289384494960408613e-02,7.918868438919100198e-04,-9.797326483040958323e+00
2.024653172933775329e-03,7.575590168510348138e-03,-9.795899185430419820e+00
-1.393500149648771013e-03,6.134230937277768483e-03,-9.787804614495422939e+00
-1.174268284751052958e-02,-4.207656782659996431e-03,-9.795694442968256865e+00
1.172063320763492775e-02,2.820729540435422227e-03,-9.790404624732543581e+00
3.753425268171056012e-03,-3.908544970430643736e-03,-9.793885933281266887e+00
-9.137116539881082362e-04,-4.365706983956743788e-03,-9.792658632231852067e+00
-2.232099906812334833e-03,4.180227298696066913e-03,-9.789298506173491177e+00
-2.262260172613081259e-03,-5.595536594585372170e-03,-9.806815232174233898e+00
-1.308420214892588775e-03,8.197136112128657753e-03,-9.798119923158298050e+00
-4.712378413253630674e-03,-1.839069412645448877e-03,-9.795984411276407400e+00
8.395408722356011849e-03,-3.570315732689325998e-03,-9.783681115516730031e+00
-6.327871672227813882e-03,-2.714581618621123276e-03,-9.794964141050163775e+00
-3.565144200645644322e-03,-1.731272831832443918e-03,-9.798307527379121140e+00
-4.494930337703356010e-03,2.768655836353508225e-03,-9.797006024089574439e+00
-5.434946969616429209e-03,-1.840953791431959238e-03,-9.797769089484654970e+00
1.028466697358627131e-04,-7.844187489118883277e-03,-9.805395778049067701e+00
9.036601741533435792e-04,2.497103898700700313e-03,-9.790154789346390274e+00
1.668021805757034228e-03,2.689652399914012337e-03,-9.784757430241963760e+00
7.082127791998038893e-03,-9.095877558103457371e-04,-9.796186845126166887e+00
7.073152588272813360e-03,9.628913064502647376e-03,-9.800203513497390162e+00
-3.784362655410735549e-03,1.980659782066919537e-03,-9.792023066298019884e+00
-2.538514709326414407e-03,2.705616619028744160e-03,-9.809025404637877088e+00
-1.986962113590308270e-03,-3.718488001341579020e-03,-9.789054119045173863e+00
-9.682677122686942847e-03,-5.042437718428190510e-03,-9.790893776429367534e+00
-1.776832872210292813e-03,3.133485775348126938e-03,-9.791019394972188650e+00
5.905917613621984499e-04,6.179423536074393937e-03,-9.796311934407704314e+00
4.697522864566299611e-03,-2.034029787569127234e-03,-9.782328675266432683e+00
3.060641912324526485e-03,-2.349490313912227027e-03,-9.794378610107161265e+00
5.606457439422293495e-04,-1.319899644758428144e-02,-9.794941918064342445e+00
6.153375358049785124e-03,4.658077628070911302e-03,-9.789132836405141092e+00
4.303607944685610212e-03,2.839087975520589884e-04,-9.790764979318931083e+00
2.838162118447930260e-03,-7.769648054259360118e-04,-9.803850770517257729e+00
2.082815820957980429e-03,1.268168622415194804e-02,-9.795511303134798453e+00
-5.178786241187772338e-03,-1.059967951928075629e-03,-9.796937701318956471e+00
7.111219522014222000e-03,-2.328237532248726791e-03,-9.789201602363393206e+00
-3.979680391562958469e-03,1.053820911463764463e-02,-9.796395392946642744e+00
-1.921406145412753739e-03,4.922489324682540780e-03,-9.794236231533222536e+00
-1.001059778732557234e-02,-7.623719640071982551e-04,-9.786487828958268409e+00
2.488344288611156214e-03,-9.227405679000644494e-05,-9.795953842200656680e+00
-2.814721105909358603e-03,3.352065387391792682e-03,-9.793532181598985531e+00
-2.004576738324177505e-03,-2.043230365343143805e-03,-9.792031099302553443e+00
7.934138359010785811e-04,7.894640119243123699e-03,-9.792137205675270906e+00
-1.040590208718275827e-03,-7.440912375484560592e-04,-9.785402946597690388e+00
2.240600409024732630e-03,4.630669765689632809e-03,-9.797933586981200094e+00
1.143143103396847184e-03,-8.451795722084575954e-03,-9.794012092325196761e+00
1.100680707267980701e-02,6.062490237424910701e-03,-9.789641451220745694e+00
-1.635189177265215527e-03,-7.694468965696216016e-03,-9.796339253830979033e+00
-2.533718157523704492e-03,3.384048998201607053e-03,-9.793521938943444027e+00
7.743123493788493794e-03,-4.707093789766191114e-04,-9.796783888492056391e+00
-3.270408803849838078e-03,2.559607170134163036e-03,-9.797578800948640421e+00
8.678108873642618667e-03,2.202205496355003587e-03,-9.800282765078719649e+00
4.327824568691651143e-03,2.817139158969529569e-03,-9.786763241567323135e+00
2.068308752883460475e-03,-5.703167690225559956e-04,-9.798285386947434006e+00
2.808471331365932841e-03,1.811679623780208435e-04,-9.797407837003268227e+00
-1.492576440276492580e-03,6.911696883880233920e-03,-9.793164869172002795e+00
-4.548931258960412990e-03,-8.422766962301896088e-03,-9.801389854145192260e+00
-4.951621434074619799e-03,4.273077870622283593e-03,-9.796394116743032399e+00
-2.610702380975493241e-03,4.575153876927040737e-03,-9.791809812172962424e+00
1.596197555725047080e-03,-5.928919178350354827e-03,-9.797724642606578271e+00
7.572261790016950565e-03,4.437177796859222102e-04,-9.794533539508341491e+00
8.552310483677659156e-03,1.697297704691368690e-04,-9.793349064483958699e+00
2.082696857850706252e-04,1.755908912556442339e-03,-9.798658031396417556e+00
-3.388275526736920628e-03,6.073238001696225526e-03,-9.802126164882269066e+00
3.868049653049480952e-03,1.247696695328622332e-03,-9.797587293446476053e+00
3.061660273048665069e-04,-1.661865490576558326e-03,-9.795135943340932627e+00
-5.292716221540868377e-03,5.145554255017456904e-03,-9.792955475613998928e+00
-4.761759585957548932e-03,1.357454083152532728e-03,-9.797742472615269094e+00
-2.268951551087792107e-03,1.925486689010567909e-04,-9.785356139649659113e+00
-2.986334732048808501e-03,1.871453570441901099e-03,-9.796262535318593478e+00
-1.734812522210479793e-03,-9.494215391613778157e-03,-9.783680940896319456e+00
1.180991231963961219e-03,-4.132485303635460502e-03,-9.791908766406214326e+00
-1.317810794766032054e-03,-5.237060956450045011e-03,-9.798150616711543748e+00
6.312483143733780763e-03,1.534668976219373234e-03,-9.803479875513870567e+00
2.390638800145834190e-03,-8.557013106599909488e-04,-9.794895157858494628e+00
-8.109996736389644967e-03,4.730512365602843224e-03,-9.784280358388512511e+00
-3.526042681861864345e-03,-1.919171116353644499e-03,-9.789818823166424266e+00
-5.716647536424505557e-03,2.734589986952218137e-04,-9.793184440882724218e+00
-1.346169352484453009e-03,-7.597005896789287352e-03,-9.797524747685836033e+00
4.239864541117923345e-04,2.564490531484605457e-03,-9.799584826631592804e+00
1.740842564956261718e-03,3.441153445632163296e-03,-9.800747632865146386e+00
3.392531353017420046e-04,3.119285847495798653e-03,-9.790035671814926843e+00
-2.323941075307739586e-03,4.138587180666753688e-04,-9.784345212859069107e+00
6.749749224091306475e-03,3.821270915601719751e-03,-9.798933664480337313e+00
-2.491665085180857272e-03,-2.126177791184406980e-03,-9.802123537900692796e+00
4.696452848036000629e-04,7.728956672835437039e-03,-9.788230108613513281e+00
-6.702543749221807901e-03,-6.349900186391013203e-03,-9.795618193163798892e+00
8.096787722040393875e-03,-5.062700961179150867e-03,-9.790908254645239950e+00
-2.181783485590646325e-03,-5.191664294965441309e-03,-9.782471769383274562e+00
-9.200432756338497832e-04,7.409847773945949650e-04,-9.789986481620573500e+00
8.371921509594821686e-04,5.104849343987581320e-03,-9.803516997204175354e+00
6.568500179250388524e-03,1.324170382083560919e-04,-9.780698939955337678e+00
1.492639089580523153e-03,2.316218013922022160e-04,-9.790428783339484298e+00
1.119461160023252182e-02,5.799937489291695503e-03,-9.793876968768806535e+00
-1.992172536355280672e-04,9.745711140334929658e-04,-9.801976813995965543e+00
3.693202449133253622e-03,-2.151259937981823273e-03,-9.794023283228804999e+00
1.106307100776996073e-02,3.735740825444194314e-04,-9.794534014895861063e+00
3.081415025367635618e-03,2.005133866872506592e-03,-9.790805377403211551e+00
5.431489519261355550e-03,-6.394459804922183284e-04,-9.800372370606870831e+00
-3.780028712332067845e-03,-2.064434629005204884e-04,-9.807010267078521082e+00
4.193132664234782217e-03,-5.756048577615620852e-03,-9.787197907525257534e+00
-6.167921343424384237e-03,6.626533626794424946e-03,-9.800510796815967041e+00
-1.109104858238825139e-03,3.721266722385110914e-03,-9.800260046068444808e+00
2.024095038553899283e-03,7.903582531964171640e-03,-9.790784567653266990e+00
-2.473075081631211265e-03,-8.200356643959480800e-04,-9.790945334929450183e+00
-2.285262911032617111e-03,1.047505920026763765e-02,-9.800493115123606103e+00
1.108988058666076325e-02,7.554090365629463621e-03,-9.787496976456168341e+00
-3.150809421175253602e-03,7.425604592729698802e-04,-9.795321839069352166e+00
-8.635130330105066088e-03,7.779157524303428016e-03,-9.795893148949957663e+00
-6.195027159932270204e-03,-2.352934458921838133e-03,-9.796054437201084042e+00
-1.245708987685168346e-03,4.703949297452937085e-03,-9.793832243092849055e+00
7.986389943231279528e-03,-4.443118200713704578e-03,-9.787427251034074516e+00
2.395238649976756500e-03,-2.377847612378285224e-04,-9.793233670260413248e+00
-1.964330438508341860e-03,1.657662197873345381e-03,-9.792180748819319547e+00
7.869852209351098620e-05,4.207726716552103417e-03,-9.799044276035404621e+00
-4.288156571668352846e-03,2.628830798394068708e-03,-9.789881792773732272e+00
-6.082201850429055055e-04,8.521838131212884637e-03,-9.794134204028141610e+00
1.276439583722312546e-02,-2.837315710513278830e-03,-9.786794674910467506e+00
-3.566775666195334468e-03,-1.242747725159241892e-03,-9.803241768106833121e+00
4.865784164704289004e-03,-2.951700382948359899e-03,-9.785595150631403172e+00
4.073659858468266400e-03,1.059043605674490386e-02,-9.790094434180787175e+00
-1.006035638178046955e-02,-9.444521830476621275e-04,-9.795426949725710486e+00
7.301381864429079549e-04,1.615833887653479262e-03,-9.796525448522725554e+00
-9.011542370625359386e-03,6.387812327403487441e-05,-9.790976126719172612e+00
-3.853875806854943197e-03,8.091463623484992495e-04,-9.791977869876966167e+00
-4.258245721207409677e-03,3.153700373652726548e-03,-9.795174998326071858e+00
-1.776322865028888897e-03,-4.632050740852368571e-03,-9.791642575226733314e+00
-6.719104409918681513e-03,-4.477244571071041165e-03,-9.799751188825206683e+00
6.170400888902222158e-03,2.089361510127979438e-03,-9.793354807400412199e+00
-2.459344624997749328e-03,5.999423129673071148e-03,-9.794019967392417314e+00
-4.494504536040061157e-03,3.513874316282448312e-03,-9.792949227703457993e+00
1.528193622212951691e-03,1.253055234940288459e-03,-9.792365681555398993e+00
6.557567387390659738e-03,4.835327380507355166e-03,-9.802769337348028245e+00
-8.170065016445356154e-03,1.193378036861087463e-03,-9.786006299012967702e+00
2.651681937923237690e-03,5.850678460925289905e-03,-9.801366871699567440e+00
-9.330182736765443158e-03,9.072741676980095732e-03,-9.784172114121568953e+00
-4.229323772030823929e-03,-7.535665423655048961e-03,-9.791487529179377702e+00
1.016502151879876154e-03,-1.833163172148916716e-03,-9.800862034877798834e+00
-3.025649565845948269e-03,3.372641874010406590e-03,-9.798710555898360042e+00
-9.499024353038315605e-03,-7.838019424830531753e-03,-9.795872127732394574e+00
-3.112169891080900606e-03,-2.518491463081370431e-03,-9.794624784899264469e+00
-1.524477304809516379e-03,3.400459516482716611e-04,-9.788221149263137022e+00
1.735416970029449385e-03,-6.872283638991054378e-03,-9.805282506944113408e+00
4.053904958599171063e-03,-5.058825794817532404e-03,-9.789610153963053563e+00
8.486935882551375002e-03,4.815552224188267630e-03,-9.791527939904643318e+00
8.737989073787305952e-03,2.537795031891805844e-03,-9.792406137896056961e+00
-3.259803645618670424e-03,7.631904496927846213e-03,-9.797082968814397219e+00
4.380660396379876600e-03,7.455400572456301160e-03,-9.794922009889775794e+00
1.716211284694774738e-03,-2.090216743602637574e-03,-9.792064357224095517e+00
2.687029481380271648e-03,3.899461930571722877e-03,-9.787796754749475525e+00
5.237526157150567893e-05,-5.214839724617424850e-03,-9.794418465109165695e+00
4.160686961727090138e-04,8.442932316962274350e-03,-9.788832398103318511e+00
-7.404152229364208831e-03,-2.777636466831779173e-04,-9.790686612168324032e+00
2.582564368611919934e-03,-8.082837047836029243e-03,-9.790298090396039044e+00
-4.490027484063545057e-03,-8.180818526943255380e-04,-9.795857202337595382e+00
-2.296209343596684535e-03,-3.575048490108730017e-03,-9.800124882158568695e+00
-6.341669845251102049e-03,-1.660579810712291705e-03,-9.791659075356530906e+00
-8.484671186575459129e-03,6.517383179159063960e-04,-9.798076583836548892e+00
-6.675530618092680168e-03,-1.724432427851796661e-03,-9.793150999359705011e+00
-5.178752491582411070e-03,-1.541091437628291753e-02,-9.803960999241080998e+00
2.252741158963216233e-03,2.684885182512935457e-04,-9.785576208609837678e+00
-2.861505781607433154e-03,8.506696065502087917e-05,-9.802214387054169364e+00
3.020322382636219348e-03,-8.310541914564800042e-03,-9.794537684833631630e+00
2.854491813671204865e-03,4.316836781829740599e-04,-9.791600139006847670e+00
-3.072861827759705480e-03,2.647180442627932416e-03,-9.802424020435186236e+00
4.208381602615789488e-03,-2.443213135144334594e-03,-9.798775755794485676e+00
-3.950916272261332900e-03,1.351296991590034656e-02,-9.788206483424517046e+00
8.942061601987209493e-03,-8.559387429954660315e-03,-9.792834048326865215e+00
9.188477787967164190e-03,8.311963037781224667e-03,-9.796771271901263844e+00
-3.448428594540618036e-03,-1.806514749043012461e-03,-9.786764355648879032e+00
-2.273430893347288184e-04,-1.043281083535887305e-02,-9.800720004099993332e+00
5.352367952818889128e-03,-7.991459859662294711e-04,-9.792543071297258095e+00
1.076015204861453280e-02,3.186440002184181240e-03,-9.799058445163408848e+00
8.659941937213255780e-03,1.818062551145802454e-05,-9.784927806802963701e+00
5.196864641337750959e-03,2.067753195376711636e-03,-9.792178949813834521e+00
-2.146154750229242389e-04,3.619620748190290581e-03,-9.794940695502011963e+00
4.510215177493604594e-03,3.205999354604987476e-05,-9.795277213662668458e+00
-1.034177457732535395e-02,2.252821801781405495e-03,-9.798152222022014968e+00
3.149606891403377434e-03,4.667446848178834033e-03,-9.790604398734267022e+00
-7.940770823593238520e-03,-9.423366114153628251e-03,-9.789454843445797749e+00
1.626996283241827906e-03,-8.343643747878994391e-03,-9.786718744578715601e+00
3.540271044423489843e-03,-5.859541856497349835e-03,-9.792157526395884659e+00
-1.195407345326554138e-04,-1.197378078441413331e-03,-9.801269152378438321e+00
-1.766138709631042726e-03,-1.189402199623048467e-02,-9.789338755876457299e+00
-1.310806281795250192e-03,-5.487114896684775443e-03,-9.795706759855328016e+00
-4.425513262750519101e-03,-6.161031430022312870e-03,-9.787654488112494278e+00
-3.295238041578786668e-03,5.494682480674565987e-03,-9.793873735724719864e+00
1.986570469409012531e-03,8.157626972986596961e-03,-9.791462050951576401e+00
5.075075342693917586e-03,-9.566331502090689304e-03,-9.791475327537611406e+00
6.122820555375251168e-03,-4.044704584561399814e-03,-9.791897955665270104e+00
4.020888572440792924e-03,-9.672422381315416056e-04,-9.792162684541066753e+00
-3.193178671207619074e-03,1.829514842974024318e-03,-9.792635013287528167e+00
2.241732941788266917e-03,-6.950945360509177889e-04,-9.793559709357650078e+00
-6.841311228173834738e-04,-6.202206234659811586e-03,-9.791736091163024014e+00
-1.803809045479979559e-03,-3.058612312435456245e-04,-9.795828092815838772e+00
-4.798426740935076915e-03,4.775937857666969627e-03,-9.798006877875863552e+00
4.436163558090374173e-03,8.687697769356770650e-04,-9.791515857698916747e+00
-5.769293706871704390e-03,-4.747992596520371001e-04,-9.795480402352906069e+00
-1.088427178991149477e-03,9.246936848527974968e-05,-9.792169379975204535e+00
4.404928872795717439e-03,-1.831375219406434531e-03,-9.793410249721487659e+00
3.843262631134032690e-03,4.283806987800083729e-04,-9.800619087740150448e+00
-4.179534290534299250e-03,7.462138583419221892e-03,-9.787016091371977922e+00
1.177239686199197874e-02,1.626150841014432826e-03,-9.800327816422385041e+00
7.116306858347903365e-03,-8.126474322457334989e-03,-9.805454950401310654e+00
7.943194229497392220e-03,-3.421202989948838756e-04,-9.799012440929548262e+00
5.284841957294343813e-03,3.645790717762384565e-03,-9.795936819584040833e+00
-5.611560618789184635e-03,-3.303558943738262293e-03,-9.790676377993230872e+00
7.174842115397778858e-04,1.181368941239868513e-03,-9.795860170139471634e+00
-1.846631117601431685e-02,-5.249447684314262341e-03,-9.785495430963665697e+00
3.238723172362177258e-03,7.555302277430992960e-03,-9.780957965765626483e+00
-1.870242716222466142e-03,-5.617369031155373948e-03,-9.795304868575984258e+00
2.519915747606758360e-03,-3.883629850022398376e-03,-9.796698377006741509e+00
-4.139611939155827397e-03,9.564545778685332178e-03,-9.794876740314496288e+00
3.840870149019083666e-03,-8.920935166554466028e-03,-9.793081334368373803e+00
-1.017003002624920945e-02,-1.369861350999349806e-03,-9.795239460813595755e+00
2.067539564070971538e-03,4.980288044889524205e-04,-9.795978132772793501e+00
8.169912989861145836e-03,4.342347742776667303e-03,-9.798638207332105665e+00
-5.289703756295741077e-03,-2.526280994177602327e-03,-9.789791072789176596e+00
-1.945948172844273912e-03,3.686124977269155181e-03,-9.788428520873118543e+00
1.498976696085091431e-03,-4.190859995922043956e-05,-9.795709363218884747e+00
-2.479225384670736936e-03,-5.146604241721445747e-04,-9.792750776256578860e+00
5.577932669812782351e-03,2.006680544734948824e-03,-9.790990926431149433e+00
1.073977812182464603e-02,-2.981278447838964230e-03,-9.788707444680186498e+00
1.465366301240588962e-03,1.291467862468075175e-03,-9.789383178806442487e+00
-1.076050696393550214e-02,4.611350010731220771e-03,-9.793186905356227712e+00
-5.980731679816672988e-03,2.281702043706443882e-03,-9.794344942694083400e+00
-3.140180610037338147e-03,-6.361984062118146779e-03,-9.799551214928543530e+00
-6.988184695702605266e-04,-3.696823359280369467e-03,-9.801356847075377132e+00
3.978099770534107571e-03,-4.213941590371473624e-03,-9.787003403530247780e+00
-3.716383340462658252e-03,-1.315831233297581719e-03,-9.796946831404373057e+00
-1.251416460925956244e-03,6.174572572702744302e-03,-9.789881511862768448e+00
-6.664442439357486613e-03,-3.546888210409363321e-04,-9.785909592857136019e+00
-2.158155597437945612e-03,3.398992347085766363e-03,-9.793610126464786347e+00
-4.977087261548106788e-03,7.970840377805252230e-03,-9.799656529756463286e+00
2.024846331444792903e-03,7.549033896080075724e-03,-9.795304262008047047e+00
9.762621408053980335e-04,-2.039590725321176580e-04,-9.792368955902478689e+00
6.145219672704668387e-03,4.697692849916737523e-03,-9.795763816770900689e+00
-1.383560179659075635e-03,3.229822743881669185e-03,-9.800574996434932018e+00
2.754588032944353497e-03,3.074692994476178887e-03,-9.802007284076024618e+00
3.716233031702254313e-04,-2.888547378704912254e-04,-9.787341965083166784e+00
4.052544014804954076e-04,-3.514415574757730459e-03,-9.792719922925016363e+00
1.641291725706384326e-03,-1.370902835645733181e-03,-9.787013817983556407e+00
-3.031034836479104023e-03,-7.815528017186265186e-04,-9.795623961560428583e+00
-9.980685717158963716e-03,2.934422093748308927e-03,-9.786347192414742935e+00
2.369917765250029174e-03,1.104212279415133207e-03,-9.803205694370742407e+00
2.683326827917026803e-03,4.126277205264795855e-03,-9.796704793827071711e+00
-1.134316958518748978e-03,7.603164802494484205e-04,-9.802553616990152818e+00
1.464512870509449417e-04,-8.099679064144807775e-03,-9.790199792462052741e+00
6.097876033225433810e-04,-3.922889103276398434e-03,-9.794723675286350684e+00
1.480952601129550007e-03,8.431490467019603363e-03,-9.792893470388111865e+00
4.465441283608440233e-03,-1.278142706610138580e-04,-9.791720015761660179e+00
-6.128125298696901306e-04,2.686048036506570678e-04,-9.785378287717419354e+00
-1.323174087854574188e-03,-2.204146253243069453e-03,-9.794981602454516434e+00
-1.234923223739349280e-03,-5.803766952380266797e-03,-9.787132387279868340e+00
2.168015236124022811e-03,-7.745989830497915229e-03,-9.795703388421683755e+00
-4.972065219693361064e-03,3.930128432621021219e-03,-9.794199122690823600e+00
2.463444478283962746e-03,-4.874176792351077141e-03,-9.791207936608985918e+00
2.311809638477022727e-03,2.981642496172560997e-03,-9.796324587623137958e+00
-6.059071155432541912e-03,7.588739519509913115e-04,-9.787138604432790601e+00
8.176240529183122219e-03,1.532922691437121031e-03,-9.795245792060690349e+00
-3.554875338371097510e-03,1.059320067786737388e-02,-9.803277073183668477e+00
8.035202223357192086e-03,1.685116392315153195e-03,-9.798260663494454903e+00
8.576806295026245808e-03,1.847325910377878907e-03,-9.803645739614669452e+00
-1.957294807123565947e-03,-1.868714223860631039e-03,-9.791074619262600365e+00
1.775733108175881706e-03,-8.131300242757769775e-03,-9.797379301812135566e+00
3.497122088605476332e-03,-3.565927945068849119e-03,-9.790613315439278708e+00
1.052060099445611095e-02,3.219881390763303618e-04,-9.797913287768272639e+00
5.341878149719102558e-04,1.127305547693356440e-02,-9.798734361521182379e+00
4.559674331947827404e-03,-1.348579186822184816e-03,-9.796078502109102359e+00
-3.303187829986955863e-03,1.033772400298581078e-02,-9.802093697370786174e+00
-3.871636353419101624e-03,-3.551848111709748901e-03,-9.795787497224099027e+00
1.916554717502448081e-03,-4.068759542357832173e-03,-9.798180939169265358e+00
-5.797645760664834648e-03,6.302458692492227989e-03,-9.799386164326376658e+00
-7.291118865000134099e-03,7.341624115506437251e-04,-9.791347820639892063e+00
-4.071853687713583407e-03,4.327618007801635296e-03,-9.796348423281846962e+00
-2.347207139769377955e-03,1.584489860942821064e-03,-9.794860380060226746e+00
-3.374770065615253709e-03,5.682772448437430415e-03,-9.801195176833621403e+00
9.226348905996778135e-03,8.904756240191596429e-04,-9.787830683479960214e+00
1.993401410382796002e-03,-2.598612058952425117e-03,-9.795730021542384591e+00
5.801503308520984323e-03,5.764359923930822624e-03,-9.796508861609014573e+00
2.075238501443172224e-03,-1.146220809123673755e-03,-9.792614429883348848e+00
-3.338753387574283724e-03,-3.567102283849853724e-03,-9.787438387142744389e+00
2.698193650397778375e-03,-4.668475035679601690e-04,-9.793572261935331369e+00
-2.501424858817462814e-03,6.832229119682540347e-03,-9.786747111273884414e+00
3.736915471651947040e-03,3.314151394815031786e-03,-9.789270533035812960e+00
3.495311057404049040e-03,3.432204489466433861e-03,-9.791947318995720906e+00
-1.158100679477860060e-04,-4.863763134338374740e-03,-9.793943027000350909e+00
-3.670122430181198877e-03,-2.208281841132959597e-03,-9.785471386457141207e+00
-1.648797816814998474e-03,9.593833229349169392e-03,-9.796033315100444838e+00
-1.774402752331535838e-03,-1.175048093976870708e-03,-9.791915519615953301e+00
3.905329525351657061e-03,-5.719204428318253562e-03,-9.796214461886137315e+00
-1.253544970503998445e-03,6.954515326978676429e-03,-9.790795901978192717e+00
-1.456042858798685911e-02,8.570976030853133532e-03,-9.791533684671730242e+00
5.880597784673926957e-03,-3.379165991680432597e-03,-9.790966243520770718e+00
-4.774747219848690660e-03,1.487933525649576044e-03,-9.781656857157347673e+00
3.452808272060879820e-03,8.244772349970333133e-03,-9.792557582331154364e+00
2.059341821760099760e-03,5.731628129078208955e-03,-9.793096246952471162e+00
2.104753694781354417e-03,9.335335275451975626e-03,-9.792321798716788095e+00
1.206701923137271787e-02,9.779017061873969581e-04,-9.792502909850576032e+00
2.726986777651524592e-03,2.709966733162777735e-03,-9.796580679807748382e+00
3.425479869615458139e-03,-5.648774949231599209e-03,-9.795547969299860824e+00
2.420331673923473408e-03,5.436671551352968181e-03,-9.793293683227895841e+00
-8.524494879370056021e-04,-6.086824932089798801e-03,-9.796408463247225029e+00
2.563795324476412976e-03,2.440882346175332444e-03,-9.793211510797307895e+00
2.051418119824162476e-04,-5.966874721370637319e-03,-9.793856863171518157e+00
4.450430357791871662e-03,-6.594070701082542334e-03,-9.790165770554441593e+00
1.072965168465112897e-03,2.762786520743084218e-03,-9.788583417568990086e+00
-1.135529415021130882e-03,-2.174246539730918283e-03,-9.795514244952384431e+00
1.510026472042991100e-03,-2.426971906298210514e-03,-9.790670161511556557e+00
-1.008773194620039663e-02,3.301235542231532264e-03,-9.800930880500230202e+00
8.154781461384546723e-03,-7.611084451611932478e-03,-9.799212733352984372e+00
4.366216132262980970e-03,8.932344252216785699e-03,-9.793695163243530288e+00
-5.184121871610246519e-03,-1.380771251820037300e-03,-9.805967854297970021e+00
-3.861840567880837037e-03,-1.328118216865678200e-02,-9.791793071103674251e+00
-6.633631235856324998e-03,2.748274936804798001e-03,-9.794397406261593275e+00
-4.351797948085767143e-03,-1.096685983356441435e-02,-9.798924874476721669e+00
2.632037781679140518e-03,-4.562404661961506382e-03,-9.793059347842733686e+00
-2.086505266757275774e-03,2.231087501809237914e-03,-9.798986168001974306e+00
6.414779452997132654e-03,-5.837027978114965598e-03,-9.791759793562222924e+00
-1.462625501669170304e-02,-7.871872573071266033e-03,-9.795951130717773125e+00
9.575881226354173315e-05,-4.435773701560546912e-04,-9.791350375771349590e+00
-3.054842191102465120e-04,-1.782038169073331402e-03,-9.797264624747432649e+00
-4.598785724314284964e-03,7.296349054869120249e-03,-9.796245922376606075e+00
9.869143265571577242e-03,-2.763087266415933160e-03,-9.794353929561085081e+00
2.887188154170812569e-03,-1.454423731828535533e-03,-9.792961289525157653e+00
7.474314553429778482e-04,-5.635073839502553403e-03,-9.796134361581957606e+00
-4.421318212630724262e-04,1.745012428351192186e-03,-9.786477174351167818e+00
-1.748625135876735390e-03,-4.069687606584326822e-03,-9.793915501766372600e+00
1.275798753606443431e-02,6.558884094373387645e-03,-9.791310115653780954e+00
-1.706891478593552686e-03,7.865435430313410387e-03,-9.801311818126796638e+00
9.467761981140984315e-03,-1.747533610838663187e-03,-9.788853976125089673e+00
-2.682372618390107925e-03,-5.930674726242912524e-03,-9.799370879845128002e+00
4.574162298493771907e-03,-9.551709792676582600e-03,-9.795613392576042244e+00
-1.376156583673680042e-03,-6.763165777589211572e-03,-9.789617120200857059e+00
-5.112285011675484631e-03,1.825714494360700796e-03,-9.785733870130892242e+00
6.551084029156366978e-03,2.919041043310605793e-03,-9.793009945924174176e+00
-7.725606919171922916e-03,-3.020336736534267805e-03,-9.787835343233508567e+00
-1.351812732145946105e-02,-5.560790427711652037e-03,-9.798228824966399131e+00
-6.494590126116982914e-03,-7.756873652568833238e-03,-9.811017221128482291e+00
5.144352072905281244e-03,-2.072009171401608708e-03,-9.797417005157855741e+00
7.942763999921319826e-04,2.215495302629572169e-04,-9.799389599546904250e+00
5.510862408591018710e-04,-5.688183798072704578e-03,-9.790674049902534648e+00
6.394296868354717826e-03,8.251453565496795831e-03,-9.794261702241978895e+00
8.183417518719478950e-03,1.259117500205489144e-03,-9.794824153840245629e+00
-8.216250709626416685e-05,5.429069022780199510e-03,-9.795217352922700016e+00
8.751869762966976935e-05,-1.372266339349943569e-03,-9.791130822597441608e+00
-3.133035143095665685e-03,-2.862071159528677480e-03,-9.797001987703618298e+00
2.111991649301442711e-04,1.354444042028128681e-02,-9.794467515627658827e+00
2.866222396964609488e-03,-3.739905184276579638e-03,-9.799541889784761040e+00
9.096956306284837562e-03,-3.921841951272426845e-03,-9.788427993546500616e+00
2.095620284343924569e-03,-1.732690496979442246e-03,-9.803066196028202839e+00
5.238624926039934723e-03,-5.300594456890639523e-03,-9.800400367860852668e+00
-5.921197935096778227e-03,3.392985084105836716e-03,-9.790527011419557724e+00
-3.984846885431650963e-03,-5.828258603181512773e-03,-9.793245964635735490e+00
6.400464402416312752e-03,-9.273336979208780112e-04,-9.790317633076966786e+00
-7.682830763240680811e-04,-1.311801835965447499e-03,-9.795968609520500081e+00
6.027740850046741294e-04,7.997441572447265903e-03,-9.796690214023275445e+00
5.694996000260156392e-04,-5.995470516690465726e-03,-9.804017517208476917e+00
-9.213272178734690024e-03,5.538625101628559880e-03,-9.799886281953741118e+00
-4.778916430036915172e-03,4.896886069161590985e-03,-9.787794306522334509e+00
-2.271287461256716071e-04,-3.500379927005662847e-03,-9.795667767587996622e+00
5.304684979295158469e-03,-1.224860178034212557e-02,-9.788504552013446158e+00
3.297279468194859366e-03,1.780482073884365104e-03,-9.788556015699530377e+00
-7.572510838637003770e-03,-3.828059191241365601e-03,-9.806053536742092902e+00
4.019372386302902216e-03,4.498949877270921188e-03,-9.789053401464693493e+00
-1.213925063117954686e-03,-9.880736436341410259e-03,-9.796830823506510910e+00
2.409213515141957196e-03,6.007344472336459407e-03,-9.798346488766343398e+00
6.729524750149375525e-03,6.517269205109629815e-03,-9.787587148331642339e+00
6.065320020950089666e-03,-4.399580810440165655e-03,-9.785569487389592425e+00
5.385819828442365079e-03,6.103147631514285049e-03,-9.790546596059943596e+00
-6.529892054202906734e-03,-3.459101251487118472e-03,-9.790535780472467309e+00
1.510312013011107582e-03,2.294476758995484672e-03,-9.795512393287529207e+00
-7.958591729614019261e-04,4.082423905074949837e-03,-9.791154133470016063e+00
-2.914146829921929194e-03,-1.649901348570654170e-03,-9.798287080871794785e+00
-2.584515082821315680e-03,1.273704674159026632e-04,-9.790642627784087892e+00
5.429093429634680550e-03,-1.058737648593494583e-03,-9.793834463950433999e+00
-1.503380746109969288e-03,3.201432616431328006e-03,-9.790667427549838209e+00
-8.203671710860949151e-03,1.034139495743738703e-03,-9.795763656716907519e+00
1.249952962497664910e-02,-1.416811111399986743e-02,-9.801666373792560449e+00
2.010606692332193163e-03,2.157241673346112221e-03,-9.798727837064557633e+00
4.779707988491354101e-03,1.070323748987844596e-02,-9.801310333519298368e+00
-1.545660329927289398e-03,4.786782399422919061e-03,-9.787447289929009031e+00
-3.204267593807544161e-03,-1.303068952584739929e-03,-9.800661808133433794e+00
5.365275060265364826e-03,-8.855705659503878766e-03,-9.791720499520616627e+00
-2.851862330614131271e-03,5.022382413818849561e-03,-9.793671029115529336e+00
7.610258726852059397e-03,-1.000778477625230076e-02,-9.788694289605768262e+00
-1.568169857734368674e-03,-3.048705454002741295e-03,-9.794373398886120796e+00
1.133623006024317707e-04,-1.532027998848290145e-03,-9.795686074568747514e+00
-5.106788737540482806e-03,-1.092347797555996702e-02,-9.800756700721501957e+00
-2.868251666654503132e-04,-2.036606850125095370e-04,-9.794170392872349140e+00
-5.198975818825300743e-03,-5.618950790646066139e-04,-9.785530676244500015e+00
5.359175616722786431e-03,-3.963581309192010195e-04,-9.792420222947066932e+00
1.348919019858388184e-02,6.450081935754420868e-03,-9.797063094858261323e+00
-6.070971000961565556e-03,-1.303065486058212728e-03,-9.790371968646297773e+00
-2.084219997590189711e-03,-3.343797786030428161e-03,-9.789046776590918597e+00
-1.968386196107298723e-03,3.476202044047223619e-03,-9.792820155868103171e+00
9.712825557279027846e-04,3.455731343147451073e-03,-9.794991495422479488e+00
7.987436944364443084e-03,2.896057737709935298e-03,-9.797141640324060319e+00
4.496219431144280951e-03,-7.304224200143307963e-03,-9.790164542266808212e+00
7.707037075754113835e-03,-4.498086610607021640e-04,-9.784543217715086172e+00
1.520815997033752448e-03,-4.481714617650325340e-03,-9.801232641943295576e+00
-2.424989591573277568e-03,4.503958766678947505e-03,-9.797487991667200191e+00
-2.167573602232774829e-03,-1.185805782541276068e-02,-9.787864559044180623e+00
1.027640419474754908e-02,-2.234015259711884596e-03,-9.794124625584755606e+00
8.038945329836589063e-03,-4.023961743965753096e-03,-9.794578770246832988e+00
7.900189203712902185e-04,-7.473860113214369875e-03,-9.800023049512970985e+00
2.737809900306802102e-03,-4.798275479493527198e-04,-9.787644952581775470e+00
-5.061455369111910602e-03,1.721067735888425669e-03,-9.792219192637451997e+00
2.073317749931246744e-03,-4.108957068094149130e-04,-9.794160936805912598e+00
-2.169504173642583435e-03,4.555261369674105248e-03,-9.792803080565189333e+00
1.068523440454775125e-03,-3.725568894231509869e-03,-9.796172855830047155e+00
-7.079935990785369638e-04,5.462141890930341439e-04,-9.786734254280103684e+00
-7.961645711185297769e-04,3.992966294453675555e-03,-9.801568864212120147e+00
6.887824337767787988e-04,-4.490513704286548148e-03,-9.796284190677528869e+00
1.604118065619808929e-04,7.951861075984752517e-03,-9.800386127266254022e+00
5.976837422245110006e-03,5.027639613651514782e-04,-9.791160062710176248e+00
-9.272359799071410585e-03,4.380225798132094230e-05,-9.805870240338313337e+00
-5.291065271676392498e-03,1.339076483474732713e-03,-9.791546861318476402e+00
-6.163678387045905434e-03,-1.053900502198319711e-02,-9.794118418018653571e+00
-3.213743590437416649e-03,-6.399577253546185826e-03,-9.794974005321837041e+00
3.931456521427336044e-03,-2.106790398079009738e-03,-9.790274578014761531e+00
4.562599910652118682e-04,3.005748240749035976e-04,-9.792210105767949813e+00
-2.340991957128185467e-04,4.160849310675306979e-03,-9.793085140313571912e+00
1.968862081773038904e-03,-3.508798830893562109e-04,-9.794914744723651978e+00
9.581409502196241339e-05,-4.211105701459834372e-03,-9.786025684282904535e+00
-4.142712236446543551e-04,4.286610615026168608e-03,-9.791696669984505164e+00
2.163936719479830299e-03,-5.130433181016297653e-03,-9.792452525098951810e+00
4.031175788695652747e-04,-1.655808343917899083e-03,-9.800847597380327514e+00
-2.170730898567365535e-04,7.573425875174221236e-03,-9.789551102429035367e+00
4.368290439066037909e-04,5.444121641939372001e-03,-9.791379379228365210e+00
-5.679630520281243183e-03,-4.813616151810521781e-04,-9.790426986304273882e+00
-1.622932231573369095e-03,-1.203259771361885229e-02,-9.784984931209457670e+00
2.188046516518356212e-03,6.965957862522275876e-03,-9.794696421910952466e+00
1.155504682571761605e-03,-1.868156690614448164e-04,-9.786617509347996346e+00
-5.379711064488708122e-04,-2.686886557146157426e-04,-9.790762647939944330e+00
-1.442541335708634378e-03,-3.292900286429262767e-03,-9.802251175434980368e+00
-1.283377390250232345e-03,3.052915036205338002e-03,-9.793355135563460934e+00
6.581174200638442240e-04,-2.579598589971631665e-03,-9.803578033190571972e+00
6.876796840993851939e-03,5.004679042205723884e-03,-9.796086118359319528e+00
2.330851383750329794e-03,5.063910562912614551e-03,-9.795166205863893083e+00
6.311512329296882322e-03,9.431796797436338420e-03,-9.798824284867594159e+00
-1.276899236470084142e-03,-1.314425595712529968e-02,-9.797572996891521058e+00
-4.745692057547492735e-04,6.010836376644651535e-03,-9.791637418543615468e+00
4.207440711209580603e-03,-4.398751658980103348e-03,-9.796010549553813007e+00
7.361824201090856959e-03,-1.006368603928878974e-02,-9.798812550370533003e+00
-3.788925971029494071e-03,8.028903081369885217e-03,-9.799006856404810506e+00
-3.887815626533108575e-03,9.817390090211597364e-03,-9.790905939264497704e+00
6.781118570033584612e-03,1.003967463143454544e-02,-9.796290139512086270e+00
-6.407711810268012370e-04,-4.228904507483947570e-03,-9.798364943583724340e+00
1.089537698422185768e-03,-4.136356029567497643e-03,-9.796866279808019939e+00
1.240436573155334447e-02,-6.225257940360183484e-03,-9.784840359275717603e+00
2.473112062010087570e-03,4.640683021624458782e-03,-9.793111832914034309e+00
3.241167682655130000e-03,6.238454596559080828e-03,-9.805669138935034113e+00
1.220912334897506640e-02,-6.427397525733506700e-08,-9.805135074266150497e+00
1.207232877087350805e-03,1.341665955862883768e-03,-9.796934588827964419e+00
7.891985873523589198e-03,6.532734386350120409e-03,-9.788833274296456111e+00
-1.238679776389454805e-02,-7.167321397897580271e-03,-9.794579011047650496e+00
2.904556443810698673e-03,-3.705922752760985872e-03,-9.794428104005701741e+00
3.061744364543748844e-03,-4.782978493795004681e-04,-9.794523504860247698e+00
-7.813198913219309132e-04,-4.339599772121922362e-03,-9.794195424517290860e+00
2.654939496779146722e-03,1.031452820235274209e-03,-9.793723182712279041e+00
-5.981109628472319620e-04,-1.136536964334253046e-02,-9.801155986085744232e+00
4.418518784722353689e-03,2.554139744681210768e-03,-9.793663141310508635e+00
3.450061645047138026e-03,8.178529390277151229e-03,-9.787264588107557728e+00
4.898721640728779039e-03,-1.104723346268061783e-02,-9.794094800647272336e+00
7.277347358169212370e-04,1.297264563508366934e-03,-9.792546347663696693e+00
-2.811976644426524181e-03,-7.493276731867963905e-04,-9.795719913724477479e+00
6.365485803384939023e-03,-9.093403432377890339e-03,-9.788123603860695354e+00
-2.556057135335900940e-03,4.890915727551640481e-03,-9.788165033150706407e+00
-5.437545274206168414e-03,2.680990850964317090e-03,-9.786000296563134526e+00
6.107228141585633978e-03,6.204081333277449220e-03,-9.792036108355912205e+00
-2.939441556751801014e-03,-1.109399906643751023e-03,-9.797791604613019345e+00
9.758115439605330801e-03,2.431129947586547612e-03,-9.795289422226897358e+00
-9.055089604160744326e-04,-6.215511015386970730e-04,-9.799583388201073220e+00
2.548106256164611727e-03,5.259410215207560276e-04,-9.790420185283982946e+00
-3.088701078050926953e-03,2.311473876256941659e-03,-9.794549799301741189e+00
2.410305696543254238e-03,-2.530116588950415135e-03,-9.791064926338261643e+00
3.514859900657061904e-03,4.629412852086145849e-03,-9.797912778172602088e+00
2.563818773581305610e-03,5.727444836373187659e-03,-9.795289992942521451e+00
-3.228988536200216083e-03,-1.694731128419853412e-03,-9.794100052154169234e+00
7.986956703078945674e-04,-9.469357047089759470e-05,-9.793631299369666365e+00
8.114340940989965903e-03,8.525456811997858325e-04,-9.791068784096426114e+00
5.822498728231674352e-03,4.006941945623252311e-04,-9.796267876206554703e+00
1.587807984281859684e-03,-8.156722222902776029e-03,-9.795087249754303116e+00
6.203521746908457861e-03,-7.132427464303504709e-04,-9.796091597146332930e+00
1.978038426522841890e-03,3.931810517179319545e-04,-9.798019545723336776e+00
3.879027265073598657e-03,-2.960996311705880969e-04,-9.799364094362607247e+00
-1.424908549327836378e-04,2.986387045329733526e-03,-9.798894610071254618e+00
-1.284128287534002950e-03,8.571558523419648724e-05,-9.797595697162661210e+00
1.212269495984705583e-02,4.045717037852090275e-03,-9.791446121109499856e+00
-6.108821136217110030e-03,4.258240663689540767e-03,-9.789456219664808501e+00
6.340858216405810370e-03,7.615258725736732612e-03,-9.795217480448448200e+00
-1.910913373204888846e-03,3.282219783916867466e-03,-9.791132002168724924e+00
-1.176107479167335171e-04,-5.665159307496488682e-04,-9.794535941411167457e+00
2.099131853761333506e-03,8.227054361014074458e-05,-9.789808575019007364e+00
3.915588039497865276e-03,7.551354178964785405e-03,-9.797814533203371923e+00
-1.928119843896332428e-03,9.507708649803732221e-04,-9.794398328727394798e+00
8.217663000531040540e-03,-4.382981956760546860e-03,-9.790588624932693662e+00
-1.172609036841984302e-02,2.581458668302817616e-03,-9.804128447712301409e+00
3.116127529503312944e-03,-2.498557145632461160e-03,-9.785261441206051458e+00
2.077223541349594929e-03,1.002531539368868227e-02,-9.791569042551426350e+00
2.767040589786415143e-03,-2.309646268759733487e-03,-9.786603376090175388e+00
-2.266266873417408781e-04,-2.688949450836208149e-03,-9.794980104519998676e+00
2.972892422527346427e-03,1.370930075741861156e-03,-9.799226400187324160e+00
-3.845626003168825004e-03,5.090620675162016266e-04,-9.798815846631379500e+00
-9.814357490461583355e-04,1.245183237907192784e-02,-9.789003002406142073e+00
4.403711496009276444e-03,-2.965768851629105481e-03,-9.787896813033153620e+00
-8.054118006499326552e-04,5.078503528252656732e-03,-9.798819547570680299e+00
-4.507872077570926686e-03,5.423579096784825367e-03,-9.798465894811080545e+00
3.861683264487350293e-03,1.447411633613481571e-03,-9.801315564193140872e+00
-8.223764377451810853e-03,2.796657383699981212e-03,-9.795485750749202580e+00
-3.271613563813784761e-03,3.840797914118202101e-03,-9.800729089767715507e+00
5.141784354167116579e-03,-2.171446117072159312e-03,-9.792494694739040995e+00
-1.508834820589971537e-03,1.264096942553880575e-03,-9.792758421206215758e+00
-9.028313804913961488e-03,-1.150622648912484744e-03,-9.798216761574565226e+00
5.763173951345288912e-03,5.237911559876935221e-03,-9.795866979431199439e+00
3.534621102440094979e-03,3.469607329834392424e-03,-9.790775816195415260e+00
1.452700792608335213e-03,7.192719125412814878e-03,-9.790367107308952654e+00
-7.992201891009286310e-03,-7.305779461201871057e-03,-9.800281761933840485e+00
-3.270349709595619329e-03,-5.001244745069964234e-04,-9.794067737812852670e+00
-6.546648911615866526e-03,-2.614780217894084862e-03,-9.801097067747745584e+00
-4.512628258075057283e-04,-3.481273701981564463e-03,-9.792267275753092193e+00
-8.706601945622914618e-03,4.692139894224001823e-03,-9.795703472170805171e+00
-2.438671040993483242e-03,-2.539777442042256105e-03,-9.794993284640176157e+00
3.971328407925031959e-03,-7.508272424386333230e-03,-9.801949160224815216e+00
-2.006044802536291125e-03,-1.737015142163387139e-03,-9.793455552543615994e+00
5.105455269511176460e-03,-1.861004625160272161e-03,-9.792030011327831573e+00
-2.119406822259184246e-03,2.830859072192003049e-03,-9.791336536738127094e+00
-3.584393254053805725e-03,-2.201341310802555889e-03,-9.789945096311814865e+00
4.884805965468054338e-03,8.039326199436298490e-03,-9.789935469708831661e+00
1.020749841265293587e-03,1.086996859302348040e-03,-9.797355514828888445e+00
-1.448320140546588593e-03,2.285068949535957582e-03,-9.789583449471836119e+00
1.098059757397030697e-02,4.394407688780724644e-03,-9.801266763426704998e+00
-2.260692606655419603e-04,-5.880091899463906618e-04,-9.800152537904555317e+00
-3.836803661953902024e-03,8.777350876638985097e-03,-9.794175459044511811e+00
7.013654615451485157e-03,1.817478540844619283e-03,-9.793708760083328357e+00
6.649534601038036528e-03,4.343953290903021514e-03,-9.795787972023363821e+00
7.675791221489638647e-03,-6.219245253666341386e-03,-9.794824713846260522e+00
6.688706099862542706e-03,3.323478252508188339e-03,-9.802980484351250468e+00
9.955024469223420136e-05,-1.001296979674949281e-03,-9.780621520328532270e+00
-1.878611767158344312e-03,3.239967882002595372e-03,-9.798439231524911364e+00
-6.647884009427365744e-03,5.882492919543186836e-03,-9.795474640278600376e+00
6.947754524223468883e-03,5.560667736810790372e-03,-9.789053694208300627e+00
-2.318970180985939185e-04,-5.555252938492748031e-03,-9.786776560615289000e+00
4.314677502706121791e-03,-3.101209947538242050e-03,-9.787144650627999098e+00
9.452281915197298032e-03,1.834427271277045985e-03,-9.791169892010502807e+00
-2.999486256927160963e-03,-7.324196228457518359e-03,-9.791416033312358991e+00
-6.487109986021707443e-03,-1.910656552994137404e-03,-9.795937602956175994e+00
8.637639586073242795e-03,6.565404025100239974e-03,-9.791144955199026612e+00
-4.223309431731030877e-03,1.038141419857080416e-02,-9.800805332126898861e+00
2.119552015371306899e-03,2.049227784266944175e-03,-9.791726655773967281e+00
5.877046912309524503e-04,5.051636225893977976e-03,-9.794421070385501693e+00
-4.083573408350014457e-03,-8.547485339559577136e-03,-9.786107302523674889e+00
4.436796555906000281e-04,5.109941253784556527e-03,-9.802518450079634960e+00
-3.530010426475428415e-03,9.807616201683643647e-03,-9.803444210336213160e+00
2.214321153434979563e-03,-4.753500071869574441e-06,-9.796866737625167687e+00
2.563106725380076209e-03,-1.681125126381096888e-03,-9.797659195534414778e+00
4.479345440250182692e-03,2.294774626063862503e-03,-9.789401970925704077e+00
-3.030919789115606167e-03,3.629537276787514737e-03,-9.790927203816796265e+00
3.998244541668288105e-03,-5.845814640526121250e-03,-9.792900766478835450e+00
1.511132259921470081e-03,-2.923919778646600406e-03,-9.792879470823388388e+00
-5.192771674414040778e-03,-1.121950167501022631e-03,-9.796036911375704648e+00
2.926599526011501064e-04,2.985190622154734394e-03,-9.795720496126547161e+00
4.895381011514849702e-03,-7.592675143820983019e-03,-9.803148865004498447e+00
-5.562493755687823900e-03,8.543862137646416124e-03,-9.795380535278978229e+00
5.663707022353989783e-03,4.547579316654793910e-03,-9.802279882419464130e+00
6.934876782566006329e-03,1.148461390962377416e-03,-9.801139579067060126e+00
6.287903284975509405e-03,-3.548416669257169198e-03,-9.794519962236501343e+00
9.923053559459699309e-04,1.583371091853490176e-03,-9.785996987940105640e+00
3.704145951280829550e-03,1.240114941864709549e-03,-9.784894984960518016e+00
-4.877374565572125233e-04,-1.944025338185881475e-03,-9.795035853786036029e+00
-3.696035177049752322e-03,-1.523576159119837759e-03,-9.800622626650595137e+00
-6.433764463605577341e-03,1.017899565381447102e-02,-9.789519449964927844e+00
-4.279593065521972335e-03,-6.262750658220963065e-03,-9.792942705100191603e+00
8.932727301372453367e-04,3.379218584592025634e-03,-9.798079308798129716e+00
2.089162833658039613e-03,-7.790250316426049725e-03,-9.797862122008407226e+00
2.266920634849734265e-04,3.759228518910939267e-03,-9.801957949986730867e+00
-2.016693660471165130e-03,2.681384626555821746e-03,-9.795816218126921271e+00
9.121217594483583060e-03,1.035640757382972742e-03,-9.791622952982795169e+00
3.020456254223776935e-03,1.594650667674239655e-03,-9.796739041834129580e+00
9.189967696887615597e-03,7.603103464188170485e-03,-9.793607506250495476e+00
-2.496519217158387188e-03,-5.636751817251282014e-03,-9.807992309645339191e+00
-6.760088721177082496e-03,-9.522033742345328931e-04,-9.786772450784779309e+00
3.761016098747735088e-05,-3.289578081801417236e-03,-9.798694213985333690e+00
2.793315547504138588e-03,1.738417856530011327e-03,-9.786350281366990700e+00
-3.902644460433079936e-03,1.294150642260356431e-03,-9.794733037482313165e+00
-2.992925531206472919e-03,-8.442678263441880625e-04,-9.795011462652240652e+00
5.967649925859453558e-03,-5.487265080105661538e-04,-9.798771323762165864e+00
6.073544713373446417e-03,-2.550121665962756107e-03,-9.793755059730493429e+00
4.331666853215200390e-03,7.948471627637468178e-04,-9.789563774897334980e+00
4.702456251398809579e-03,1.319122563943313751e-03,-9.797173913598216544e+00
-3.271700065994093652e-03,1.059085004693387038e-04,-9.793702324104833323e+00
-3.754343415085882162e-03,-1.727619900047161049e-03,-9.788534063010013497e+00
1.248669347144738947e-03,6.273646250893259420e-04,-9.790763947036795756e+00
1.256201575909596246e-03,4.602013048610259331e-03,-9.798456306903911894e+00
-5.517422410669537564e-03,7.271342798511028216e-03,-9.792325732421000239e+00
-2.239827972230479941e-03,2.182092118151046298e-03,-9.787965935273815532e+00
-5.496695679972979191e-03,2.955573378170129727e-03,-9.793460089320353390e+00
-1.453438523897118001e-03,3.957348857175028837e-04,-9.802166055145752566e+00
-3.231761494996938065e-03,1.063560474026357082e-03,-9.797787268808308525e+00
-9.324438406683666775e-03,2.201805587431431444e-03,-9.800435853700125932e+00
4.187397138299681423e-03,-7.519111522860452831e-04,-9.799443554536363621e+00
2.250434811494064595e-03,1.226451993209135959e-03,-9.785388486904770033e+00
2.708840857551308295e-03,1.041018818310732435e-03,-9.803398029429331473e+00
-4.239344120334623267e-03,1.011756498438717497e-02,-9.789847539573615975e+00
4.165967356802714565e-03,-1.675360184794103501e-03,-9.792405951047189916e+00
2.162752866862803318e-03,-9.563137191453654345e-03,-9.794758390655315949e+00
-6.325580857185340855e-03,2.276898337477230912e-03,-9.791534610754450085e+00
8.988748230897451730e-03,3.912345140660579770e-03,-9.795096893848395325e+00
-7.749120595711374293e-03,-5.409046623550738640e-03,-9.788559423945756066e+00
5.921217772749676200e-03,3.883285566148922223e-03,-9.795145859049483761e+00
-1.041311317580564336e-03,4.307302045299238151e-03,-9.792124646178091751e+00
-8.135489593754466689e-03,-9.761768544335553072e-04,-9.794807331994629607e+00
3.134526102399348875e-03,-4.469670796494802645e-03,-9.793875235414624569e+00
1.767626268160115647e-03,2.453464008232472682e-03,-9.794334719299717662e+00
-6.779693694388143387e-04,7.314118421876888120e-03,-9.792210067917981320e+00
9.573651936748413943e-03,7.702664327517491985e-03,-9.790793384119774956e+00
-3.026169475025329830e-03,-7.718411224555110292e-03,-9.793377008408688411e+00
-1.448864763050543769e-03,-5.181673635583995512e-03,-9.795345910151615598e+00
3.664438162637759927e-03,-3.083009353189186067e-03,-9.787130496814720360e+00
-2.061693262877144824e-03,-4.013533702498897279e-03,-9.794845812149841180e+00
-5.131407362173075323e-04,1.816877361875671084e-03,-9.801407888097603660e+00
1.988424094494045322e-03,3.245230164588290035e-03,-9.789969442785405818e+00
5.220835468722600722e-03,-1.946804593626772634e-05,-9.800211913164670108e+00
-5.591297055620380110e-03,-2.478204115971378244e-03,-9.793375686814831838e+00
2.743042007117460924e-03,6.425288106763909915e-04,-9.794993020931723748e+00
8.147529116738993181e-04,-6.185571684115955676e-03,-9.799183353576504274e+00
-7.819610687099156493e-03,1.361399707493441552e-04,-9.800512719607672452e+00
1.089042223085695711e-02,9.831145748030532816e-03,-9.794221516139298700e+00
-7.551382766490795893e-03,-6.508142512356095664e-04,-9.803865433917989591e+00
-2.596884400821079710e-03,-2.618062825690602256e-03,-9.798964781361998888e+00
4.558637435245645880e-03,-9.202334739034201405e-03,-9.801421872230928756e+00
-2.920680053049501575e-03,2.412239488249469984e-03,-9.795713283171521013e+00
-1.046748852347514740e-02,1.115860970855183341e-03,-9.790681134363788729e+00
1.475301607947858548e-03,1.342450137682083423e-03,-9.789107122908212943e+00
-2.765835761103425851e-03,7.398599974925109887e-03,-9.802075007377007765e+00
-7.987772395407152087e-03,1.218107716273516584e-03,-9.791182457978155895e+00
3.050701621531515337e-03,6.868995513531204241e-04,-9.790293532754864358e+00
-1.105627028620942507e-03,-1.002535386372714957e-02,-9.797058244087388346e+00
3.628418215061907526e-03,7.541708208323806388e-03,-9.796330975208574543e+00
4.334811438112064035e-03,3.261922577609818914e-03,-9.787800828268935049e+00
2.272814307602969309e-03,2.218434555807553658e-03,-9.796105846180227061e+00
4.941992850548635949e-03,4.093737327331583783e-03,-9.797789625841669903e+00
6.818313005339565920e-03,3.339825307984679251e-03,-9.800204830826437785e+00
-2.825908365975434225e-03,6.022134819633205224e-03,-9.790714618766038768e+00
2.220003126782018818e-03,3.477663755100824511e-03,-9.797555996189680982e+00
5.618458794286417240e-04,5.423815170702083778e-03,-9.794444703707780420e+00
6.525054061893221201e-03,-1.179812712347114156e-03,-9.790518672896945773e+00
-9.879984335881713577e-04,5.692502824387735486e-03,-9.793573260154282423e+00
1.324577732361900684e-02,-5.982394643078863851e-03,-9.787416755105185828e+00
4.779585203222657709e-03,1.986461996460491940e-03,-9.792954259480088908e+00
2.182515996494921624e-03,7.386013009463808510e-04,-9.789363335880295836e+00
7.062429623726232397e-03,4.557023300094904111e-03,-9.797551758855018278e+00
2.159143683400930117e-03,-7.527745632884869260e-03,-9.800408323719905113e+00
-1.392855684718769145e-02,8.406092241400575085e-04,-9.789204579662639460e+00
3.041245645790535018e-04,1.366370742670828479e-03,-9.793228293697337605e+00
1.886972786251725617e-03,3.767250857449719933e-03,-9.789222924011355076e+00
-7.067736009718527009e-03,-2.214226505479136974e-03,-9.805658934148802075e+00
-2.326130148402670399e-03,-2.038636200086326768e-03,-9.807403536675684208e+00
6.367435058518403947e-05,-7.276816595002206980e-04,-9.802359583064163218e+00
8.163554469901791906e-05,1.080922948742056404e-02,-9.799010549199552500e+00
3.643918617907828533e-03,-6.921754330189320778e-04,-9.798318884219611391e+00
2.684786478872926759e-03,-2.303490007524545274e-03,-9.802914801502206288e+00
-5.873645177970484958e-03,7.385289357839310009e-03,-9.793751315379587652e+00
2.755635369439022545e-03,-9.538433154237413447e-03,-9.792035214544323907e+00
-4.105585907963542162e-03,1.423860886739669856e-03,-9.794839731353775392e+00
-4.299260832967561306e-03,-2.763481832620472058e-03,-9.784980473093359166e+00
-5.057587078151098980e-03,-2.836021619746082779e-03,-9.800330834404864078e+00
2.187967605925336678e-03,7.119126262964972640e-03,-9.787856692936115266e+00
-4.363301764754496694e-03,-5.813020986495231329e-03,-9.794537943937728031e+00
-1.409614883307892547e-03,3.177581653478248579e-03,-9.787373247736455895e+00
-1.935139864064655763e-03,-5.514981801425635453e-03,-9.795415314665753215e+00
-3.429514294976339188e-03,1.477793532956658872e-03,-9.793052454982932531e+00
4.036997244086944735e-03,1.964918495098188535e-03,-9.797663342148858590e+00
2.787577132598171876e-03,1.585064356894888560e-02,-9.792881915322981357e+00
-2.644892367269550092e-03,4.010865534507000035e-03,-9.795138408352624282e+00
5.388722312063711330e-05,-3.525226558947094999e-04,-9.799376570011348875e+00
-4.496022405160777667e-04,5.685409444321736297e-03,-9.790740117329878700e+00
-3.996589465614855743e-03,3.904458356072573744e-03,-9.791316547537125103e+00
1.868245346232585286e-03,-1.748736208407520275e-03,-9.798400165314586019e+00
6.517718562982443252e-03,-3.413725294159835211e-03,-9.793942046260990963e+00
2.876155447063648285e-03,8.344793632491407862e-03,-9.791222118489660176e+00
3.994861914265135545e-03,-5.502198846004465078e-03,-9.781634416769851015e+00
-1.235860147671621542e-02,-1.539810090285880515e-03,-9.787494745562771215e+00
1.884369830538564460e-03,-2.363228579059305483e-03,-9.790107569674706411e+00
3.410802810382647376e-03,2.764101025384197493e-03,-9.797957502089136739e+00
-4.396995783529446949e-03,-2.664714490719524796e-03,-9.796067564634364899e+00
1.966096826007892370e-03,1.256103208420825254e-03,-9.795526875382977394e+00
3.811566454543395609e-04,-4.973279444932276507e-03,-9.791019848030856565e+00
8.470205260969936381e-03,1.779796737599664662e-03,-9.797116573048326060e+00
5.135771384146560828e-03,-1.350694161258934314e-03,-9.799469187905019751e+00
-3.695134603903047453e-03,2.747160787820584170e-03,-9.792402619266812991e+00
-4.541120644976475926e-03,-7.520410509437197230e-03,-9.793156096386880449e+00
2.473607970769358300e-04,-1.984234610299125991e-03,-9.793285764311518093e+00
8.565035461212959673e-04,-5.614178512212819735e-04,-9.792197118926200261e+00
-5.111490029530547062e-03,7.265346314607018172e-03,-9.787378833414830837e+00
-2.676330331347759328e-03,-2.957767004861530050e-03,-9.788092764352219532e+00
4.783677774233694585e-03,-2.919054339385693513e-03,-9.795758735914189330e+00
-5.188416172847738241e-03,-1.996460600342529410e-03,-9.792303699211615253e+00
5.198142285182139402e-03,-1.070915576427257029e-03,-9.791905740073641340e+00
-7.612984949787163572e-03,2.263964072694776234e-03,-9.804858911611534111e+00
1.340186348878086081e-03,3.922197867891580314e-03,-9.799899776242391169e+00
-8.910933962013140811e-04,-3.607648147218465908e-03,-9.793013269764070827e+00
1.188429216942562400e-02,-4.125457632922422714e-03,-9.785885043012662265e+00
7.885925572525979976e-03,4.631363820624644079e-03,-9.790814138533367128e+00
4.396513494629197306e-03,-6.891908144498767527e-03,-9.788845807221109752e+00
-3.182612247091131871e-03,5.497319188476885001e-04,-9.792301160378762859e+00
1.091362327094626576e-03,1.547692685104827071e-03,-9.793309966911726505e+00
4.104224592753037693e-03,-4.873959094767881016e-04,-9.800387534972960779e+00
-2.980829147681047890e-03,-4.403033410314990091e-03,-9.799725609360416811e+00
-2.894315763773460011e-03,-6.691914003330236456e-06,-9.790174981053176850e+00
-1.981312653390168189e-03,7.252273682534817779e-03,-9.800061283597379713e+00
6.843585274876835822e-03,2.103978819779092971e-03,-9.782064966206386103e+00
1.615720497180723417e-03,4.242260608526435273e-03,-9.796184399043625035e+00
7.849243860076444632e-03,-2.466974165072218731e-03,-9.799374124640168660e+00
-3.191348142866329979e-03,7.912238902565598905e-03,-9.801127070834750654e+00
5.002126885497780971e-03,-4.458742066789347838e-04,-9.801783844497707676e+00
-2.465250504440527103e-03,-3.119387244007365903e-03,-9.799981267215606806e+00
2.263179085934541312e-03,-1.756944276863363699e-03,-9.790095550912861100e+00
9.590595024472056696e-03,2.290452059286687651e-03,-9.792177161944300323e+00
3.521047180727688262e-03,6.671920474285684098e-03,-9.787402097925198774e+00
7.003449124016502061e-04,-2.948625731177690733e-04,-9.796579388191437587e+00
-5.169286358402998618e-03,4.078344559323312623e-04,-9.783331867349655653e+00
-3.437594852686938398e-03,6.457480754001781835e-03,-9.793730441583381463e+00
1.257289251645387664e-03,-4.744866508734344943e-03,-9.802265787058310309e+00
-2.698102364962752693e-03,5.361392285081663552e-03,-9.796578901031958608e+00
-4.886469664156137260e-03,1.013828239764137489e-02,-9.792728311271149622e+00
2.199569631937365894e-03,-9.851883949262387526e-05,-9.790176116088145974e+00
-5.512937121668893799e-04,8.714082748858124113e-04,-9.803429996106855171e+00
4.614299935350427736e-04,-2.493571113869364007e-03,-9.796039390148690629e+00
-1.611775550811652986e-03,-3.845388514914953922e-05,-9.797482425754463264e+00
-7.404986254016471606e-03,1.880778578616939352e-03,-9.788091943492512215e+00
-2.628900808355814564e-03,2.275100527798483690e-03,-9.788421569975733760e+00
-8.743353218649435946e-03,-1.169279470228450860e-03,-9.794943587609004965e+00
-3.196334480644253025e-03,-4.035956894032305051e-03,-9.794730614821801851e+00
1.687516184970000704e-03,-5.806242947713073470e-03,-9.789786327994876913e+00
2.589592773235152058e-03,4.429339215402542176e-03,-9.798272043080254790e+00
-6.106420737718476141e-03,1.672343190347265799e-04,-9.801886403984074292e+00
-1.912158847574327953e-03,1.921022711651721587e-03,-9.795337637138656461e+00
4.986344943802852037e-03,-3.927755820516827881e-03,-9.789041599793680604e+00
-2.218936023222714028e-04,2.411235412947091306e-03,-9.781520446071553465e+00
-3.380712891372736600e-03,7.677228728320963785e-03,-9.792520508058599304e+00
4.022548339715728560e-03,-1.584764352748495352e-03,-9.792282548831169109e+00
-1.125830556755438167e-02,-6.895603584330979585e-03,-9.794368515373442108e+00
-1.810000784445717562e-03,4.224410375350231422e-03,-9.797700684269889493e+00
-1.411792430229678961e-03,9.956306321691506603e-03,-9.792161047859151424e+00
-5.850448549751651600e-03,-4.901951647519398221e-03,-9.795646738948903476e+00
6.712628729523128536e-03,4.710811433652420041e-03,-9.789499607636011902e+00
2.018380650243714516e-03,2.580622159879799801e-03,-9.794918519027113746e+00
1.339027632270382850e-02,3.069075193032848488e-03,-9.788605966783352486e+00
1.263147301495398797e-04,-6.687288838621231919e-04,-9.792185356576316835e+00
3.814697618353455819e-03,4.876068713659706746e-03,-9.797490090050281708e+00
-3.854324332536469833e-03,4.401924182100692799e-03,-9.788209416247534378e+00
1.369856742229960461e-03,4.043204951794060020e-04,-9.786542989235162082e+00
7.345715333822364339e-04,-1.194893734129539968e-03,-9.797646697760431067e+00
-1.099708077073617910e-03,-2.790700498341432047e-03,-9.800267288080094730e+00
8.010435299675260079e-04,-1.357083549813730382e-03,-9.794825478018477583e+00
-7.233039525377786549e-03,-3.000524361394913200e-03,-9.794004662409042439e+00
2.071361726703783383e-03,6.488507552833485716e-03,-9.798009214400972056e+00
-1.557034041401994789e-03,8.883520323160950041e-03,-9.801768945377597575e+00
1.916697306010978251e-03,4.674689381431292035e-03,-9.793396036838776908e+00
3.363738210260596058e-03,-3.087848441900535503e-03,-9.795283987451815833e+00
-4.771243420402928280e-03,4.010421174625143463e-03,-9.795707384944028817e+00
2.278487149535764027e-03,-9.237691884870716111e-04,-9.793744423964639623e+00
3.024874407886163092e-03,7.032220431273026023e-04,-9.798797462684831316e+00
-1.114022847655000981e-03,-2.342574612358389952e-04,-9.798332354493300755e+00
-2.270455621352801458e-03,6.644256471251113729e-04,-9.797817794164677352e+00
-1.296727286492058932e-03,1.132301828059965876e-02,-9.803591173598364961e+00
-5.731919972634996231e-03,1.991566463132692089e-03,-9.798469820786705142e+00
-4.359423013259178118e-04,-9.721332036622283828e-04,-9.793343138826282157e+00
-9.103124509031890188e-03,6.538702713983136038e-03,-9.788189134862555818e+00
-1.738508024424418371e-04,-1.289116394175725353e-03,-9.796168167892268741e+00
-6.494135953220424740e-04,2.687606848729311160e-03,-9.796325086383257386e+00
1.060837876940581848e-02,5.291765576929157583e-03,-9.800513836680391222e+00
4.298354588193777429e-03,1.276879336165552548e-02,-9.789323829828358470e+00
7.814468504799547844e-04,-5.052304638709873702e-03,-9.798583200396725701e+00
4.464722038146858897e-03,-2.981707004246534221e-03,-9.795208252631464774e+00
5.632978464283639602e-04,5.959692876350540687e-03,-9.798943418984189080e+00
-1.929926227053997342e-04,2.244336132710446352e-03,-9.788211613371919029e+00
-1.652220838574306599e-03,2.881247624068330408e-05,-9.792359739688320630e+00
1.339027734210165507e-02,-1.621121347970697502e-03,-9.781900778300427035e+00
2.471332211447116890e-03,-1.859217320725882949e-03,-9.798983792446666286e+00
-3.263128272238012204e-03,3.560547522312973098e-03,-9.791413033725660853e+00
2.546015838685133491e-03,-1.886850776565607854e-03,-9.791266911965960773e+00
-2.459806337942034744e-03,-2.972999575447211624e-03,-9.796410222765173259e+00
-4.973769268960335187e-03,-4.796447793253251837e-03,-9.803885595819771481e+00
1.472542067671786222e-03,-2.009977201345026186e-03,-9.782716050665255736e+00
1.146644727505052863e-02,1.107364713867918776e-03,-9.794423046568628166e+00
-4.975248080117766411e-03,7.966995411718332323e-03,-9.800548310806556529e+00
-6.482505847701372156e-03,-8.866979308678022906e-03,-9.791114423501742436e+00
-1.293594833772065186e-03,8.100844109719409179e-04,-9.793399137925243636e+00
-6.495797037552861197e-03,-3.712651065222252918e-03,-9.778333426184826038e+00
6.186663462504599954e-03,4.340768833983514249e-03,-9.788495685675842495e+00
5.892403693988654354e-04,-9.102500543410976287e-04,-9.807129445803983714e+00
3.905620239741982615e-03,-3.905015977615422171e-04,-9.788116835824174800e+00
-4.173771694009826769e-03,4.902532139825806342e-04,-9.797537309889804646e+00
2.629670789705572387e-03,-1.664284990399071814e-03,-9.801450451834490707e+00
2.295774523868922192e-03,-8.028011936494232684e-03,-9.791878254684027283e+00
2.249299039689486683e-03,1.085916847054203133e-02,-9.795276467964228573e+00
-8.737449504811912321e-05,-3.047017425905944581e-03,-9.795685221377429031e+00
-3.647122094904446318e-03,4.334123413183216321e-04,-9.794747695132295817e+00
-1.652158523858436156e-03,-1.097270340593171738e-03,-9.793136239268182663e+00
5.004709538346436420e-03,-9.937152237933517818e-03,-9.789263983716224971e+00
4.135829351372549700e-03,-2.415173602858021375e-03,-9.797851294820352663e+00
-4.509959493529646854e-03,7.908553253201132394e-03,-9.791711704106035086e+00
1.593754526401500908e-04,-1.877776873254322423e-03,-9.801749876064302924e+00
-1.025450054828415392e-02,3.297359834423050327e-03,-9.803252120090096611e+00
5.577226534853525416e-03,8.640718537068702802e-04,-9.796331689902906703e+00
2.974752169711111695e-03,-6.068712756623809157e-03,-9.786691028292525019e+00
4.752403681787415249e-03,2.992283221402948154e-03,-9.790550138246819856e+00
1.249047811428783631e-05,-7.874949808502115095e-03,-9.795300073005963171e+00
5.266971050456775542e-03,1.198930986263852232e-03,-9.798025768808340530e+00
-4.172578062936868962e-03,-5.849660717164922516e-03,-9.803575274789569249e+00
3.640180891224030144e-03,-5.749864884683276653e-03,-9.794213723903141045e+00
9.296835409577829806e-03,-5.847160437789452811e-03,-9.796327488465472300e+00
-5.824350842581889299e-04,-3.095796090196061175e-03,-9.797299397822609279e+00
3.425515001019964999e-03,1.273135220606885082e-02,-9.801010097818428690e+00
-3.529094403426175260e-03,2.042319669235278211e-03,-9.790505054808400942e+00
8.580128162943781098e-03,-4.600471873133296641e-03,-9.785226887386357930e+00
-3.979542338434218993e-03,2.489628616540692872e-03,-9.794811325945737224e+00
9.972036310993949437e-03,1.107706242321755295e-03,-9.803537969912930805e+00
5.893344722773900639e-03,5.037895010977356744e-03,-9.786007891558183402e+00
1.184062082254072092e-03,6.821079776331937829e-03,-9.797627925489555523e+00
-1.532227640327777935e-03,1.722939051921240465e-03,-9.786994943887089349e+00
2.039559152361643084e-03,-2.186700097802200555e-04,-9.806670111553312807e+00
-1.845021892496750623e-03,3.174018468244861960e-03,-9.788142080152756108e+00
2.147117756535936364e-03,-2.187831616395140982e-03,-9.789865941161409069e+00
-5.252761623578771841e-03,-2.342980099452951015e-04,-9.783987699360102042e+00
-3.004087446733164253e-03,8.282092897558476774e-03,-9.793279525514742900e+00
-4.959309393307186585e-03,2.215675610970417337e-03,-9.799909047162817188e+00
9.443704605858068389e-04,-4.384593981464426221e-03,-9.791796680175311351e+00
-3.398078314326626916e-03,-5.460739371029247734e-05,-9.791265970581465083e+00
5.218695758608752830e-03,1.798082787090293875e-03,-9.792702987418120841e+00
-5.136122048474012040e-03,1.178893226998033519e-02,-9.796660752007550599e+00
7.042742523128136135e-05,2.626589013078732028e-03,-9.790227769661642654e+00
1.399770897475792301e-03,-6.459592777478066414e-03,-9.794497007544048728e+00
-2.602326141103973416e-03,-2.661967422514670278e-03,-9.795997377110237991e+00
-1.584754164686973761e-03,1.814440539049153468e-03,-9.798168296154845081e+00
7.922011951253181763e-03,5.404295692085602301e-03,-9.791183590571950646e+00
-2.245090081039863121e-03,-1.278896960395431003e-03,-9.789118898517033429e+00
1.844591877706356188e-05,-4.497750837561224381e-03,-9.791425178262233686e+00
5.074499107246004288e-03,-4.830311526903790890e-03,-9.783861538932944413e+00
4.472134053324396119e-04,1.160814790133340947e-03,-9.801410331174944091e+00
9.575113890972947878e-03,8.229111897333048903e-03,-9.791599281021564849e+00
3.435261767605984852e-04,5.034945994926763677e-04,-9.790973990357411338e+00
2.510083794591151099e-05,-5.324925015756654112e-03,-9.797689118879830517e+00
-8.325003124772797219e-03,1.511875536576160872e-03,-9.790002427261345730e+00
-6.424821918297174243e-03,-4.070663213215603782e-04,-9.794680386970519237e+00
5.100050568816509589e-03,-1.917618957584774986e-03,-9.791325995222141643e+00
-7.403412261132835681e-03,9.558761963779707771e-04,-9.790489564088259655e+00
1.188040208762981137e-02,3.251290895114532405e-03,-9.799083954143387842e+00
-3.309734495379837785e-03,9.066322594524962603e-04,-9.803659227057240244e+00
8.657054368349916072e-04,-1.272714094533161124e-03,-9.796474909619755422e+00
4.894443176211700670e-03,4.781187344636556383e-03,-9.800339267457813364e+00
1.900852358291629622e-03,-7.576158925628749367e-03,-9.799765919153692550e+00
2.781971603151280927e-03,8.791431650605909367e-04,-9.785354304242183332e+00
-3.542827348800733651e-03,3.951965452957928969e-03,-9.796299193464609090e+00
3.326216680801402127e-03,-8.413525840863231298e-03,-9.795170574373749162e+00
-1.635351996057100247e-04,9.316443973192993413e-04,-9.795066199039053956e+00
-2.926532500182364629e-03,2.015698614678636778e-03,-9.804165352827494573e+00
6.218481247988358676e-03,-1.060385325280468506e-02,-9.789329569139088250e+00
1.871484116804364439e-03,1.202088794786685929e-03,-9.793528775115925455e+00
-7.803683771005492584e-03,-3.606651934005819082e-03,-9.788728724818239968e+00
1.372535891324400386e-03,-4.500127951765378782e-03,-9.788361294004490176e+00
-5.502548154139832309e-03,3.732840217220137133e-03,-9.785223847294247435e+00
1.105091818509267194e-03,-5.419986722327642045e-03,-9.798197239721490703e+00
-5.947668529433987675e-03,9.437971141686883007e-04,-9.784861228193996396e+00
-1.687408196718548185e-03,-9.276264859854747510e-03,-9.794143176032280351e+00
-3.790487774794681474e-03,1.049344003040056199e-02,-9.790432693226479799e+00
4.354820535236851933e-03,-7.585075423783808543e-03,-9.793322936158991965e+00
2.832538581634860830e-03,-6.590786091431232114e-04,-9.795092109423162441e+00
-9.591601297850003722e-05,-2.197536773026136959e-03,-9.798505528653768337e+00
1.567757381685919507e-02,2.848454987774639256e-03,-9.791330134937039631e+00
-4.273812703896173217e-03,4.074969291012171292e-03,-9.799972386022581361e+00
-3.447430771746543433e-03,-3.152624559950676243e-04,-9.795608023221470617e+00
-1.460292213607606400e-03,-4.208042594543686364e-03,-9.791725506853461880e+00
-2.640527010840081588e-03,9.714214930910717530e-04,-9.791757341455857855e+00
-1.075608943445457988e-02,-4.461922692190572332e-03,-9.799157416802893650e+00
3.171913837104674803e-03,1.571037705536728821e-03,-9.809647697020135837e+00
2.802582299367766764e-03,-8.016215796225099888e-03,-9.800169465058422347e+00
-1.054981193142111827e-02,1.030179931466472520e-02,-9.794753856598546804e+00
-1.689521721274274933e-03,4.320168315147075852e-04,-9.793004752578433170e+00
-7.027295764933061580e-03,-2.113337376472611186e-03,-9.798496274181022869e+00
-4.547958490597985362e-03,-3.133604813986658362e-03,-9.791761697698909472e+00
7.312774493435991036e-03,9.742983918052173543e-05,-9.800661213651112647e+00
4.239209388979038075e-03,-1.012122608631528184e-02,-9.795141946890046469e+00
1.022841945330793013e-02,-1.587311701097126205e-03,-9.800881206808730539e+00
4.652147054595430855e-04,-1.056673055578647401e-02,-9.796546101606352863e+00
1.028568861096844367e-02,-6.988281783637523628e-03,-9.807179394134161399e+00
-6.810774633111826327e-03,4.252838547950541816e-03,-9.797086409621822867e+00
-4.338363440929298744e-04,1.272555929422247711e-02,-9.791649799746117822e+00
7.796690019020079132e-03,2.487582807166466379e-03,-9.793198046920657873e+00
1.781269645506273688e-03,1.075117668276390562e-02,-9.790055809592683289e+00
4.073598577670513310e-03,1.674411491481093018e-03,-9.788685589018561117e+00
-7.062656528481377205e-03,-4.027118528900330320e-03,-9.790722633841459910e+00
5.998336005110830108e-03,-9.703976800867162092e-03,-9.798851512281492759e+00
1.081918427766075563e-04,9.590081973757442384e-05,-9.793208151041337572e+00
-1.121487705419881367e-03,-2.568035617772305296e-03,-9.784209300903427220e+00
9.004377680225847912e-04,5.708756912714526080e-03,-9.797961428357940150e+00
-5.933277572424022067e-03,-8.861171220384688081e-04,-9.804982790853342678e+00
4.908405882741673394e-03,9.625526291985915398e-04,-9.792477646552145032e+00
4.421583600131995077e-03,1.086147519895335530e-03,-9.798033638954617430e+00
-1.768857733647250571e-03,-6.794658254552980552e-03,-9.795843001189638244e+00
5.016925455166684929e-03,8.378221779039936659e-03,-9.800535427942431710e+00
-1.098012986698555966e-03,-9.409236943273175139e-04,-9.795906505687952404e+00
-2.950287378422405613e-03,-1.764602326617518719e-03,-9.800803284985935449e+00
3.907882472266541521e-03,-5.242499677634146135e-03,-9.801180834499565009e+00
-2.707527691705476254e-03,-5.093798763322453932e-03,-9.793040205304917478e+00
-7.274321681910771165e-03,2.432471694212184660e-04,-9.790919168689756091e+00
1.028081316219629717e-04,-4.413998555731344330e-03,-9.790713966295774284e+00
5.036997157502077008e-03,-2.554056671620729812e-03,-9.787089376747095670e+00
-1.433201967456627663e-03,3.608766273052338349e-03,-9.795140884939820936e+00
4.268419586003484312e-03,-7.264046318267064527e-04,-9.798430294851197431e+00
-5.688353445521310107e-03,-1.365222660288224190e-03,-9.785700372928639368e+00
3.881392091296037572e-03,-3.131505572660482108e-03,-9.797530944437978562e+00
-5.029892749560761550e-04,-4.408926914085502247e-03,-9.796900521858237454e+00
-1.310882586549953419e-02,3.425052803151048750e-03,-9.783809377372399751e+00
3.228203401539914402e-03,-3.430934584316245196e-03,-9.798441583334774663e+00
-8.062334786419031452e-03,-7.985287335635722974e-03,-9.796487417236102502e+00
-1.175528268556127760e-04,7.089681260470618186e-04,-9.791979697006201633e+00
-7.228308936093586455e-03,-9.413253711062399831e-03,-9.789712331550189717e+00
-8.546772573159656244e-03,-3.849699940696030883e-03,-9.795065242532761118e+00
-3.648428208799645110e-03,3.483801008448960193e-03,-9.799010721049807415e+00
-8.053050536631792353e-04,-1.876981312898794337e-03,-9.796451885252718483e+00
3.246191345117856869e-03,-4.732193493608172555e-03,-9.801740772566352788e+00
1.504092885513291875e-03,-3.123142843710597673e-03,-9.797375023021649199e+00
8.026056460545655594e-03,-3.308025426017237574e-03,-9.797927246289274805e+00
8.004956252583036655e-03,5.678419940701659452e-03,-9.795334641968894474e+00
1.298678320337403030e-03,-3.416587259623156750e-03,-9.790426300301206197e+00
-7.138127008079469572e-03,4.486310440038913591e-03,-9.794006373810278276e+00
-3.832019873572198396e-03,-4.580273026234139150e-04,-9.795491616638718924e+00
-3.524936500914286393e-03,-5.648780460410578533e-03,-9.782737719605126614e+00
-1.717795022754541349e-03,-7.697801029034076134e-03,-9.786143380913141954e+00
-2.896136360361369760e-03,9.357173670209512767e-03,-9.799076948733773662e+00
3.803269209510265654e-03,-1.169122789270145291e-02,-9.791855509063978502e+00
-1.983199848517970022e-03,1.079719365686994934e-04,-9.784518600346768125e+00
1.453363754093522052e-03,-4.582420337046384101e-03,-9.798658820378820522e+00
3.531369295293601985e-03,5.787045008334424506e-03,-9.799104720300361393e+00
-1.081677443600713526e-03,-2.219497265982131248e-03,-9.796768537563739443e+00
1.852055444507331571e-03,1.549244452687384725e-03,-9.794505060670712027e+00
9.119248656289113270e-03,-5.165468620098126809e-03,-9.796422330709097182e+00
3.765756389433766796e-03,9.161436235026701458e-03,-9.797159158866033835e+00
2.590740627903535820e-03,2.328433408754697603e-03,-9.783078706642616140e+00
1.231193906599511827e-03,-1.581768327656869842e-03,-9.790476848420228251e+00
-3.450810007403712527e-03,3.555534826272506964e-03,-9.793958723521118515e+00
9.061393718393720431e-03,2.876387143666180729e-03,-9.790481121258043373e+00
-6.901300176207139127e-03,4.924466326733796008e-03,-9.793401152274013199e+00
4.770800065396899655e-04,-6.432125700361461008e-03,-9.794070014180711325e+00
-2.776837530857764313e-03,3.209418600637782039e-03,-9.795505028957892435e+00
-7.279371409759890707e-03,4.550051490807550253e-03,-9.791668500434175471e+00
-8.094514452084655004e-03,-2.344491035933608716e-03,-9.790287833930092276e+00
-4.577420766843757344e-03,2.012336621766914850e-03,-9.793600553161356359e+00
2.199544659923759193e-03,3.861345485664157730e-03,-9.799554826994157253e+00
7.426296695168687137e-03,1.039532436496430710e-03,-9.804869013106555897e+00
-3.716076642760692775e-03,-7.075752047317657861e-03,-9.789218082853871294e+00
7.560079961484209021e-03,-7.750220194632506665e-03,-9.790519097330564691e+00
-5.403456196812164063e-04,4.130158242085488901e-03,-9.793086036777514991e+00
1.062956812278154344e-03,7.598629698304418603e-03,-9.800544422847012882e+00
-9.476576680936185920e-04,-2.001723420467416050e-03,-9.793610393283993076e+00
6.806157720724353641e-03,2.759928771383717352e-03,-9.788592438283810537e+00
-4.570189827755176577e-03,-3.986055719015190769e-03,-9.796520315564658077e+00
4.263202506090657887e-03,-6.201974187494866493e-04,-9.798898457903606030e+00
-7.908861448358256441e-03,6.480538929214366573e-04,-9.790386196226357640e+00
1.120084164964097427e-02,-3.054387492921928522e-03,-9.795676593193304527e+00
1.368739084815977485e-03,3.709533959635470581e-03,-9.794974485471495740e+00
-8.216877062238565899e-03,1.031335979447970189e-02,-9.796956643523506258e+00
8.193146958907299160e-03,-1.361757799653868627e-04,-9.793332988317473564e+00
-2.162746343173463284e-03,-2.389637758919331469e-03,-9.790703229388613593e+00
-1.512557165435398331e-03,8.202495915582889638e-03,-9.795251886371353578e+00
6.814208375275594871e-03,1.218665697385153991e-02,-9.800246889275978646e+00
-3.431864245848027448e-03,6.794241429832684545e-03,-9.800039902287380755e+00
-3.045196013086574373e-03,-6.123922558008540809e-03,-9.789526236635824219e+00
2.657161115639543846e-03,-4.863441702564272849e-03,-9.794562729583432770e+00
-1.175098826890188988e-03,-1.776341858454479885e-03,-9.794227428337075381e+00
4.279400649527526426e-03,5.911183883545867955e-03,-9.790667583977237243e+00
5.696512714972504741e-03,-6.196742420421956672e-03,-9.799956004707812696e+00
-7.406261328500405184e-04,-1.391206199836496609e-04,-9.792867334778419419e+00
-4.830364554455740186e-03,-5.664214265334746243e-03,-9.794726987971399623e+00
-3.834902411685938220e-03,-2.187773286148071011e-04,-9.790028891668509203e+00
3.499948820084774082e-03,-4.949559758631419046e-03,-9.791588290732434530e+00
5.340857723628697831e-03,-6.255700614622531144e-03,-9.790395650303022279e+00
6.876610210568823676e-04,-3.430801311400714058e-04,-9.792535733449119206e+00
3.885046783211464939e-03,6.989519508061391162e-03,-9.797384305315917530e+00
6.342457758209271539e-03,6.016330714257144170e-03,-9.794524112818912442e+00
-7.645847244672650082e-03,1.804876793168107112e-04,-9.797178340391683449e+00
7.999882496342701141e-03,-4.788399977124097387e-03,-9.800224508849307625e+00
1.416373851102346870e-02,-5.489116603292532731e-03,-9.782296736901864520e+00
-3.441189886028357334e-03,9.937842894440147498e-03,-9.798334814277538385e+00
-2.591417228670177784e-03,-3.247140317831481975e-03,-9.794501242115092765e+00
8.204492935915419245e-04,8.552476975007997778e-03,-9.788846367418834404e+00
-9.957197836667694424e-04,-5.878465074843965479e-03,-9.800534176384935847e+00
-3.525044683017672983e-03,1.262101085741555197e-03,-9.786186172842512576e+00
2.710169660541500956e-03,-9.499135550022694404e-04,-9.792299936467324883e+00
-1.004719363621493864e-03,4.204962494073220293e-03,-9.787665245072762588e+00
4.418919276605812359e-03,8.514563606497917159e-03,-9.787093374873629514e+00
5.430922104025458740e-03,7.597286167879999802e-03,-9.789407109752090719e+00
2.465922735407278209e-03,-1.754091149594165337e-03,-9.799319169988923051e+00
8.077486530355924149e-03,-7.388128890255235949e-04,-9.796589283596224718e+00
-2.301760297632804170e-03,8.437092567755205899e-03,-9.791037167586589263e+00
5.103796143457743802e-03,-6.095781980116100895e-03,-9.789317033633526677e+00
-2.802913294793293267e-03,4.124895184098084817e-03,-9.798435831496345116e+00
3.612518443277478418e-03,3.002385608092854926e-03,-9.796691705894961189e+00
-1.024502653589147438e-02,3.402428815695769052e-03,-9.791863955693456134e+00
2.694667198858154318e-03,-8.410657193567551079e-03,-9.794601803199009638e+00
1.263716728566508353e-04,5.539084631840324527e-03,-9.788805921696402734e+00
1.516658673821043388e-03,-5.660529186801754702e-03,-9.793993648514025097e+00
-9.393077667065520553e-03,-1.888642048780478627e-03,-9.790349684242153572e+00
5.013699627090154910e-03,4.954640539157062484e-03,-9.792147057133215426e+00
3.459427424250195900e-03,5.498961599874621457e-03,-9.788321810612776730e+00
4.876426868687081689e-04,9.650362031528926174e-03,-9.790317592627554077e+00
2.619420537513123762e-03,-5.934520276617488016e-03,-9.800319183317592220e+00
-3.574436864159568836e-03,-1.913212965652743170e-03,-9.784383512072428957e+00
-1.224320166559997661e-02,-4.845946297624691666e-03,-9.798278338277315314e+00
-3.735296819228553847e-03,-4.549039434120818667e-03,-9.800101601759402925e+00
2.780638789736825621e-03,3.824121563601073134e-04,-9.792925621280081927e+00
-5.998092275209744757e-03,-7.414714091850697821e-04,-9.792108614995077787e+00
-4.611723413439088384e-03,-3.925460307869053575e-03,-9.795938286345068136e+00
-3.090731080058528374e-04,1.135439857740983081e-03,-9.794589680131114307e+00
3.279012736519504659e-03,4.536131139504126671e-03,-9.800673059564610767e+00
1.404383864136065849e-02,-4.761222223685137103e-03,-9.786443216464743244e+00
9.766508839333828268e-03,-1.380365962789769502e-03,-9.801816642897254184e+00
1.052742748896326810e-02,-6.039117366017545362e-03,-9.795514644006589222e+00
5.683923244754685716e-03,8.164220388749324209e-03,-9.788602047718073962e+00
-8.269178350965375110e-03,4.730814285776970517e-03,-9.797910683866518866e+00
6.625967599666463155e-03,-1.312148317904581092e-03,-9.791925392695510766e+00
5.458621326542485198e-03,4.082569072501663829e-03,-9.802530420383600784e+00
5.708953231356910310e-03,8.537507248738578081e-03,-9.796150135077377641e+00
3.651102244452141942e-03,1.562631319225352838e-03,-9.795193520732736303e+00
6.259462400626303324e-03,6.085255149957424434e-03,-9.790438478887615759e+00
-3.655341435782794718e-03,2.983750205281637466e-03,-9.793888499405063897e+00
3.320234526355569406e-03,-3.750617718364720066e-03,-9.796146698337448555e+00
3.555090166486090872e-04,5.929718062827956000e-04,-9.790775907057762240e+00
-3.288543486361488084e-03,3.586920239776042289e-03,-9.798599611254479314e+00
-1.068224790734101891e-02,-1.805740908426259252e-03,-9.789691478645879741e+00
1.304612135542035194e-03,9.150855355858994455e-03,-9.796807398889191276e+00
-2.242550761445298579e-03,-3.569469367658970570e-03,-9.799614544848644471e+00
9.883539906107489600e-03,-1.983786941061247994e-03,-9.798805310891172127e+00
2.069306318827778446e-04,-4.465897936176165157e-03,-9.798321979681448468e+00
-4.937711603422993006e-03,-1.518888777205530975e-03,-9.796167747340160048e+00
4.156527179480845255e-03,-8.232615327578438752e-03,-9.800856214480972994e+00
5.201136666110465698e-03,2.910752573514684052e-03,-9.787203737355921973e+00
-1.162780942504027058e-03,-1.647361972756307760e-03,-9.792408724810160336e+00
4.658210440721313912e-03,1.130998078323132297e-03,-9.791901568512646037e+00
4.518903099466892517e-03,1.084637551222247592e-03,-9.789019956974691183e+00
-4.520382000231127489e-03,-1.306359306620644882e-04,-9.786707663933931656e+00
-2.072758633075874775e-03,3.985123666449028046e-03,-9.795658149094894185e+00
5.378702553569510506e-03,-5.258248149762410027e-03,-9.798007691251191531e+00
4.646773875695438781e-03,-1.530822242320839218e-03,-9.799223313392323220e+00
-3.650334998569909790e-03,-3.421906507033768870e-03,-9.794138426523538499e+00
4.962631569700239574e-03,-1.097675017963079154e-03,-9.789135697666633718e+00
6.782286140821589850e-03,9.602552503329504687e-04,-9.797245305156753403e+00
1.259275738753224631e-03,-1.316332706907557583e-04,-9.792454951960268161e+00
2.704882699597941677e-03,-1.132565420462436660e-04,-9.785907061229897508e+00
-3.452291873791960355e-03,-6.898836815194370545e-03,-9.790352554783334327e+00
2.051832013234029285e-03,-2.314787213934189816e-03,-9.783772832464096680e+00
-4.837441052285740457e-03,2.224760887403341020e-03,-9.795853482345581398e+00
-9.519278986263886690e-04,-1.955918344598195097e-03,-9.790211315914348233e+00
6.192148184888382131e-03,-2.430456486896939976e-03,-9.790992966423932131e+00
8.122228652027909529e-04,6.757561963201823459e-03,-9.800369476710937278e+00
-1.564214892704492762e-03,-2.306634006722288206e-03,-9.796580452939366523e+00
-6.171369475946149796e-04,7.609769630308946264e-03,-9.794965807543277947e+00
1.366293100403075805e-03,-2.614994638815196313e-03,-9.795191479672062940e+00
-1.490345450310866411e-03,3.233406711011934526e-03,-9.796100517923706619e+00
-9.917351286794190424e-03,4.268742267022497712e-03,-9.805424139242761683e+00
-3.567289040544694735e-04,-1.861432364561431928e-03,-9.790379956255968352e+00
9.346243335867715973e-04,4.324219669786840380e-03,-9.791496815685437838e+00
4.831298309758493524e-03,-6.386465204111769177e-03,-9.792760237349114050e+00
1.836656846262606745e-03,7.282543251356326207e-03,-9.799111010670982225e+00
9.836019947305368362e-04,-1.139119940110763611e-02,-9.789315891035595740e+00
9.247736610668914848e-04,-4.171583401741372349e-03,-9.797198986448160341e+00
1.659656155681272474e-04,3.833416302917271642e-04,-9.796251529377531853e+00
4.703830294494427099e-03,1.241597225227252313e-04,-9.792536847628730001e+00
5.943803358216386348e-03,-3.309690896420064161e-03,-9.787861710911627711e+00
-3.220374618649979575e-03,3.868586972239332691e-03,-9.791382306880004549e+00
8.922453025238278809e-03,3.601552098630396003e-03,-9.795011713370723072e+00
-1.383685732176421004e-03,4.031083090219841555e-03,-9.791127801732972813e+00
2.831708834863911565e-04,-1.114579122373337465e-03,-9.797211374208448120e+00
-2.999478693207860338e-03,1.091320909351694538e-04,-9.793585191438841875e+00
-3.131740548980776681e-03,-6.321055623885796226e-03,-9.794082613291116957e+00
-8.411764379245498247e-03,8.760647249203506667e-03,-9.796435487799557862e+00
-1.039571885310622322e-03,3.169968382100496647e-03,-9.790490429269361528e+00
-8.857776350615595082e-03,-4.971134060379068381e-03,-9.796804661029316463e+00
-4.683077922453773856e-03,-6.520802223571395143e-04,-9.794739339787206234e+00
-7.606729228727831388e-03,-8.396733944409160008e-04,-9.793914105278448190e+00
1.120037638371796165e-02,-8.848412530338951518e-03,-9.795392873830655489e+00
1.493629494038100692e-04,1.256942881794224920e-03,-9.795658015652790596e+00
-4.607398342219694819e-03,-5.914681275743681119e-03,-9.780985340547085016e+00
2.124035391748926513e-03,2.183741566594332977e-03,-9.799066889570518413e+00
-4.552556097966451928e-03,2.636478620651934619e-03,-9.804351397735430851e+00
-7.022816789735464608e-04,5.799057645283320524e-03,-9.786131190992540141e+00
-2.405305939812957868e-03,-8.896943953915489173e-03,-9.796159292929152329e+00
9.629723792784934677e-03,7.032187688590058744e-03,-9.796468373229082260e+00
-1.962162235112137592e-03,-6.224704848525140083e-03,-9.800204312305769605e+00
-6.465918850425871403e-03,7.181148394781056848e-03,-9.794949425916064101e+00
4.144774314618774116e-03,-7.739400432690686678e-03,-9.790463096118909192e+00
4.763215866915782547e-03,-4.495743435958435980e-03,-9.798391529427211921e+00
5.495219250365925012e-03,-1.151983254655864842e-03,-9.793996703159404404e+00
-3.346228897851032807e-03,-5.825111221317590127e-03,-9.790919798928660711e+00
2.065236451231378893e-03,4.386546954991281432e-05,-9.797510793383427341e+00
9.866510224863345169e-03,-1.359653984304618445e-04,-9.791506247970902521e+00
4.154838028017323812e-03,-4.922652001615651640e-03,-9.795413696004771964e+00
-1.496218419551980077e-03,6.848848087753511317e-03,-9.797307060767156628e+00
-1.733253387013765356e-03,6.314895597960015761e-03,-9.788843718864720600e+00
-7.270115356075350583e-04,-9.570024281977599148e-03,-9.790993066508667297e+00
-9.329855006349245528e-03,-4.974715843724621849e-04,-9.801714367099686243e+00
1.417777345887436587e-03,4.348546188442629565e-03,-9.785593051188627101e+00
-4.188394907247813999e-03,-3.775186611273404109e-03,-9.788091774025316383e+00
6.127581400261198318e-03,9.940055725650716323e-03,-9.796234547502079337e+00
7.126167667431161645e-03,-9.142057929074081865e-03,-9.789869547905755809e+00
9.087782583038838541e-03,-8.014224303349795284e-03,-9.795348624446541308e+00
8.819221906224681586e-04,-6.131365039321629018e-03,-9.795796946734304456e+00
-5.184860080043470452e-03,6.409126605796857789e-04,-9.795982421160132958e+00
-1.524939586977743433e-04,2.396590137208862419e-03,-9.792206241606976391e+00
1.102642267655990827e-04,1.304503879060683012e-03,-9.793925627346323992e+00
8.773306229993289851e-03,3.592299110818094471e-03,-9.794193282183648819e+00
-4.824617710555033877e-03,-8.323077120518555111e-03,-9.792701558243255278e+00
-7.383016591713785232e-04,1.325507975680821583e-03,-9.787303545705313468e+00
-1.353365886015860976e-03,4.598058713175409381e-04,-9.794462924923141856e+00
-2.582710352186949089e-03,1.264147092192081934e-02,-9.795859475003208416e+00
1.640594348692035742e-03,3.921816297199103712e-03,-9.801353725012694085e+00
-2.931896967214338810e-03,-8.380434122645857853e-03,-9.795082608847216932e+00
5.783125311311958922e-03,1.773924106663559569e-03,-9.795924362425513010e+00
5.605554949870713774e-03,3.338768572650668625e-04,-9.786930292951604216e+00
3.456997054673411045e-03,-3.295539767129446011e-03,-9.800211118457749393e+00
9.705268762458772736e-03,2.159075614424510285e-03,-9.790921748612609221e+00
1.094203437961563039e-03,-8.232789423342200610e-03,-9.794719877413943010e+00
-2.592596128895269421e-03,-3.137191726830066731e-03,-9.793474826005786227e+00
1.163448314411744556e-03,-3.206684266366240273e-03,-9.790594428187201714e+00
4.132174681191432865e-03,6.024621479964461374e-03,-9.792435957448333284e+00
-8.959871293583599600e-05,2.413579257209271575e-03,-9.789090154189162618e+00
-2.409072981911304819e-03,2.569326740110993140e-03,-9.798205921693025289e+00
7.306560376170749202e-04,-1.025024688931913328e-02,-9.790511946097490537e+00
-4.893958285070165726e-03,-1.710020648186231064e-03,-9.800540601970759269e+00
-2.692283911632929912e-03,1.112629719492574422e-03,-9.794330013814819935e+00
7.380194330394359084e-03,7.088623748513336875e-03,-9.790499180392110645e+00
1.747998482662079531e-03,4.943777377794270587e-03,-9.789501661728680304e+00
-2.429044414067346377e-03,3.185771434118914863e-03,-9.802152320255601126e+00
-2.965884463475397612e-03,8.192222486901858114e-03,-9.793227772417701260e+00
-7.052307197652246847e-04,6.226090667923575919e-03,-9.801318318259033546e+00
1.137598921071662599e-03,6.556415033565170074e-03,-9.788416840724085688e+00
4.362166172485490087e-03,1.201295324594434458e-03,-9.794437496076207950e+00
-5.057631272338011449e-03,-2.999217727303367040e-03,-9.796180279190588536e+00
2.174000981307525841e-03,5.514381327274940278e-03,-9.790624193857397017e+00
9.816758248733720767e-04,-6.087462165821064860e-04,-9.787339995826082273e+00
-7.222225219554964139e-05,-6.048151721648843855e-03,-9.795665871169756400e+00
-3.745394071846806262e-03,-4.212594476336633392e-03,-9.788839348718566313e+00
4.501457913142683370e-03,5.098269917975642440e-03,-9.789554595515905788e+00
-2.103405105723299071e-03,8.444433073939711445e-03,-9.790149514385849017e+00
4.896490703359202348e-04,1.905778060687092186e-05,-9.794968671728144116e+00
-3.002107322703553936e-03,-2.997302903936711806e-03,-9.796738741245853532e+00
-2.913483257939687536e-03,3.101471904531010815e-04,-9.792523913256260926e+00
3.843887775444938554e-03,-4.555619363212012884e-03,-9.796273238172185316e+00
4.595223965036743068e-03,-5.297697393973455071e-03,-9.798156880361101884e+00
3.565365800234096896e-03,-9.758598898863118107e-04,-9.803527705302116146e+00
6.306416763117290297e-03,-3.317560023345371423e-03,-9.780940657709249919e+00
-4.052158885537124680e-03,6.153338541741599881e-03,-9.793608886533839097e+00
1.036052187036769212e-02,-4.250575331566564495e-03,-9.802310288128337490e+00
-1.131303901160680535e-04,2.881460636263299176e-03,-9.790096263106645935e+00
1.242797264917418210e-03,-1.604902331935526439e-03,-9.790274823277616889e+00
-7.709201219662288086e-04,1.722141548049836799e-03,-9.787387394561449128e+00
-3.552928436656829954e-03,2.592262388807503679e-03,-9.808547930109583035e+00
5.744205595586181559e-03,2.385625618521442556e-03,-9.800698744826680908e+00
1.159068458538456848e-03,6.682076724861688369e-04,-9.788353588979679998e+00
4.168749943757758597e-04,-7.112571890624855807e-04,-9.791353407986306934e+00
1.096552791564028937e-03,1.191887746785788398e-02,-9.794777850988239720e+00
5.243228328477618104e-04,-7.225105405860620181e-03,-9.788899659437953815e+00
-8.715501336444112001e-04,4.493827251975449880e-04,-9.789290286503813832e+00
-6.919535395530182487e-03,-5.100321629178385281e-03,-9.799679485569239290e+00
-7.026996771337385220e-03,-3.157431452779467388e-04,-9.800034882365650901e+00
-5.943954274792873776e-03,-7.808991429831031381e-03,-9.789755488197403821e+00
7.503181754680464215e-03,-5.230885698844073110e-03,-9.793359237808308748e+00
3.416722534518457782e-03,-2.754648910246788700e-03,-9.787140850610587250e+00
-2.234537786507899589e-03,6.183854304007846588e-03,-9.789887128370819980e+00
7.052333914410909878e-03,5.634713405926330271e-03,-9.794670671779762472e+00
-2.130097024561607155e-03,1.275556575965398811e-03,-9.787376170997456271e+00
-7.699011791141848610e-03,5.678311782308090826e-03,-9.800907829907766100e+00
1.189689792954054873e-02,5.788430587588556378e-05,-9.802109221574765385e+00
6.963940663975640155e-05,6.196449486999453492e-04,-9.799929852158554056e+00
3.174685753906452031e-03,-2.611309691149400758e-03,-9.793725097951700320e+00
1.038575831657216966e-02,-6.180196340914404125e-03,-9.792174945844040579e+00
-5.339872786916570815e-03,-2.846757596079253338e-03,-9.795379087347528824e+00
3.101708346636403071e-04,-8.609149488584592891e-03,-9.802621809989688018e+00
4.075785802967395004e-03,4.854839158024128187e-03,-9.799810237485248265e+00
-2.105781825019897597e-04,4.389616313954903572e-03,-9.796603641752417602e+00
-1.738430927196062126e-03,3.376996093626449640e-03,-9.794170464929091935e+00
7.984496629563412034e-04,6.578717739843083050e-03,-9.797230803219013850e+00
1.185264464202485154e-03,3.751805121691677118e-03,-9.795389970132855950e+00
8.703835844316587175e-03,-2.745294586461417743e-03,-9.802790913953998597e+00
6.267737190515178941e-03,-1.990656203590907523e-03,-9.795647371645582524e+00
-2.986234130396262952e-04,4.937953554017357081e-05,-9.785732643651590124e+00
-2.356261633244642606e-03,5.119015769378965248e-03,-9.783534770369662681e+00
5.503786065953746032e-03,-3.893089696344466215e-05,-9.800396717734679797e+00
8.816375828527260247e-03,5.914416051562752796e-03,-9.797928547992643900e+00
5.180267340666857255e-03,-3.731138228186283400e-03,-9.795591029664704408e+00
-3.080436716795675748e-04,1.244163384102370306e-03,-9.796505295012991610e+00
4.334167826641827787e-03,9.828202570961001860e-03,-9.786325244378346611e+00
7.334710747651055143e-03,-1.425591008393613853e-04,-9.794188229163442116e+00
-1.086584492790637103e-03,2.854043999590556279e-03,-9.801313946132534483e+00
9.708888626408328573e-03,-5.119495209959953018e-05,-9.795911595144323414e+00
2.658079329235286427e-03,1.086870981442703780e-03,-9.789957481419889973e+00
-5.789065390451858919e-04,1.951761696405014158e-03,-9.788552525618882783e+00
3.266717927051565867e-03,-3.264495302063686634e-03,-9.800551072583360224e+00
-1.946314480785385666e-03,1.238387879132634610e-03,-9.789578364977801428e+00
-9.384347599252176224e-04,-7.263640732405995254e-04,-9.795862639508090552e+00
1.222966871498797417e-03,-3.030240472915448138e-03,-9.799790692167098527e+00
9.053918919420357115e-04,1.811986779541748232e-03,-9.794458105518520696e+00
-1.655716559909232912e-03,3.788834170311743046e-03,-9.802282219819810294e+00
-5.547213483329890707e-04,-2.753054976481735753e-03,-9.794028821140157604e+00
1.011873509589271067e-02,-2.113209868174876615e-03,-9.791526587048124952e+00
-3.228252659060595192e-03,-1.670800377737447287e-03,-9.802152866897401395e+00
-3.797385343643076144e-03,-5.420023273139664040e-03,-9.798013468845546470e+00
-1.039549162781606625e-02,-6.082653553434900703e-03,-9.788466232936537281e+00
5.404986394688171547e-03,7.941834354565632109e-03,-9.792140423707055064e+00
8.284559408480446016e-03,5.130317112919178905e-03,-9.784003490321932617e+00
1.149720861732847965e-03,5.650461779102908776e-03,-9.798988725799787858e+00
7.188698261517868652e-04,-4.617829775195904374e-03,-9.797766879322809430e+00
9.672269274558491226e-03,1.189181739614053601e-02,-9.784221794896154734e+00
-4.323504029848173995e-03,-6.719144523803552427e-03,-9.798730608380779472e+00
-5.910592775042026754e-05,3.185139284683072714e-03,-9.787441275071410374e+00
5.973379954246875977e-03,1.635929371896325526e-03,-9.791183552456718786e+00
7.309303407278941976e-03,1.110348772939729733e-03,-9.787377178183287896e+00
-4.008436749303065328e-04,6.739473941593402372e-03,-9.790931917714759791e+00
6.466974965693956558e-03,2.054840252246652437e-03,-9.788078094426696296e+00
5.151904941323664534e-03,3.607420221726664877e-03,-9.798039882160264114e+00
7.708540527836883413e-03,-5.418842775557696292e-03,-9.793237969377713625e+00
7.975054014474940861e-03,-2.557523293889953087e-03,-9.786775716193474750e+00
8.128233589816311576e-04,5.160626785733725885e-04,-9.785397632862675721e+00
-6.165517109975829357e-03,-5.746156821061691386e-03,-9.794162695253698203e+00
-2.882357546611636918e-03,-5.816093547802593912e-04,-9.792987033702521771e+00
-5.721282451927075900e-04,2.260649580710082009e-03,-9.792991673613185455e+00
-2.087950332120018862e-03,-3.380414868343156048e-03,-9.788122417828338584e+00
1.106147290156882061e-02,1.108454089410420510e-03,-9.803649355214883343e+00
9.778791558135173714e-03,2.339143852498819058e-03,-9.791591322915399687e+00
-6.207169425286223133e-04,-9.840345068529090730e-03,-9.793550797741685798e+00
-7.675183843259556285e-03,3.357778901050463040e-03,-9.778776792320783784e+00
2.020061607743903458e-03,1.470515578839028288e-02,-9.793212241196878054e+00
-5.949425273017182152e-03,6.972906969226672080e-03,-9.794612033492441583e+00
-2.110416032824565056e-03,5.850519022624766849e-03,-9.803029370117096519e+00
3.049179582750465890e-03,-2.134334801976051858e-03,-9.797015752965682722e+00
-2.328798532708350284e-04,8.931800462120758483e-03,-9.800764783058495411e+00
1.100997158970084232e-02,-2.469548230782314929e-03,-9.795283980574080118e+00
2.389898620176920778e-03,-4.369519022962750068e-04,-9.797646741010339611e+00
-8.885640008571431313e-04,-8.936525277119458308e-03,-9.795071065227956453e+00
-7.081325326483090855e-03,-1.906488509017512838e-03,-9.793386653645560713e+00
1.455360921154916828e-03,2.143075603060820393e-03,-9.799044363508578215e+00
-1.982744385125077054e-03,6.299792813288011828e-03,-9.795638311724356839e+00
7.266229653636172015e-03,2.018163979908896115e-03,-9.803606073889477912e+00
-5.271145059689160382e-04,1.039690451382170068e-02,-9.787865538465590376e+00
3.096608695730339268e-05,-1.163933999242372681e-03,-9.790108353627257287e+00
-1.180711606862967517e-03,1.090985392124982356e-02,-9.789379569897400657e+00
8.787845630178278342e-03,1.199704145729535215e-03,-9.798803284318438500e+00
-4.485063169480410679e-03,-3.446271132471427807e-03,-9.792903483372731088e+00
-2.230628237660889357e-03,4.573040037136402031e-03,-9.790386595855780527e+00
4.112991841668086658e-03,2.766248218600836882e-03,-9.796868851513648835e+00
-9.178430415371988116e-03,4.299828812710086191e-03,-9.801418582345357677e+00
7.352058056640312089e-04,-3.829608311222121395e-03,-9.795311756145556714e+00
-2.458238244580496223e-03,-1.372556644062957430e-02,-9.793812572483609813e+00
-1.369470152250757593e-04,5.213944314312132615e-03,-9.792857655404818118e+00
-6.224634815456779081e-03,-5.102201855263999164e-03,-9.792842917849990059e+00
-4.926055570025681101e-04,1.809307580038366095e-05,-9.793701380043344784e+00
-3.524067036660780833e-03,2.836406237476785715e-03,-9.795479246026117082e+00
5.813814379275738034e-03,-3.172754886580305550e-03,-9.787087294135108806e+00
3.707533730549111926e-03,2.243280858980865010e-03,-9.795191921664534007e+00
4.978347471727522650e-03,4.757126455600470954e-03,-9.789085219535911264e+00
2.451311679083053967e-03,6.159929846049662372e-03,-9.800229587891125860e+00
1.133440883441450952e-03,-7.305904864445683655e-03,-9.791355288662371592e+00
1.304191605062886197e-03,-5.381307067418967215e-03,-9.796825691664748703e+00
-7.980114156469771125e-03,5.651073124405050878e-03,-9.796263204086333332e+00
-3.745629091353846682e-03,1.194298574582542023e-03,-9.796508270732671164e+00
-4.507300799385642424e-03,4.667617784077003292e-04,-9.801202257836143517e+00
4.211288510439556605e-03,6.712023995914624327e-05,-9.798078871473649087e+00
2.139981482899535464e-03,5.061584807284631553e-04,-9.796453299658082869e+00
-3.924491804225008207e-03,-6.105407764352965665e-03,-9.788701612516778283e+00
4.183867545658164454e-03,1.120929633486151406e-02,-9.802778125658186070e+00
3.919918893517678783e-03,4.300317877962082057e-03,-9.789681397045603362e+00
5.279582210650879230e-03,4.786321848129651210e-03,-9.788211284982455851e+00
9.714591903976266957e-03,1.487415204367923023e-02,-9.802946262982004555e+00
-7.070677567880514353e-03,-2.329741029593148001e-03,-9.797111230269660354e+00
-1.271334251745937730e-03,2.797917500512315213e-03,-9.789448399345667795e+00
2.626814510060092463e-04,2.276937406242897106e-03,-9.795110307701273555e+00
4.329420013221657766e-03,6.351802653858628842e-03,-9.798497215393570769e+00
3.893126106037167120e-03,-4.064119700139242307e-03,-9.801489029935900987e+00
2.018418646032618582e-03,-8.390461216581836116e-04,-9.801236412679182664e+00
1.273539207607330814e-03,-7.583791854803231119e-03,-9.789712586908343894e+00
-5.222672026320614993e-04,4.287707106806282545e-03,-9.788319193217166259e+00
-1.592043065543513125e-03,-1.185193242745577122e-02,-9.783650013886068919e+00
1.745427954509733972e-03,-8.809817224373961420e-03,-9.790047421625828861e+00
4.139317950239175536e-03,2.137450520574291947e-03,-9.798455081091466567e+00
-1.926133008542786716e-04,1.982270122647157139e-03,-9.786986623339910096e+00
-4.475388840388521208e-03,1.640222339546565334e-03,-9.799424961442941395e+00
2.045619500279333841e-03,3.957573177324811772e-03,-9.790822910436585147e+00
-9.385684756127709097e-03,-2.250633267297493315e-03,-9.787972323919648332e+00
6.742986881469743409e-04,-2.825681823187388940e-03,-9.787552605411473650e+00
-1.724747991176014093e-03,1.520162278452930667e-03,-9.794369921587717798e+00
9.887067034484665808e-04,-7.654558680000770644e-03,-9.786287929063249180e+00
3.037893587386312610e-03,4.335689679614950463e-03,-9.800982786118193957e+00
-1.798273872214067870e-03,-1.375564433511112985e-03,-9.796987165394034136e+00
-5.136051339605022907e-03,-1.554522349816504995e-03,-9.792484258546112486e+00
1.250890021692879859e-03,1.352965160457514360e-02,-9.792851090059382813e+00
-6.945772988365048889e-03,-4.110870002580372523e-03,-9.798071578941993209e+00
-2.025466990209156062e-03,6.302332281276137697e-03,-9.799322001396772563e+00
4.421093621124052436e-03,-1.685807026902365856e-03,-9.786889503051455108e+00
-7.396039167337236167e-03,7.991054012167301060e-03,-9.790130236154389820e+00
-3.198428406161915420e-03,2.526704592065033127e-03,-9.798299752154902009e+00
1.719814071625020216e-03,7.134394777671579542e-03,-9.801619635050133894e+00
2.305097887859755643e-03,-2.924657825657780638e-03,-9.792296802017816049e+00
5.791753391604411404e-03,-2.225739084848134177e-03,-9.792538561380052187e+00
2.563814558463804044e-03,5.810960569587734180e-03,-9.789138355563935079e+00
4.164446380440087886e-03,-1.110997455289220890e-03,-9.801057648948159340e+00
1.753765161131066314e-02,7.476998489034581384e-03,-9.795657797778815734e+00
2.924310894172820700e-03,4.848981621927587159e-03,-9.794889630053091878e+00
-4.015369616252690774e-03,-7.863881060372583318e-03,-9.791560494570280326e+00
1.069562099933685272e-03,-6.382329485607971540e-04,-9.788282196551783443e+00
2.657036099157676634e-03,2.423958160128900953e-03,-9.801390289480600870e+00
-9.365520529524639856e-03,-1.198240442550655219e-02,-9.788173081995161340e+00
-7.425670093011330075e-03,3.949682203977889308e-04,-9.794304183782122308e+00
1.173955742566089745e-03,-4.471096501877462256e-03,-9.787625458495176289e+00
-3.278511924075890906e-03,-2.188866436587498607e-03,-9.803260813061907442e+00
2.444881656478186359e-03,-1.664301818787992677e-03,-9.790598431733712914e+00
8.830725184862822739e-04,-3.263023219755628070e-03,-9.797079981967597107e+00
-2.656790829933190334e-03,-6.477580852587366302e-03,-9.795523500647005832e+00
2.169032984148311447e-03,-1.098137198579704661e-03,-9.800328920126400334e+00
-5.450598529956256037e-03,4.339813406678738952e-03,-9.794480193009498237e+00
-1.737230701940620627e-03,5.032245009595409831e-03,-9.785487176864453573e+00
4.285813751248322527e-03,2.368812759350477984e-03,-9.795989734517391412e+00
-1.126641679626707400e-04,-7.447319803288526829e-03,-9.798443177303850504e+00
2.867476539015749448e-03,-3.360216679529430626e-03,-9.795094146464899509e+00
3.846718774346378957e-03,6.678626195329231963e-03,-9.785582986486897283e+00
9.698221642480058663e-03,5.967078260271807370e-03,-9.787317098203637045e+00
-5.569544649446479291e-03,9.432354893528567541e-03,-9.801847415343100778e+00
2.235237935007473517e-03,3.174159426985813208e-03,-9.792404834015256299e+00
2.756305483389992223e-03,1.199218352496085431e-02,-9.782975439326412115e+00
-1.764315239108059331e-03,-9.582257742769476408e-03,-9.802286566398151990e+00
3.881832874080167178e-03,-6.106982743506822464e-03,-9.793956264665425238e+00
1.513100708694164846e-03,-7.749279634022294277e-03,-9.793919727419662991e+00
1.088619903143775349e-03,-1.205395503788193184e-03,-9.792942719463960444e+00
-3.051189111604614163e-03,1.107471525600743981e-03,-9.790505708068854673e+00
9.397303650369205619e-03,1.009725886212023199e-03,-9.789069990420756540e+00
5.717678391774531563e-03,-1.092727900796463918e-02,-9.795800530602454259e+00
2.596827976058606671e-03,-3.460421668810870818e-03,-9.799217002401764631e+00
8.042565840670538174e-03,-3.576719843026001343e-03,-9.793338982177630214e+00
