gyro_x (deg/s),gyro_y (deg/s),gyro_z (deg/s)
5.171752495816751560e-01,5.403741832100502629e-01,4.479504989873439591e-01
4.837901146544343889e-01,4.993641274927736462e-01,4.881476340883285081e-01
5.577576477810913813e-01,4.338219921154571335e-01,4.759340145790772469e-01
5.911662971145466017e-01,4.765703263898823927e-01,4.888599687896828527e-01
4.904936267708735476e-01,5.223000925782481652e-01,5.458847420495028802e-01
5.565496629277723040e-01,5.088598057608773040e-01,5.508356526263479269e-01
4.946366296059465650e-01,4.012426678844338568e-01,4.844536459867266331e-01
4.703444300952890345e-01,5.290331723439026801e-01,5.171026421132184359e-01
5.145642286741378690e-01,5.175018951514094301e-01,4.960135036382926632e-01
4.538263551151395792e-01,5.431957422515548695e-01,4.584980632287417590e-01
4.898887706780197804e-01,5.602214496960848944e-01,4.350469677473262631e-01
4.721794355667651155e-01,5.606895084839335075e-01,4.165026219703613086e-01
5.157951885313382112e-01,4.195654344294931781e-01,5.108974761002814668e-01
5.117005245490070520e-01,4.746091333284409575e-01,5.475425365943223932e-01
5.111325633965572157e-01,4.893261753950777226e-01,4.636726973243256444e-01
4.325012366623852134e-01,4.915455115672735520e-01,5.095311018373008816e-01
5.273314317731172540e-01,5.356937325447869158e-01,4.708881722144056536e-01
4.566641922370813234e-01,5.206442045020078790e-01,4.933518683626615386e-01
4.777328204172486825e-01,4.948517410844694431e-01,4.656394724121241668e-01
4.498099984808177632e-01,5.489680570573761687e-01,5.633661474451495677e-01
5.594623804083466156e-01,4.565222669754249174e-01,4.445292590514084985e-01
4.993182439544191498e-01,4.911192849064937027e-01,5.106267552417564914e-01
4.942492594895706581e-01,4.862056047367127043e-01,4.234975692650830847e-01
5.005879217072545240e-01,4.740309262176252147e-01,5.994687157788922693e-01
4.758655054910965188e-01,5.094237084418929973e-01,5.008087636843946422e-01
5.323779504312848854e-01,5.188776257676899206e-01,5.193151824250133997e-01
4.713125785306391258e-01,4.600016036819498666e-01,4.373071529261760015e-01
4.612213350939416423e-01,4.737476190810337440e-01,4.388091884291720479e-01
5.477461920197036482e-01,4.973460019713814573e-01,4.890028541644895199e-01
5.562000411967161773e-01,4.661098828511056058e-01,5.199165265705391059e-01
5.000401780844694333e-01,5.392235729562364632e-01,5.184089971831044030e-01
5.304252613366667868e-01,5.129640465935991767e-01,4.943898465317694835e-01
4.481835651103404095e-01,5.499878819334876878e-01,5.057361399345265962e-01
5.390123336692695943e-01,5.263512302776676144e-01,4.968992464623728789e-01
5.846139704376424051e-01,4.998999487324956581e-01,5.263428951215693985e-01
5.176869579410270372e-01,5.004800645312975638e-01,5.591568086906160140e-01
4.926093164274521485e-01,5.407505176754107135e-01,5.024976497309217027e-01
4.891088526099583444e-01,5.395313664783317753e-01,4.961789257753544402e-01
5.395634109685295554e-01,5.509973224706804507e-01,4.642942683996823527e-01
6.002844209680290311e-01,4.252420352825335703e-01,4.815164236969478040e-01
4.820986390455233583e-01,5.141144454113328877e-01,4.751636358266496107e-01
4.582163272970457002e-01,4.655956820774771465e-01,5.456639792775043185e-01
3.890757854991355735e-01,4.974422926041563442e-01,5.312829611584011236e-01
4.947846319262519943e-01,4.847829775522903839e-01,5.688663162765984493e-01
4.312065506941599180e-01,5.181017843070797602e-01,4.599567445681796984e-01
5.282047338505910794e-01,4.426380421115342911e-01,5.028333534576013841e-01
4.490593681858199848e-01,5.681062932250203756e-01,5.152967147647399271e-01
5.094643220826161611e-01,5.413418232022548793e-01,4.628541903375210098e-01
4.688411810419455539e-01,6.318222552339013420e-01,5.571545488585324390e-01
4.987583158789987703e-01,5.664851958053295222e-01,5.132642349448103269e-01
4.946641988819122093e-01,5.806680178407517268e-01,4.135423962970497525e-01
4.367935220746197444e-01,5.575046508742749207e-01,5.209550503369961838e-01
4.946474155880417056e-01,4.818135191904490688e-01,4.827199256235538138e-01
5.736411698287889882e-01,4.900887817673109659e-01,5.219544830326119378e-01
4.941885306833841418e-01,5.064107847423537923e-01,5.228888110994837080e-01
5.313442555255676325e-01,5.323506495965516505e-01,4.616056183146083347e-01
4.604815934407665012e-01,4.992814331309604059e-01,4.750638447859887870e-01
4.690291636603230452e-01,5.573034055386820729e-01,5.546770802813689727e-01
5.229530266593338528e-01,4.900790807415036920e-01,5.293809377180518361e-01
4.657694936220554971e-01,4.882894685556873338e-01,4.863605865159306707e-01
4.992342518383308114e-01,4.902185112402648870e-01,4.405715211758516880e-01
5.095718548332577313e-01,5.147790499920412710e-01,5.273868365132404756e-01
4.764302737991953363e-01,4.808297987988240374e-01,4.899300931584116836e-01
5.620970676208220107e-01,4.804823853361191444e-01,4.437249528941542565e-01
5.398228740653642221e-01,5.032069846390756496e-01,4.852660519389984106e-01
4.801971357393172712e-01,5.662296880186566961e-01,4.721975059401021801e-01
4.197077780107542622e-01,4.881320227219124730e-01,4.771846418926793953e-01
4.415905085913409689e-01,4.861810933654516220e-01,4.708090592293371901e-01
5.157796952309832150e-01,4.729525235214436241e-01,4.906561305984761812e-01
5.586984497122780002e-01,4.934385649540238283e-01,5.265900709800336310e-01
4.955497498154183278e-01,5.500428154407875914e-01,5.636105625431476751e-01
4.571917345996580062e-01,5.161086221570508892e-01,4.277400570108841893e-01
5.116960258620560920e-01,5.059372963388500954e-01,5.427700996185510496e-01
5.342087200570322381e-01,4.903482602904942755e-01,4.513624354629311997e-01
4.587854924058806239e-01,5.404106030070570110e-01,5.130709936498123458e-01
5.866790954291078997e-01,5.228885328838257518e-01,5.852033569174779348e-01
5.824468874495525306e-01,4.696377367986726559e-01,4.567638948533438992e-01
4.206551068134792293e-01,4.811969962358670361e-01,5.135125196276956183e-01
5.235091078661536779e-01,5.095717359028237858e-01,4.331025098517222172e-01
4.891115297259037153e-01,5.284636224569068119e-01,4.734478287661216811e-01
5.331027007294539821e-01,5.893844211241622277e-01,4.624155699699804001e-01
4.740783083948589827e-01,4.610877701440534993e-01,5.090099770561326009e-01
5.698833724652216937e-01,4.963626995505950323e-01,5.270823495930340163e-01
4.990093369625825948e-01,4.919665016296523308e-01,5.070756724476074284e-01
4.593564232302400629e-01,4.408204023969300445e-01,4.820079892310349945e-01
4.875951139887004238e-01,5.716805665957950255e-01,4.746215331267092941e-01
4.851071274626561070e-01,5.632221418086446052e-01,5.051761475160387871e-01
4.803295939267197001e-01,4.054207779333379724e-01,4.823260605912216836e-01
4.572755151562993836e-01,5.267290383195110115e-01,5.222187058042115915e-01
5.075438792299036272e-01,4.351777465778109977e-01,4.673094595832051334e-01
4.669458159337763203e-01,5.040807382613259335e-01,4.336490910971510515e-01
5.077913434345729948e-01,5.448730367776289940e-01,5.235881480988103798e-01
4.858943977908300460e-01,5.786161917970257251e-01,5.317864469294679708e-01
4.510053652363484322e-01,5.198951835320718695e-01,5.038502030207204774e-01
5.464156098576588017e-01,4.725410878734484510e-01,4.793927277415730992e-01
4.867984020502129638e-01,4.673344760666547915e-01,4.877369403402249670e-01
5.243270945486363521e-01,4.958133925385318497e-01,4.463515091967529269e-01
4.902690175856726507e-01,4.181205247187058660e-01,5.329752387861176333e-01
5.488950376092632810e-01,5.212084608860941826e-01,5.012727586096036303e-01
5.010622065830566685e-01,5.557936011225372841e-01,4.023953816611194334e-01
4.448647857581856102e-01,4.804747626661151072e-01,4.835592790190362256e-01
5.882497411825479139e-01,4.993451861812567838e-01,5.367611278263622054e-01
5.179905070025587754e-01,5.441421894391259562e-01,4.784244091552219968e-01
4.744638244408287409e-01,5.225404525666346167e-01,4.896255948122237300e-01
5.722155231579149071e-01,4.271298555209544490e-01,5.656722614733731280e-01
3.942878447881402182e-01,4.800184481918091661e-01,4.656324630415800137e-01
4.121667993005633801e-01,4.391982566787716036e-01,5.148929186530760704e-01
5.483706621369359713e-01,5.409897553614668730e-01,5.230057926238728117e-01
5.212761781301311625e-01,4.694623385198190557e-01,5.525356891946332505e-01
4.982371139654542258e-01,4.957519818589139482e-01,5.452764172609017024e-01
4.954850976972590137e-01,4.411757255466182692e-01,4.653565872311431484e-01
4.303749489259942052e-01,3.841211776578927206e-01,4.715983618900821961e-01
4.375158643865356134e-01,4.435762986153265475e-01,5.520700387112472685e-01
5.058047931117920504e-01,5.030754833554080818e-01,5.155220614139922608e-01
4.774167614102917123e-01,4.629475138661245937e-01,5.288451674102939704e-01
5.007377647025990086e-01,5.570550924454273911e-01,4.224816754905258986e-01
5.235933213366317229e-01,5.027354416316722752e-01,4.882199883182515854e-01
5.278328278123355366e-01,5.086914005302781705e-01,5.589972696945507691e-01
5.262046876210449975e-01,5.257685378955071487e-01,4.667500957244879456e-01
5.135605725769685215e-01,4.906174351704325476e-01,4.438645473487278781e-01
5.132705152641251489e-01,5.291805548481467447e-01,5.168883846208490729e-01
5.331060246961426552e-01,4.854397437512804614e-01,5.362617259307427275e-01
4.924823100561236400e-01,4.966014313070856723e-01,5.182918060128280935e-01
5.220769869245474037e-01,4.102855746680033611e-01,5.559436437867071312e-01
4.800132335738595546e-01,5.761620232843595035e-01,4.793557317892794822e-01
4.165113680998001056e-01,4.155939568865325007e-01,5.191813051120290901e-01
6.006392893782552811e-01,4.258002337856503505e-01,5.206791279559083163e-01
4.995582114339507940e-01,5.478985393817432659e-01,4.735657794575512947e-01
5.009439334162314461e-01,4.810748576338989002e-01,5.042140387543416757e-01
4.759274294912683723e-01,5.807991902388260907e-01,5.520632408122962964e-01
5.337044860470786523e-01,4.716124078195420566e-01,5.246260985521139508e-01
4.280303843293613020e-01,4.825218593321810578e-01,5.438546486745566844e-01
5.243228625618938654e-01,5.546769826677889759e-01,5.753063768974807646e-01
4.991641346399309231e-01,5.442134197185584110e-01,5.505049746296705182e-01
4.683088507346308549e-01,4.554779058249775470e-01,4.973577017434214209e-01
5.120566688823496859e-01,5.600563939954538162e-01,4.579076280861953396e-01
4.774899175034697518e-01,4.700615011608192950e-01,4.931759400559843631e-01
4.955510207231728081e-01,5.136188783799824353e-01,5.158826606694812966e-01
5.343586323081696010e-01,4.489813728699230677e-01,4.718119459961361284e-01
4.784895538578410323e-01,4.924134620849165977e-01,5.516414766128631131e-01
5.183728318843116023e-01,5.029807877446245135e-01,4.796479709002912650e-01
5.286226005841769826e-01,4.857790104853810798e-01,5.201505977254112789e-01
5.060349009431482914e-01,5.004130175552948812e-01,4.859915267454235632e-01
4.982464542260098272e-01,5.281146018421720711e-01,5.891048481560950956e-01
5.093239412105848851e-01,4.979689046840992672e-01,5.552997140940688636e-01
5.065910345803331660e-01,4.834754758909448613e-01,5.074326847370292937e-01
4.673063713596808944e-01,5.493723945886674898e-01,5.169499222677437222e-01
4.280575677541879620e-01,5.107418764041927739e-01,5.110105781686350435e-01
5.622242900353077166e-01,4.691727797114215726e-01,4.998903634730916812e-01
5.211865224691258902e-01,5.030791210182335993e-01,4.508098031609101830e-01
5.057970694543338919e-01,5.131066904178336330e-01,5.123419656249539322e-01
4.301860692388058682e-01,4.709473388690722517e-01,4.477732134589721413e-01
5.484146634705058254e-01,5.118236881830704466e-01,5.684478087759434750e-01
5.078434651827156143e-01,4.970633625846757608e-01,4.283587058826648364e-01
4.659862421436954394e-01,5.032490043770964094e-01,5.331748440555964530e-01
4.138049315930593108e-01,4.705983489441064038e-01,5.167864263721289042e-01
4.594908290758648040e-01,5.483803295203164563e-01,5.295714430156100994e-01
4.979453725762544858e-01,4.176283586742927656e-01,5.427036043110939900e-01
5.206252457173732306e-01,5.654896615465688781e-01,4.901235467711705374e-01
3.805627077174859596e-01,5.129339022055025010e-01,5.002267705633007822e-01
4.209658723824845628e-01,4.411584087273270338e-01,4.538525851340642903e-01
4.611817530299528456e-01,4.870781029377047600e-01,4.755386813274557478e-01
5.397653098208027300e-01,5.585875891647593683e-01,4.704869786377592344e-01
4.975581485497452272e-01,4.640963914123417133e-01,4.741396455277808175e-01
4.303667560976144890e-01,5.292502144926566343e-01,5.233436124950771040e-01
4.750756480990847019e-01,4.961875120040327158e-01,4.316813978207945657e-01
5.453605267627770203e-01,4.977190355498904983e-01,5.151257632646570883e-01
4.408595643669751540e-01,5.662089124363359760e-01,4.891707189957726909e-01
5.684365340643912079e-01,5.013543371537477755e-01,5.158006450835868062e-01
4.831122913689867571e-01,4.778453967245532286e-01,4.385443062908145895e-01
5.012631370842121070e-01,4.970797011838712365e-01,4.681040925305255951e-01
5.501203392568186912e-01,4.753806369181222680e-01,3.881336107856755424e-01
5.691454802519727574e-01,5.044065792051877217e-01,4.568877213777076673e-01
5.557251046443045794e-01,4.408002164983345073e-01,5.321271863717137451e-01
4.763866145623870119e-01,5.199723176476732656e-01,4.508631503293546450e-01
4.352608367634610564e-01,4.938680858355994907e-01,5.002512677418822218e-01
4.982455325993443984e-01,5.703075493630159754e-01,5.061060383703268606e-01
4.514705486565083192e-01,5.147460146304174700e-01,4.655695013926503534e-01
4.980661499760751232e-01,5.138372601841268983e-01,4.456083793493123002e-01
5.236257982039204117e-01,4.548805343902782572e-01,4.520849533046523705e-01
5.075443823497929330e-01,5.181386781349612836e-01,5.387216655377441432e-01
4.531414757964190576e-01,5.705610949293182799e-01,5.542400678713186313e-01
5.538240707884904968e-01,4.846012452202046461e-01,4.185242057722625697e-01
5.183083882547174781e-01,4.733627086637005599e-01,4.978431051051509515e-01
4.493058153506330199e-01,4.947099353656805309e-01,5.025813077245082638e-01
5.519215983110564716e-01,4.790556007386449489e-01,4.922902744081366633e-01
4.850060777621199026e-01,4.215797144445329048e-01,4.738448075506621615e-01
5.210672800945634897e-01,5.408622197645135410e-01,5.141862822245879538e-01
4.921378357307525375e-01,5.069707572438720833e-01,5.413941147642189478e-01
5.319999712529553948e-01,4.490103639294871773e-01,4.244828685030648807e-01
5.253092550402796990e-01,5.404494229690024465e-01,5.116247254286301338e-01
4.937347254822476161e-01,5.310787074341170033e-01,4.326504009382943772e-01
5.355945866448550419e-01,4.804911730219030841e-01,4.853519592660663351e-01
4.750188252355754814e-01,5.453586635093310431e-01,4.844422906329150513e-01
5.700125119407037921e-01,4.478666103341827909e-01,5.729900623578967345e-01
4.691579894508760562e-01,4.884237365682388976e-01,4.803607373452245533e-01
5.202946306747552319e-01,4.639608478863667673e-01,5.348184910610039866e-01
5.434659747544344777e-01,5.294222462230002701e-01,4.305529032710855297e-01
4.925247307550882359e-01,4.922130416317673784e-01,5.046737831918812756e-01
4.764783805320795818e-01,4.265834839938778544e-01,4.898115515822016874e-01
5.191737868158164959e-01,5.165157320045236089e-01,5.443540607730571468e-01
4.872565045061984512e-01,4.568831327863657199e-01,5.163473983101029008e-01
5.587320238026207697e-01,4.685781708905433773e-01,4.805374920077589151e-01
5.004204714472022530e-01,4.950362619362286276e-01,5.719004556561618768e-01
4.479289313412008200e-01,4.889265194886462940e-01,5.804209490030437513e-01
4.485507084486384244e-01,5.167374855077108142e-01,5.606537437590792816e-01
4.355668012516125120e-01,5.003363146896342428e-01,4.257607207435996077e-01
5.099337733487573354e-01,4.558725460301688015e-01,3.814737588988486583e-01
5.821973267175527544e-01,4.040773515530785565e-01,4.957299909189814557e-01
4.546818384580408878e-01,5.172518461631069320e-01,5.750111376134580121e-01
5.535288287545648833e-01,4.429377541650602601e-01,4.887051617600954301e-01
4.034210199133710928e-01,4.678177455803625429e-01,4.586422951852263119e-01
4.440476564304823293e-01,4.790607159752933719e-01,4.801976893988073591e-01
5.104222904885982182e-01,5.672607412486829759e-01,4.222180360284089051e-01
5.255152797659836672e-01,5.340633844768899463e-01,5.448593524550453537e-01
4.537483641460562378e-01,5.345592057088111027e-01,5.020423292420903572e-01
5.022351177060047078e-01,5.289292728316362657e-01,4.584693846280633034e-01
4.416928969604481114e-01,4.453370486490583757e-01,4.063465396283347797e-01
4.747396528306127572e-01,4.856063009901279703e-01,5.149595653251864968e-01
4.690546220271591960e-01,5.098959931051606498e-01,5.304491220426610365e-01
4.164536888705580031e-01,5.185207093487232966e-01,4.622797146275970381e-01
4.544640624222365255e-01,4.747300105771257162e-01,5.171242782145042405e-01
4.806434673760724419e-01,4.569966718127819183e-01,4.617598847397241246e-01
5.283733798146581506e-01,6.069433832965540621e-01,5.511993588280841294e-01
5.345043428174589550e-01,5.262376690209106256e-01,4.154940087474590649e-01
4.366112629529850797e-01,4.926790771275176839e-01,4.679683304073341543e-01
5.268165166532288168e-01,4.425799102600790347e-01,5.692003898460724631e-01
5.528371463891436077e-01,5.488087026576605743e-01,5.098731041427444488e-01
4.162815304554065565e-01,5.506732892010326452e-01,4.701252682860636578e-01
4.492272517977619062e-01,5.516602769683458529e-01,5.515618028426955144e-01
4.632198423808389087e-01,5.189248833301272068e-01,4.668688819572789916e-01
5.103350626945376556e-01,5.429248809895013128e-01,4.833604152988923985e-01
5.216917138783833119e-01,4.998766100024812364e-01,4.703574800503005360e-01
5.176863855954429994e-01,5.166243714054891134e-01,3.997137724026092465e-01
5.147143442940445013e-01,5.667247302350200133e-01,5.056458170089618287e-01
5.266753644917491206e-01,5.427082600594814732e-01,5.409878600695727791e-01
4.920382211282404161e-01,5.118481113322292941e-01,4.830486441822862131e-01
5.811241026616361660e-01,5.481143458733884755e-01,5.093017637975441048e-01
5.355729277323387771e-01,4.868619221769376892e-01,5.495366980414371216e-01
4.877373871991121934e-01,5.255993555951052887e-01,4.815436442913157422e-01
4.840015658406850441e-01,4.495122248588363512e-01,4.802683406005183175e-01
5.043798873559868223e-01,3.893767730598042265e-01,5.234220497976721509e-01
5.144491888227733511e-01,4.370204539789648290e-01,4.826764441431334318e-01
4.468710413803158588e-01,5.471045529478540947e-01,5.347970532242408703e-01
4.220515036910998941e-01,4.689266698217852691e-01,4.676842332399274715e-01
5.388066024221653816e-01,5.282248260132870188e-01,4.861912722639084583e-01
5.222240832338771455e-01,5.276489550505097936e-01,4.326808584447894290e-01
4.680081093638683298e-01,4.741198841340467096e-01,5.907704725185540795e-01
5.459971190771826244e-01,4.994393042066618271e-01,5.424519740962057135e-01
4.125712187228328109e-01,4.191223655091338429e-01,5.387665037173131610e-01
4.621401417722926230e-01,4.885129746200529421e-01,5.464364039327350708e-01
5.277081848306973688e-01,5.023785821140285268e-01,4.475690830969416001e-01
5.104281022289819392e-01,5.234262318560077842e-01,5.110902664007503926e-01
4.920116824316142501e-01,5.723333082290538165e-01,4.770492144878873964e-01
4.959398787418057841e-01,5.450637886295274237e-01,5.687200996946165654e-01
5.043463572922654015e-01,5.271745144135649985e-01,3.902988887292401787e-01
4.615367592733827240e-01,5.011442231104346057e-01,4.321300764705272024e-01
5.088312071962409755e-01,5.151688941980693270e-01,5.196612891370193665e-01
4.720106969696416521e-01,4.970283185978398577e-01,4.705274758295207027e-01
5.417698764782591381e-01,4.961068979561413794e-01,4.878450351438544663e-01
4.197217442060405812e-01,4.995711500745676492e-01,4.103205676180390338e-01
5.195153804215858484e-01,4.943114373145472973e-01,4.822353466193788907e-01
5.175751735648941310e-01,5.152591537098287766e-01,5.065500836055005784e-01
4.811472894943502054e-01,5.648921586046222743e-01,5.187190915361217236e-01
5.667611686216609268e-01,4.910287028775762730e-01,4.772617426975884203e-01
5.299403300129150729e-01,5.126408246908766841e-01,5.177462660844137643e-01
4.938570333175595350e-01,4.772333523324112647e-01,4.733113459762565700e-01
5.149773298025358548e-01,5.138385912621581397e-01,5.024057791704722442e-01
4.556929546028706812e-01,4.911107851419275194e-01,4.635011082752391598e-01
5.534695508962684807e-01,4.916354426859160798e-01,5.488704849368784000e-01
4.818292690861979977e-01,5.303936253097714104e-01,4.629425303930491675e-01
4.919627274140659923e-01,4.871327023401070822e-01,5.221570157238477616e-01
5.624652085263159851e-01,5.135355199996238795e-01,5.517054949147296439e-01
5.085097250389276624e-01,4.659027868229089764e-01,4.379355805559255188e-01
4.783747019831588454e-01,4.265526911691683853e-01,4.591178674517340519e-01
4.563202371701226001e-01,5.399387922901576209e-01,4.055538657600721297e-01
5.332922542029787660e-01,4.112385921608281980e-01,5.139190547427421318e-01
5.427413524014794710e-01,5.313868541600133000e-01,4.505355881979461463e-01
5.341718804606684357e-01,5.209783400449137236e-01,4.553814256821196449e-01
4.856101237566219364e-01,5.157382915137004309e-01,4.667089801918917757e-01
5.292123525555398889e-01,4.808733777082687677e-01,5.342087743586629855e-01
4.941709274193864521e-01,4.765334989372441155e-01,4.385614732662473370e-01
4.796830747524706284e-01,5.273889057976423045e-01,5.571914876836169261e-01
5.018740470340622428e-01,5.291724054620866591e-01,4.774002747842410743e-01
4.572240161316318829e-01,5.224171801017155614e-01,4.387843567583610827e-01
4.365498317734460842e-01,4.342224449510215245e-01,4.776970694391746708e-01
5.610150308209089776e-01,5.550811434967954927e-01,4.891792414980118409e-01
5.683802751714734924e-01,5.148410679229858955e-01,5.261232379582325702e-01
5.511740823004288581e-01,5.273284723384922268e-01,4.997815238389592962e-01
4.813542360623096483e-01,4.516404501637397706e-01,4.999172465589911130e-01
5.575668075626649678e-01,5.652327250257477287e-01,4.510345396535694329e-01
4.395142443938012122e-01,4.391717102555903751e-01,5.287848008152928880e-01
5.700863350627286552e-01,5.236866690832095994e-01,4.967677751125992858e-01
4.813899491103344475e-01,4.615688030216452131e-01,5.442126733376718706e-01
5.492359890337092931e-01,5.581953742371528193e-01,4.858326715276116148e-01
4.934929156621728485e-01,5.388970385246764083e-01,4.488388962130581139e-01
4.682253807994284922e-01,4.599107993325257104e-01,4.843990667585828525e-01
5.619502381409301472e-01,5.209521346169949663e-01,4.992855252266271138e-01
5.186340614289522977e-01,4.457625387351989432e-01,5.363802781342528192e-01
4.505215188425812367e-01,5.322566365120665610e-01,4.156873247098744617e-01
5.000251518139166018e-01,5.227019408428766889e-01,5.224990537949600888e-01
4.436315738856539959e-01,4.801071234227400897e-01,4.949420005705022496e-01
4.290542507085026158e-01,4.997823895661917537e-01,4.536646770183151989e-01
6.007063192858335121e-01,4.814941569611774774e-01,4.333258657503781808e-01
4.719904581997223514e-01,5.044418395581106163e-01,5.014832728073794765e-01
5.249781049160883173e-01,4.620138280541584708e-01,5.451753394515618245e-01
5.049569121544373873e-01,5.109586507803699496e-01,5.386726189070147885e-01
4.863949123353091819e-01,5.387214981119187174e-01,4.707758867153822857e-01
5.134813414723484737e-01,5.519849322391485735e-01,5.555118381082436718e-01
5.302094711304009556e-01,4.433017066935567851e-01,4.838393331562438893e-01
4.839498501852571577e-01,4.408591947532250477e-01,6.052866048148065614e-01
5.294390595844397085e-01,4.511908476749635355e-01,4.050537650670358314e-01
5.670183928944216856e-01,4.772830236121922143e-01,5.282609997632949916e-01
4.762961003824193740e-01,5.506221100494218534e-01,5.275616175650215123e-01
5.481774074217601322e-01,4.948675252063985952e-01,5.515002836877618275e-01
4.792347975815566818e-01,4.717124511447746693e-01,4.390710653864440816e-01
4.886138545093141050e-01,5.141037114498482330e-01,4.957844757217238496e-01
5.554031534272072523e-01,5.199930258818356021e-01,5.569257252291530680e-01
4.450565794514950713e-01,4.803442207773078176e-01,4.615294232272582620e-01
4.718541411541178343e-01,5.772168553267329472e-01,5.112992544609944456e-01
4.920758734500677578e-01,5.264285469041980470e-01,4.602206977713666491e-01
4.349867545904299582e-01,4.633836996531017216e-01,4.663756719817708785e-01
5.528221635192860361e-01,4.395641074789515823e-01,5.865535434139288462e-01
5.030200983486201594e-01,5.229418645074511707e-01,5.269883048371402090e-01
4.964007125191051695e-01,4.756900664739555640e-01,5.682814746974931275e-01
5.029678392806451459e-01,4.634289355789236176e-01,4.392681063282025677e-01
4.958561943269984007e-01,5.004868137131442962e-01,4.982487223170021240e-01
5.098372079071941121e-01,4.384154823319941219e-01,5.190408024875502457e-01
4.731122705446621501e-01,4.862713583290576569e-01,5.086490114805198859e-01
4.182809746089786729e-01,4.700463998793559250e-01,4.645480600277079319e-01
4.979892960450884032e-01,5.038894516105274501e-01,3.846618966162779762e-01
4.315047800333935979e-01,5.210177103547701805e-01,4.754611180035208662e-01
4.670941281081459895e-01,5.267428777855979183e-01,5.149796825405863476e-01
5.163173172134178923e-01,5.044436767090684226e-01,4.751894323545376997e-01
4.219670373105640637e-01,4.437275055357849385e-01,4.995047409634733593e-01
5.963167758931077200e-01,4.513019079728071148e-01,5.539623420043984225e-01
5.322133236953262569e-01,4.172572222717952362e-01,5.075842930877555448e-01
4.603572827107788035e-01,5.097980086557039048e-01,5.528921341905612685e-01
4.649892085960126153e-01,4.729825900463120458e-01,5.840041788120888810e-01
4.689012774061883104e-01,4.120424579658412134e-01,5.411056214022548216e-01
5.597427659723281934e-01,5.224578911449413443e-01,5.374191422516774175e-01
5.407066172270073023e-01,4.737246051414624182e-01,4.828468154968642012e-01
4.436931981599419594e-01,5.191876438697591301e-01,4.011939234387372766e-01
4.497123518985198798e-01,4.245266857324231369e-01,5.101630149458946661e-01
4.842759026627578844e-01,5.020802344407899742e-01,5.483370330866088604e-01
4.788777491745583315e-01,5.388799767707247446e-01,5.244744087945364397e-01
5.075376867058615238e-01,4.626598451365620535e-01,5.640436260228883780e-01
5.892556130973044537e-01,5.489143270123316709e-01,4.579593340605281337e-01
4.735488207590357601e-01,5.022869792881644591e-01,4.102245259782140718e-01
5.303890134612645468e-01,4.204407236516705115e-01,5.296365903311899270e-01
4.513344870094543881e-01,4.459245310244752680e-01,4.859648820586859874e-01
5.234125659517301354e-01,4.913472527566674630e-01,4.271915868523020743e-01
4.965433258281855555e-01,4.831120676577068118e-01,5.660171243648429718e-01
4.552087155100861815e-01,4.429229765775225536e-01,4.759177059383990493e-01
5.412791674247553475e-01,5.291697159797673633e-01,5.012288978140494455e-01
5.416436506505221127e-01,5.100268870209622163e-01,4.351989873156866806e-01
4.615179643400007525e-01,5.079259768983046541e-01,5.112310417223722148e-01
4.423927773220972526e-01,5.195807865603756515e-01,5.346366147654296741e-01
4.938430503150491591e-01,4.342192064514347472e-01,4.876238947559627945e-01
5.175790499387035171e-01,4.636736662685219112e-01,5.493799151023722738e-01
4.658744195426639534e-01,4.976076044217631056e-01,4.933009875840146385e-01
4.439938169537301915e-01,4.273251099021612709e-01,4.759406446596705642e-01
4.433115962074813954e-01,4.945918635233212957e-01,5.208078322596875198e-01
5.218789098574113661e-01,5.426900435879911111e-01,5.522503773867376564e-01
6.088544779319623457e-01,4.676472172670791960e-01,5.451555744200611286e-01
4.751660149801617550e-01,5.115914548774050941e-01,4.755180219899270422e-01
4.849173008177928290e-01,5.177911651117091951e-01,5.347552018821229991e-01
5.793241791076320091e-01,5.418138302946153839e-01,5.488098426953834652e-01
5.021153231105739412e-01,4.997613689144161375e-01,5.145700697162849391e-01
4.841969516258606276e-01,5.432949422758009961e-01,5.471168165580501119e-01
4.696982550008048096e-01,4.664479776535833122e-01,5.424356668007439541e-01
4.530926247760150294e-01,5.375962816859165549e-01,5.068525469953792939e-01
5.679844669678745239e-01,4.316021047168744351e-01,4.843629622609920138e-01
4.535355978072355687e-01,5.037897714393519966e-01,5.046341123604050072e-01
4.748561403969251971e-01,4.533729295305000129e-01,4.899468183812245581e-01
4.823283555153283775e-01,4.402495825659789030e-01,5.315617528700893324e-01
4.235093959273337760e-01,4.789461677937324469e-01,5.363134624588147270e-01
4.250301015460094534e-01,5.043987680548992492e-01,5.410249941854418099e-01
4.799385044797843114e-01,5.592242774757311130e-01,5.598918273782400590e-01
4.926374748749404175e-01,5.193945217112850843e-01,5.258160338639324971e-01
5.440107963045706096e-01,5.284663905295615693e-01,5.091338602090067500e-01
6.144746200734256814e-01,4.706052009257600255e-01,5.330892741627741849e-01
5.294548764004699537e-01,5.473680986712710084e-01,5.465884867214667597e-01
4.584608237489339877e-01,4.970429794365917031e-01,5.058527221410474839e-01
4.997687515966137695e-01,4.688171057435198130e-01,5.110951321212624521e-01
4.947768296474674421e-01,4.973580776097097367e-01,4.755205027934454320e-01
5.365467052931616188e-01,5.073406211443759473e-01,4.537165791675635274e-01
4.625151484733624474e-01,4.573599151180782751e-01,4.869661076270593858e-01
4.310314945202943782e-01,4.976239756287790805e-01,4.590652736846341786e-01
4.911390124353065545e-01,5.585657015855463037e-01,4.952992594944304883e-01
4.778037610235884025e-01,5.310345391230464340e-01,4.607817353782781566e-01
4.094344080912163952e-01,4.979173844000363003e-01,4.237029625339954197e-01
4.802841937701172736e-01,4.719050412935237304e-01,5.248332281819182432e-01
4.956297085148476667e-01,5.592678562100585893e-01,4.994052769021228300e-01
4.656910925765109788e-01,4.344184238636082940e-01,4.482114350380516088e-01
4.497647803260854116e-01,4.408291800210150657e-01,4.420995426187389055e-01
5.116625682007155396e-01,5.015938996216511292e-01,5.876791452809230210e-01
4.877471164297449424e-01,5.143782126648100972e-01,5.122451646543854098e-01
4.406526148435981893e-01,4.973986494282824911e-01,4.857838447807809046e-01
5.598869852017073212e-01,5.143550046084409688e-01,4.693674113890022315e-01
5.112421472573404069e-01,4.765206525806329196e-01,4.478897344701527894e-01
4.147099573000014860e-01,5.057352801055462477e-01,4.945587223514850139e-01
3.926426044059665998e-01,4.574597952628967068e-01,4.587090518791316351e-01
5.108007628184311200e-01,5.059818900272459175e-01,5.083365379449260590e-01
5.698703933923555676e-01,5.061218991679830026e-01,4.977931309824142891e-01
5.225112729340639639e-01,4.711255869250423056e-01,4.435844433974565626e-01
5.024188808886439483e-01,4.693964818505358960e-01,4.557456643921807271e-01
5.796747132676369763e-01,5.181028009183423766e-01,4.642971127159478684e-01
4.697102485480059153e-01,5.321593508804655093e-01,5.429460327177619838e-01
5.079419120357495654e-01,4.574210331107833594e-01,4.709048017466930802e-01
5.498868424891535378e-01,4.776138935477815539e-01,5.187896915259069264e-01
5.229262181359237704e-01,4.958534380630476579e-01,5.033404814554439666e-01
4.608732776449622204e-01,5.329969075528150357e-01,5.081304905664738580e-01
5.477442288554996708e-01,5.389651776737197642e-01,5.168476470057088434e-01
4.787757061569339889e-01,4.762693075636646456e-01,5.449370170781542289e-01
4.645180469442706239e-01,5.265499526794154006e-01,5.195622584895955853e-01
4.660021378861479158e-01,4.743202161384508231e-01,4.921561394774520148e-01
5.305729790952423697e-01,5.627423218474121303e-01,4.916264047519258162e-01
5.062892412622091998e-01,5.523955591064620974e-01,4.632140082250803537e-01
4.852810848362602569e-01,4.463427189333209477e-01,5.227951914595859728e-01
4.635586259104935714e-01,4.881772239495305032e-01,5.440718785975173777e-01
4.946222440846094748e-01,5.167643146044987867e-01,4.565073565333414574e-01
4.824718240644126910e-01,4.647958218540990671e-01,4.689015851508014365e-01
5.448259824783729943e-01,4.609114873596409923e-01,5.136278560692187911e-01
4.869697488813942154e-01,5.620211982426719377e-01,4.332090462896948102e-01
5.663143103464641781e-01,5.342141160754202422e-01,4.574266139178274071e-01
5.161835077959129325e-01,3.835642697382570243e-01,4.951954563668961029e-01
4.967599072118544234e-01,4.725352571099677434e-01,4.908767877955475534e-01
4.652069202136714376e-01,4.545008065095041405e-01,5.649239210025738256e-01
5.019942461627463492e-01,5.412983283035468496e-01,4.940772723721470472e-01
5.425789756763286231e-01,5.334465076986710796e-01,5.191750162126577139e-01
5.404883845241726936e-01,4.264324564389440630e-01,5.212456714739247543e-01
4.895539939957780362e-01,4.670599317334052647e-01,4.631479531982463094e-01
4.502774298095621464e-01,5.170881244822909117e-01,4.636360971436627176e-01
5.010502058393566660e-01,5.046476331339512233e-01,4.582825052677123590e-01
4.576592688668117970e-01,4.804636692180591639e-01,4.784425613602681926e-01
5.028479744055760481e-01,5.153885205886946652e-01,5.481128105064915212e-01
4.365612073501199397e-01,4.333443826374380192e-01,4.888339234408550227e-01
5.073177402573861849e-01,5.308161161190253496e-01,5.120822598924023028e-01
4.615680099069081055e-01,4.903355797149679396e-01,4.983152879013187930e-01
5.236530658120188697e-01,5.146985747973893410e-01,4.491146464300181385e-01
5.189571324096031724e-01,4.989450043772912791e-01,5.450374385853388182e-01
5.261189904667727957e-01,5.365846090383752376e-01,4.904479830531293660e-01
4.986691517854426325e-01,5.063414811207676003e-01,5.065135652167265246e-01
5.242292515964059874e-01,4.715085694849978637e-01,4.431465862772153708e-01
5.039075122077149027e-01,5.364260579538725482e-01,4.973908825872454531e-01
4.561464208038102375e-01,5.662069822235947791e-01,4.816913774883925803e-01
5.213609069626078396e-01,5.058118440642586089e-01,4.962547511217789697e-01
5.009017765286030155e-01,5.132410298250353886e-01,4.482404795854592061e-01
4.789271628733766106e-01,5.409106178333215054e-01,4.822735576026466742e-01
4.621336040490163777e-01,4.685131270568136386e-01,5.485974183747519550e-01
4.795993921185822684e-01,5.547584711732775897e-01,4.282814759636038304e-01
5.093070823322654039e-01,4.597630014684050415e-01,5.010445701462954426e-01
5.053248535592901325e-01,4.780278684633174624e-01,5.418437162252346395e-01
4.901100034208953904e-01,4.856657293203997527e-01,4.757359070096210396e-01
5.551718504825723377e-01,5.629264922518106840e-01,4.717400753848655093e-01
4.394503175226522340e-01,5.569289185565448053e-01,4.927776376502831512e-01
4.931144068926082147e-01,4.467181911481052925e-01,4.341991747408478486e-01
5.071614707161573588e-01,4.410485649183666368e-01,5.114160954139254089e-01
4.996412190996021296e-01,5.050933680042959395e-01,4.946393993832096658e-01
4.039395296375420941e-01,5.188230652353222894e-01,4.898543085977314915e-01
5.000452627041349629e-01,5.027546356284183782e-01,4.513803823065520304e-01
4.222046757489266167e-01,4.911005185607708046e-01,4.888813974823623676e-01
5.034939743897989262e-01,4.996363513047288318e-01,4.464628107904686227e-01
5.838179679922765875e-01,4.811440535064933632e-01,5.436566636992341550e-01
5.325608703510807951e-01,4.717574539946570167e-01,4.812580018023456252e-01
4.930355289199223612e-01,4.083866186374215945e-01,5.597652593546086353e-01
4.589330067615906006e-01,4.734579557983713549e-01,5.332584432035850641e-01
5.569330262009961618e-01,4.562995749570523119e-01,5.025506333679023996e-01
5.056828041362747550e-01,5.079119278548330785e-01,4.723115666887224284e-01
5.115581405791751468e-01,5.194036380545405951e-01,4.644902942940522528e-01
5.737992226094063009e-01,4.562287309610508212e-01,5.578678811099152535e-01
5.648050880022064124e-01,4.445801605769561515e-01,4.987544248102396827e-01
5.104811693618094282e-01,5.096504087597292232e-01,5.207787411839918112e-01
5.232031469467763873e-01,5.545923135744076360e-01,4.973728587035079474e-01
4.759842045466888827e-01,5.078912490268863156e-01,5.412572035957557981e-01
5.000424936624364713e-01,5.427463030202969163e-01,4.009936314306539740e-01
4.862247030882967391e-01,4.810680217138915693e-01,4.929751416585677060e-01
5.012044745742424423e-01,5.085466903223792023e-01,4.593402135295054367e-01
5.066957917466651251e-01,4.566352529250519154e-01,4.265371764359144890e-01
5.332504527344236189e-01,5.555223507295322660e-01,4.910344441130490845e-01
5.123564878851857296e-01,5.262017199262957190e-01,4.879399315260174452e-01
4.705148832513644241e-01,4.231928117952363233e-01,5.555646256948585382e-01
5.281708576384670506e-01,4.382133911703424700e-01,4.523548843012089038e-01
5.009626930580738380e-01,5.135107361146168392e-01,4.399373270315329321e-01
4.713567058722509251e-01,4.622662450195858530e-01,5.176864701974104310e-01
5.675432802353388428e-01,4.846763581499360374e-01,4.550905130103388707e-01
4.953275721895590844e-01,4.993404908337307768e-01,4.506691369156284321e-01
4.594141442682959098e-01,4.638986658445528599e-01,4.504057763265960079e-01
4.592583053722028574e-01,5.003703300986730440e-01,5.071318736797223448e-01
4.974809850009239143e-01,5.198295728082049649e-01,6.187384675773819342e-01
5.773211792794341601e-01,4.771032725068095615e-01,5.293210979548738093e-01
4.455705282180937865e-01,5.434478439525656235e-01,4.866544032549446896e-01
4.445590841748913724e-01,4.678750288739804142e-01,4.492960395883121572e-01
4.938738491821306198e-01,4.356847611333902193e-01,4.911160460825870211e-01
4.778356622240126916e-01,4.754331252501211025e-01,5.376883536709176070e-01
4.396229988631085717e-01,4.194618424475559104e-01,4.486657599025848930e-01
4.595998281344003122e-01,4.633564384169900352e-01,5.094484965029232315e-01
5.245960014084911638e-01,5.012451307295714420e-01,5.013856978486177507e-01
4.668339405396714215e-01,5.008508037228098786e-01,4.252416230036912825e-01
4.838498515698264613e-01,5.513651190790639367e-01,5.408496198726602255e-01
5.319628365866716502e-01,4.289685322798164058e-01,4.803044351549236035e-01
5.454582564392315147e-01,5.413875011812696592e-01,5.091110723151128781e-01
5.169046144702383883e-01,4.710113524591602041e-01,5.050470408184287718e-01
5.431759833402483029e-01,4.702474342302406241e-01,4.829660356992708237e-01
5.677350932636947567e-01,5.118776574062389173e-01,4.212283933329615815e-01
5.041864396098370005e-01,4.829939995697276056e-01,4.822580357221836200e-01
4.924953826804317480e-01,4.742207609513360289e-01,4.515409685659614869e-01
4.600065110822926795e-01,4.559703059807855841e-01,5.301451397977416935e-01
4.921934890697426401e-01,4.857521445749056199e-01,5.076546961784617062e-01
4.988557615944859691e-01,5.472595160299004169e-01,4.502515957755136022e-01
5.037631803893044546e-01,4.879457349220438500e-01,5.046388705187134782e-01
5.012155916650683496e-01,5.471747932221159294e-01,4.574872373905017886e-01
4.470271470941262759e-01,4.929210026252941468e-01,5.151395305442046935e-01
4.367955481437972298e-01,4.595407662602313259e-01,5.427705196212052607e-01
5.108473688640881027e-01,5.738886838033554483e-01,5.060613622374724452e-01
4.373560277397540719e-01,5.257047633184357416e-01,4.148164927089637577e-01
4.882131675366920276e-01,5.097604121660721521e-01,5.611284120129061970e-01
4.622559808867007236e-01,4.212250451201204893e-01,5.199467568781299676e-01
4.876939670980338648e-01,4.845623421354539051e-01,5.437624786318137060e-01
4.562086945784553649e-01,4.784491918400863852e-01,4.723391200256958355e-01
5.225265488442246697e-01,5.236585189151917730e-01,4.352125507105510382e-01
5.193257807926924263e-01,4.436876503490785328e-01,5.351837483289428876e-01
5.261926817507541765e-01,5.550438147718759208e-01,5.556402465205836361e-01
4.952914376282522291e-01,4.906434862437084043e-01,4.478642228202167619e-01
4.709831991763880343e-01,4.699901981034624310e-01,5.119901120959042817e-01
4.893735845799592754e-01,5.456010424029466011e-01,5.123673263299159952e-01
4.774286651822238214e-01,4.104318025389243618e-01,5.524405820204102424e-01
5.024806880839048917e-01,4.255313141863084625e-01,4.861952818200678816e-01
6.774533201876127286e-01,5.288857211094952770e-01,4.932312415023255014e-01
5.038838725553660414e-01,5.427040954072541723e-01,5.026288971670758166e-01
5.039940546465079274e-01,5.192285211228419017e-01,4.744501427450084075e-01
4.163415941437279555e-01,4.586837096872933839e-01,5.100993836756625432e-01
5.456625119059557161e-01,4.956635504714455576e-01,5.048714791620625419e-01
4.959254548198728241e-01,4.055767357491185110e-01,5.004390250324226574e-01
4.590854608981433382e-01,4.864736899564050532e-01,5.707706092865032499e-01
5.499747582235932075e-01,4.627938130977866105e-01,4.546651278914950467e-01
4.913154788058161082e-01,4.640603597006991987e-01,4.681232400597086230e-01
5.186661008880381063e-01,4.894059935535172157e-01,5.512573321571938578e-01
5.201152659650098986e-01,5.097791674491966019e-01,5.167224477825793638e-01
4.882541371093659377e-01,4.656977364956381149e-01,5.025113462659488439e-01
4.537445447791188524e-01,5.532654027924960305e-01,4.066134548646113123e-01
4.609496104252143178e-01,4.856057767422009008e-01,4.965008171876361120e-01
5.412129392557434304e-01,4.449921603156349881e-01,5.938778074923578565e-01
5.605365456824361603e-01,4.514776880184492303e-01,5.134622287533835427e-01
5.094754106069591115e-01,4.760046238621668535e-01,3.969215396084675995e-01
5.231365874699948071e-01,5.327927063325329504e-01,5.153473349627625266e-01
4.739792106550618778e-01,5.468729927223302534e-01,5.180827122592449596e-01
5.837390222770949544e-01,4.919171779165132929e-01,5.534615209536094538e-01
4.861134137246506670e-01,4.123245859448755879e-01,4.350593074663443582e-01
5.027400221114117773e-01,5.512978663839959159e-01,5.292773942562475353e-01
4.870926103609025115e-01,4.721981391723295562e-01,4.849340868148646622e-01
4.705429901430009942e-01,4.858237226936314990e-01,5.541033939498063443e-01
5.326901139950570574e-01,5.190292007048814549e-01,4.914344934301312917e-01
4.566156509144175257e-01,4.793357922836047891e-01,5.111393904990066961e-01
4.881132087541369402e-01,4.056090517051461619e-01,4.858641406396754236e-01
5.321805399696796224e-01,4.904914963672651895e-01,5.321328316919755608e-01
5.298038220195875336e-01,5.312860869627862304e-01,5.277370872323915441e-01
4.813575373017781045e-01,5.356127850600617135e-01,5.023223858578029777e-01
4.899266490967816301e-01,4.964721381934772415e-01,5.297426728061324086e-01
5.308897087812362026e-01,5.117833594328773383e-01,5.031963297297380455e-01
6.425517158542830565e-01,5.871522056425121372e-01,5.521461658931773320e-01
5.293613392004612450e-01,5.557232927364789132e-01,4.045016302456411750e-01
5.864795109542404461e-01,4.930745485516117577e-01,4.674690197616757081e-01
5.109415929654429478e-01,5.714293084478616613e-01,4.580291976972587498e-01
4.948904756748481737e-01,5.158743326139761942e-01,4.797185259112228262e-01
5.737843544727998513e-01,4.705012730801635401e-01,5.191111870175449949e-01
5.421979321980370248e-01,4.440254787270569992e-01,5.419947422558816230e-01
4.631845623473968554e-01,5.365669332767069033e-01,5.106648694270033983e-01
5.108077165728004410e-01,4.310205916712101515e-01,4.353764359350650315e-01
4.683770975994668295e-01,5.321957285378626779e-01,4.393335583183634596e-01
5.455005405528946527e-01,4.922311927592736835e-01,4.237084452065943418e-01
4.887691203307980015e-01,5.164527045813308570e-01,4.758255080864027264e-01
5.344522347747966418e-01,5.669844860333440595e-01,5.219812797073902777e-01
5.217380728336818985e-01,5.541174146310717807e-01,4.731081560413682996e-01
4.466613118457085085e-01,5.441457515203499407e-01,5.083761547214232790e-01
5.050772141929861236e-01,4.710710303019278733e-01,4.461124173884452593e-01
4.695841933652616929e-01,5.271435935853908683e-01,5.400262326122183820e-01
5.212797309074588270e-01,5.262967848192541265e-01,4.920679299630463799e-01
5.378956983065971142e-01,4.470825068819542225e-01,5.494258315879446686e-01
4.867377370834637396e-01,5.355434913893872828e-01,4.755925163534358013e-01
5.359363261445334592e-01,5.058490314243062613e-01,5.413738258753361121e-01
5.143527645407152127e-01,5.088214368265399079e-01,4.945014265672994513e-01
5.781325178258418518e-01,5.598836898891967895e-01,5.685462983962360495e-01
4.934054960075938689e-01,4.939929379497288719e-01,4.723229366645658178e-01
4.996553803392758120e-01,4.937777596782204625e-01,4.861470400046762896e-01
4.403593443364698379e-01,5.480712335363304710e-01,4.401548565511708699e-01
5.417233527536422510e-01,5.110766802138777543e-01,4.691557275807611838e-01
5.164746702672902146e-01,4.631998924340664514e-01,4.552921153032832846e-01
5.291084316965548595e-01,5.537153369378923218e-01,4.063204900498812444e-01
5.114170592943374505e-01,4.455978570403650862e-01,5.188487585548808845e-01
4.615297169641768837e-01,5.021470056264060178e-01,4.885127903768851643e-01
5.129147594507802443e-01,4.712854147985278686e-01,4.727971102252945257e-01
5.531460391945999255e-01,4.696302369260949572e-01,5.760719244194232314e-01
4.845836782588233138e-01,4.955374271328626956e-01,4.879582441449703545e-01
5.448110018821635814e-01,4.443337302420100055e-01,4.865550259915456532e-01
5.877049100451234853e-01,5.274645696580583243e-01,5.109017435532843265e-01
4.948513480657439900e-01,4.895861497608561264e-01,4.831779268401268368e-01
5.831442763627935344e-01,5.422250404032767923e-01,4.720402769880396310e-01
5.598473503061387468e-01,4.699474692688958566e-01,4.423167085336155435e-01
4.261516482237275860e-01,4.583712572024456477e-01,4.987163322515045794e-01
5.722072428382807274e-01,4.843178284365924346e-01,4.562326405784332128e-01
4.766845702601707480e-01,5.542385282658111034e-01,4.935977559897049560e-01
5.206677306543417982e-01,5.586428917753464285e-01,4.684713574737764952e-01
5.533138266448119902e-01,5.190159581189206506e-01,4.554324475880693890e-01
5.356168337262038337e-01,5.970325383329493363e-01,4.702572034115251043e-01
4.691525378301512061e-01,4.335722280705112675e-01,4.950087159866630171e-01
4.680070804242786320e-01,5.202420214472381899e-01,4.920341496349552313e-01
5.206829656083439284e-01,5.065960189040801254e-01,5.759091349461610276e-01
4.842212191529382537e-01,4.508264562624321181e-01,4.130074555110223034e-01
4.930906612920302745e-01,5.330847228620604339e-01,5.606625171269280505e-01
5.090292451529129236e-01,4.854669425639835389e-01,4.397298552037483543e-01
4.856446195848053704e-01,5.031831741792212043e-01,4.843418440454905216e-01
5.974814998038400216e-01,4.904831529447742366e-01,5.070834243976660716e-01
4.908530082889469570e-01,5.195260422656062804e-01,5.141513556807711938e-01
4.443391363392726889e-01,4.876988379375798988e-01,5.027697127304557867e-01
5.148613256089930035e-01,5.052058061914341813e-01,5.061051056495539102e-01
4.137564023739192520e-01,4.509260930217202645e-01,4.744345806243112085e-01
5.077974514701021347e-01,4.187993146673423261e-01,4.519371558127108779e-01
4.679301197874968232e-01,4.960643975011650442e-01,4.991208516452744215e-01
4.845035775858361204e-01,4.969065620306221676e-01,6.084458067933777858e-01
5.285483332225537900e-01,5.827298781978406117e-01,5.378163294729735311e-01
4.826047440762904484e-01,5.240275640873596208e-01,4.977610694373750810e-01
5.320767753758308682e-01,4.476231315304517455e-01,5.441584245922612695e-01
5.366940513401318169e-01,4.795595313581364483e-01,4.566200776920547044e-01
4.850251953984802133e-01,4.968185978709686590e-01,5.019323288004864381e-01
5.297203095081591817e-01,5.598836310919864667e-01,5.023258232261833545e-01
5.182005413675605521e-01,4.242745551361789547e-01,5.137109256924615730e-01
4.979388272653831327e-01,5.201335268182756266e-01,4.230885780854384826e-01
4.546242611547964829e-01,4.959682492952016131e-01,5.041817071805858586e-01
5.004736974701355923e-01,4.383093384065449571e-01,5.391153114775238953e-01
5.292569120882157918e-01,5.312648856878042780e-01,5.319289842601230278e-01
4.956118550691971936e-01,4.905966089601352387e-01,5.418647423605267299e-01
4.891674222514818537e-01,4.996093520261074561e-01,5.054594243935934816e-01
5.392721437447413058e-01,4.250848973448351775e-01,4.796394587159146239e-01
4.924610882179987215e-01,5.360118435444385376e-01,5.882961096937887602e-01
5.076148044098723888e-01,5.188601984331384642e-01,4.268472444026057966e-01
4.292005920339599379e-01,5.280058918803933743e-01,4.596844630412983967e-01
5.194853083305749353e-01,5.153268126886259015e-01,4.655266935624576274e-01
4.197698078867627136e-01,5.139322006046201929e-01,4.984512885472380805e-01
5.860028553932323803e-01,4.873295073016580270e-01,5.692481163075131523e-01
5.316061543908051634e-01,5.082757189480557880e-01,4.767113220701659770e-01
4.640107278569159943e-01,5.108343427001064141e-01,5.163895773183154736e-01
5.687736188776423285e-01,5.022421326495265514e-01,5.167387501142588491e-01
4.690873147043824742e-01,4.771448905076741132e-01,5.735582430064168902e-01
5.334350419104152419e-01,5.123026627536809707e-01,4.781446829713504321e-01
5.315986147019090557e-01,5.695102344468899735e-01,4.410046273551072593e-01
5.705888479971602534e-01,4.596967363663194139e-01,5.864468676157040816e-01
5.346329528605915371e-01,5.110149052502872546e-01,4.827631640431392923e-01
5.347535766149427161e-01,5.436004778087051292e-01,4.523345575402582530e-01
4.502340634325253110e-01,5.172202944992740914e-01,4.901239607726522451e-01
5.713840568858911118e-01,4.912171720064287261e-01,4.183002441040815644e-01
5.394377205986174983e-01,4.078329791420562400e-01,4.641287865279474234e-01
4.646916376745894306e-01,4.731987791765636109e-01,4.759886096886665197e-01
4.575790646657326155e-01,4.359528698145820336e-01,5.488530016922941179e-01
5.570336572997334201e-01,5.356161982816822764e-01,4.596780928207081507e-01
5.056216571921983149e-01,4.556659023670761033e-01,5.466253962710873049e-01
4.659821210793898549e-01,4.368061236398373959e-01,5.147117587215672696e-01
5.416054416943020255e-01,4.732226733509870553e-01,4.785665516558322286e-01
4.511861140424294758e-01,4.911265093199533860e-01,5.148408867606559802e-01
5.071668952070769176e-01,3.920189076503258208e-01,4.674001950657654114e-01
5.346879231255167175e-01,4.356873238289295514e-01,5.466394522630341202e-01
4.966886026459509385e-01,4.181831188529832044e-01,4.657164396153281039e-01
5.164065322022017845e-01,4.687155722223122489e-01,4.901428166754416837e-01
4.305351634150320628e-01,5.427913454147104133e-01,5.345284096789084671e-01
5.384727461976830387e-01,5.419226602774629420e-01,4.934209650058548613e-01
4.852442450952543229e-01,5.079307462619609970e-01,4.829912674852532839e-01
5.542593487318163703e-01,4.307295515590686685e-01,5.045669076289681643e-01
5.187379323028367129e-01,6.182428748177357658e-01,5.526576270223794163e-01
4.722774090591917440e-01,5.204807960566291136e-01,5.020595691844209618e-01
6.151310626981232321e-01,5.050282635768508221e-01,4.800100607748407078e-01
4.597112980580743136e-01,5.314570973264378662e-01,4.597184339740103542e-01
5.266579563150587395e-01,5.330045308487303402e-01,4.805719136498310951e-01
5.247314981708245396e-01,5.138260550099957857e-01,4.739267635246109389e-01
4.660770306511917149e-01,4.891440897037860891e-01,5.325844315658198047e-01
5.265586410718857691e-01,5.265959395934736165e-01,5.386820635143625413e-01
5.211810927204786337e-01,5.237994151158815725e-01,5.048422303574695569e-01
4.928627507690168108e-01,4.396313969973572600e-01,6.206532329141744020e-01
5.098096735491325360e-01,4.957907076446019801e-01,5.086474083826230119e-01
5.641976536228918704e-01,4.686338915985325815e-01,5.533777921983423775e-01
4.999141973793982396e-01,5.593772549711911735e-01,4.917217836858956970e-01
5.810020015135183291e-01,5.623311150308391015e-01,4.731497690668463041e-01
5.500248649694975400e-01,4.916119432385158694e-01,4.788816455359712898e-01
4.506582173179903839e-01,4.995756941381091498e-01,5.058287210707039794e-01
5.421733855998212004e-01,4.734541663516690368e-01,4.758696954499578857e-01
4.966298282500686279e-01,5.211365961521070567e-01,5.137744773866919079e-01
4.072360545400729448e-01,4.865496760159033207e-01,4.486455318880041010e-01
5.379358299579982683e-01,4.656614257561501047e-01,4.691216599887290117e-01
5.152600359706253075e-01,4.999165634001903058e-01,5.441920774678687955e-01
5.290258783263424025e-01,4.526278630917142110e-01,5.266399494009198490e-01
4.510552139896483737e-01,4.752128713145204464e-01,5.501105701826115579e-01
4.072102582147774097e-01,4.186965186983867548e-01,4.353729310159807908e-01
4.861790460952949977e-01,6.149560482842568732e-01,4.741439376967764296e-01
5.362215767037843417e-01,4.568009772788278466e-01,4.999023223477976896e-01
5.237106342593191854e-01,4.518386299058065325e-01,5.334885307365004881e-01
6.058256030301605310e-01,5.317019993844721570e-01,4.758446270458244753e-01
4.890476997671331927e-01,4.592830679760266932e-01,5.369920943747271691e-01
4.704559541095850728e-01,4.525382736945561257e-01,4.319258335060127130e-01
4.292261007782910420e-01,5.644138382853911562e-01,4.429952856264773309e-01
5.101115486425150669e-01,5.173365850787708942e-01,5.168309382950840858e-01
5.255321029125604726e-01,5.952034294267328773e-01,4.895440806389997901e-01
5.217645416620481091e-01,5.074625791527480612e-01,4.789144574481882799e-01
4.731869355460225357e-01,4.913549604943401317e-01,4.789160289275078419e-01
4.847406440466001665e-01,4.239842326780702830e-01,5.766343762001870932e-01
4.754129342036136907e-01,5.582119262097833268e-01,5.199551186592997754e-01
4.790528967857325404e-01,5.252324665447500873e-01,5.124556594691567213e-01
4.928337463418708264e-01,4.676985367968267693e-01,5.512735610623171745e-01
5.225267315185789796e-01,4.635974569376336007e-01,5.138485117299883553e-01
5.094306090768568884e-01,5.352449385815044591e-01,4.912044568805246647e-01
5.547928349651124469e-01,5.055142012248081684e-01,5.258725332166050981e-01
4.988746463643324303e-01,5.190769602917448822e-01,4.690682122581804614e-01
4.392950232976102765e-01,4.885701145867574757e-01,4.744363036836997671e-01
5.124007399744205937e-01,4.813836584364809545e-01,4.165777300826704610e-01
4.844431341301059235e-01,5.095005432069209528e-01,4.348130988687561871e-01
4.889010843906481107e-01,4.437237818348540030e-01,4.992539023207995252e-01
4.892460507272953785e-01,5.581490479243885749e-01,5.178693814268491291e-01
5.281791156499497930e-01,5.113355487971098512e-01,4.731590087094567632e-01
4.511281901026126806e-01,5.397140579788117787e-01,4.811404977844030428e-01
5.566403426528537812e-01,5.222193730686365276e-01,5.110937152420738094e-01
5.327622948028809535e-01,5.122513269442341421e-01,5.015760216790895454e-01
5.352780631109445020e-01,4.844771359060748295e-01,4.987022454105921043e-01
5.219279377950454268e-01,4.660077862622504785e-01,3.965404916545693936e-01
5.174674905252807378e-01,4.944281992836773165e-01,5.503400717308201129e-01
4.865047625578419188e-01,4.894197285011263054e-01,5.583537211207830753e-01
4.941153539291386343e-01,4.566170870970265305e-01,5.616771204266868267e-01
5.029986974838633884e-01,5.125546576239875529e-01,5.122934332187819573e-01
5.427619895071154055e-01,5.300449454105509162e-01,5.249294428056305861e-01
4.074192492433822976e-01,4.912030093267893416e-01,5.258697272334053041e-01
4.484971777289255002e-01,4.523149576295741880e-01,4.835762545765667220e-01
5.109153250579591132e-01,5.373114322021257383e-01,5.078199551571261905e-01
4.833836505858216670e-01,4.925921137830872598e-01,4.883678280220800083e-01
4.882308277998740897e-01,5.239578479133210065e-01,4.971387132569262679e-01
4.900681349067497194e-01,5.646146235735393093e-01,5.731608018351684875e-01
5.773027358775082440e-01,5.434931515581175043e-01,5.695312659652929099e-01
5.264899822480677560e-01,4.875355523184554118e-01,4.432018482629637712e-01
5.124214809426925754e-01,4.826889682929599856e-01,5.302694204204484452e-01
4.396302086185128744e-01,5.710149969380561297e-01,5.520871422665222239e-01
5.564995785207549339e-01,4.486934878497711998e-01,4.878861790807401122e-01
4.347703534934223568e-01,5.800217127556722696e-01,3.781965811796647592e-01
5.296462936847331493e-01,4.726284081808433402e-01,4.407289243259000511e-01
4.361367165375204524e-01,4.944900360574864262e-01,5.333631822379417686e-01
4.549913614906648807e-01,5.729386085156246144e-01,5.508150708287520292e-01
4.698764277131713962e-01,4.872991947470103336e-01,4.779242507298840925e-01
5.121688445632418540e-01,5.296099394137092631e-01,4.854417941894403898e-01
4.108326542229246980e-01,4.813000498423258278e-01,4.669796172554097624e-01
5.396314597967623028e-01,4.932086360805075786e-01,4.697651863596342681e-01
4.948225765210144678e-01,4.886191762860477295e-01,4.884038512462011705e-01
4.868469198254708474e-01,5.118021256503315630e-01,5.019595040890371118e-01
4.774303824009448194e-01,3.932366472853834338e-01,5.422599015767487485e-01
4.964026404636903145e-01,4.639657640733131361e-01,4.945452772536280683e-01
4.922789053507952706e-01,5.122672919949502468e-01,4.700249081566648668e-01
5.070279840603014732e-01,5.535883749068667425e-01,5.335781591269260771e-01
4.970783666922223842e-01,5.164613655412032545e-01,5.847680604120095715e-01
5.109049329696975228e-01,4.766641143444766415e-01,4.557332071635195048e-01
5.174018905887932673e-01,4.757755305101912247e-01,5.400118972094229974e-01
5.125896028090940471e-01,5.381175985486102986e-01,4.909926547565046651e-01
4.573128838257172757e-01,5.336497589836104449e-01,5.125772327598512312e-01
5.405102554960742323e-01,4.707935868837830884e-01,5.665925876612913914e-01
5.476105196155960364e-01,5.738604182237051488e-01,5.405504589788728831e-01
4.338431813629881617e-01,5.027349925625885785e-01,4.670053846840213629e-01
5.151494799733346008e-01,4.510469840928155727e-01,4.812527261887092900e-01
5.176998241597634554e-01,4.083662469174673126e-01,4.971173071208898619e-01
5.203637112568501033e-01,5.445751274896831751e-01,4.547509547925002726e-01
3.989913987174537602e-01,5.860886341814300904e-01,5.114306218571006424e-01
5.062112903021180887e-01,5.180193800935618542e-01,4.870918184274624640e-01
5.099788504566401537e-01,4.672114245661500576e-01,4.469537008999853178e-01
5.239898304300634191e-01,3.996675289837740563e-01,4.407426729237567398e-01
5.064148635530888454e-01,4.921268834555329597e-01,5.705283534488001518e-01
5.388795004009110379e-01,5.001096884080836746e-01,4.620568236867874656e-01
4.845378623044800936e-01,5.019428027220403932e-01,5.357422308685169110e-01
5.397389852989642467e-01,5.193093702255974220e-01,5.195530751800062630e-01
6.032075677894350729e-01,4.895759000142968498e-01,4.809156797682064832e-01
5.466932292324890863e-01,4.928336370770045605e-01,4.830538032024160877e-01
4.956655162492956124e-01,5.600087095210160015e-01,5.721085797514048332e-01
5.384017299883929741e-01,5.004558692726197577e-01,5.059508838878119530e-01
5.221602905982503096e-01,4.764457166580999825e-01,4.957989793987340743e-01
4.662858716235813161e-01,4.969832899991927233e-01,4.751036760777081480e-01
5.076829231626411865e-01,4.324979887193840522e-01,5.233622868806097062e-01
5.721530327404438232e-01,4.783880278512325779e-01,4.897169564231664274e-01
4.806806833547102031e-01,5.286905144381698340e-01,5.260013718562518426e-01
5.088664375922075100e-01,5.505640516703874665e-01,5.068937584002296548e-01
5.121141186581236182e-01,5.375311397124108437e-01,3.959306335667855947e-01
4.954784686721925291e-01,4.123733791606791210e-01,4.673783957233346165e-01
5.026791360766070804e-01,4.997430581272819250e-01,4.705311101990874434e-01
5.924114105704613165e-01,5.733012800063739256e-01,4.428841065466492810e-01
5.149547222289583281e-01,5.379280000591241118e-01,5.735697155034455985e-01
4.326115089859060014e-01,5.645126844023092838e-01,5.420240578911724727e-01
5.014442602300591689e-01,5.007807460847920611e-01,4.928248776154203759e-01
5.569589981518872079e-01,5.046314050794531436e-01,5.242095963815718296e-01
4.901768457103584109e-01,4.935008831706687027e-01,4.934665825762710734e-01
4.955458327611859670e-01,5.812286477416139796e-01,4.912452665616311442e-01
5.203602725558456044e-01,4.593843902563363724e-01,4.435075333902117056e-01
5.464062044057601542e-01,5.709017731331916812e-01,5.088082872968617831e-01
4.557928359176770527e-01,4.853008189540035655e-01,5.692443980165401429e-01
4.285102842593240258e-01,5.235556440329190986e-01,5.007246880939036915e-01
4.814692010397317312e-01,4.430643829056461480e-01,5.401906529767206422e-01
4.709412250604756434e-01,5.245447701107180949e-01,4.663184761199196671e-01
4.858373842496571116e-01,5.094889921445063807e-01,4.042996872118488350e-01
4.924794894232376596e-01,5.127612134947016065e-01,4.613299662458190675e-01
5.452782128817218465e-01,5.506965538874502020e-01,4.471123542299773046e-01
5.030835621508059630e-01,5.328020892163618516e-01,4.527939270325239129e-01
4.657633723994913932e-01,4.466656130603453012e-01,4.448827111492210107e-01
5.498743570057763597e-01,4.825724255398574636e-01,4.809081619185246459e-01
4.854092044903336456e-01,5.201320542010821057e-01,4.730812069102323658e-01
5.011226764053855476e-01,5.932736743981180672e-01,5.155777574130114838e-01
5.446772132048642856e-01,4.907500925707789508e-01,4.727273986400988282e-01
4.664365593670448118e-01,4.411769543765329815e-01,4.737865841574391834e-01
4.514687093597214984e-01,4.684258120671709325e-01,4.826870465212547701e-01
5.738757073711463486e-01,4.523944112430293707e-01,4.820896361942569319e-01
4.718149645330072528e-01,5.967141674873452928e-01,5.022514482007882641e-01
4.056850440316202011e-01,5.203080645377423652e-01,4.420870114524154126e-01
5.807090729662145456e-01,4.565890182495895844e-01,5.334699693648643493e-01
5.358665006455927138e-01,4.215427633423025067e-01,5.177996004494713755e-01
4.593582538483135247e-01,5.474728316721191312e-01,4.330787288670238100e-01
4.970879757523585241e-01,5.425733441744666763e-01,4.686727304674477290e-01
5.433872122435358110e-01,5.030441411521928696e-01,5.235464194256511661e-01
5.244564697312366075e-01,5.831528676710223680e-01,4.687359063948407512e-01
4.930953294086163341e-01,4.515155049916074192e-01,4.804974816973822116e-01
5.338015883263844685e-01,4.154993397980463188e-01,5.299216526573036212e-01
5.180567052125643057e-01,4.794725905276605027e-01,4.624385409546342141e-01
4.957299147214524471e-01,4.587139929090090495e-01,5.279115276760044662e-01
5.394130191348999181e-01,4.749904603066363307e-01,5.039748518532254362e-01
4.800575478312079092e-01,5.388494154890592913e-01,4.945604555503995692e-01
4.530697437836959662e-01,5.136605785259328316e-01,4.586324948036819560e-01
4.715152676752091820e-01,5.026850894159061722e-01,4.944458190379447116e-01
5.351484153112975317e-01,5.000509199266052196e-01,5.303178377950925615e-01
4.925964815786861295e-01,5.120829791184858815e-01,4.984585746464183509e-01
4.576528369412076747e-01,4.656161138329524829e-01,4.891799225626809466e-01
5.571420035104621693e-01,4.822920835035804932e-01,5.408268966293345859e-01
5.635814586258030001e-01,5.248620799828872530e-01,4.612152219839196765e-01
5.337959923803586859e-01,5.575413143231782165e-01,4.569489890507049679e-01
5.269509353022872045e-01,5.857325178758683304e-01,4.836405202712633633e-01
5.217866978145611068e-01,4.881056410224194897e-01,5.102146219613147293e-01
4.080635145157119892e-01,5.031862263701011306e-01,5.277565099600852738e-01
4.680419573675060341e-01,5.167984344092516613e-01,4.532555972170867475e-01
5.375630914762530299e-01,5.558175529698201611e-01,4.617095556894826869e-01
4.570520384334082475e-01,5.753750437522032746e-01,4.364753362792410663e-01
5.441444257209236968e-01,4.834154020806463170e-01,5.415445351249725814e-01
5.016365825234212483e-01,5.094103385185455579e-01,5.098984488555063921e-01
5.148323655422661904e-01,5.028369222257440541e-01,4.958542994087877798e-01
5.145129411627833438e-01,5.105236032609175023e-01,4.777783031866526531e-01
5.020680320414192543e-01,5.450523534766273936e-01,5.651343338905957525e-01
4.925444490780868101e-01,5.326179825797580092e-01,5.483886176569637838e-01
4.925432766694305964e-01,4.856712465377582832e-01,5.328320308313247988e-01
5.224492435628431686e-01,5.041138977260131160e-01,5.677473654656975954e-01
4.761335035008556482e-01,5.133425832481548490e-01,5.153722710806618590e-01
5.499712063561412734e-01,4.510244404398984219e-01,5.769887980689838436e-01
5.974176036206141349e-01,4.549730388789865465e-01,5.029312913616780234e-01
4.774626681053562027e-01,5.379351072986687798e-01,6.045139234742566980e-01
5.013177793872971577e-01,4.603341577214127844e-01,4.795042547922881981e-01
4.315175230893625868e-01,5.195081602824311862e-01,5.431396115056489338e-01
4.917073007354601510e-01,4.488968162797844497e-01,4.873878057718528112e-01
4.975326406998069606e-01,4.331836681588804860e-01,5.201668000216246313e-01
5.242702106761225611e-01,5.563281540829209115e-01,5.430886548689569659e-01
4.745011880616274436e-01,5.265061393419008251e-01,5.192334366160078485e-01
4.249002119163313163e-01,5.196807764319373302e-01,5.167169273491598602e-01
5.825864726687889350e-01,5.486619163349826245e-01,5.043363505271358793e-01
4.617965236583622124e-01,5.587284440083442050e-01,4.638631844574543917e-01
5.152214123852205674e-01,4.751533796869130133e-01,5.193843065894536704e-01
4.975827864150639268e-01,4.460285669671957831e-01,4.822753055610856099e-01
4.943527598297783876e-01,4.847880913197134545e-01,5.318380302130331083e-01
4.376039728045765242e-01,4.207989480553577799e-01,5.437480700392587352e-01
5.334554434086724584e-01,4.664612826143848534e-01,5.360499556808948629e-01
4.566258554106056300e-01,5.337080969234159200e-01,4.668876674875188093e-01
5.355838466329652103e-01,5.388702892460052185e-01,5.687483548056612159e-01
5.594312747735504798e-01,3.477325362861372615e-01,4.410767428099363618e-01
5.225280492496640061e-01,5.186647055600488443e-01,5.560110919523187922e-01
4.838921674290294628e-01,4.707093164487867187e-01,5.340836469577054935e-01
4.421051990509447527e-01,5.884530511390938523e-01,4.250463408635064555e-01
5.688195484472126084e-01,5.263329844960495940e-01,5.124257793454636278e-01
4.578022757912130203e-01,4.338255734977304878e-01,5.699039802249558084e-01
4.954129639256590889e-01,5.067943622383469515e-01,4.608609619269450897e-01
4.543117630734540557e-01,5.240465769445648014e-01,5.095314409436564329e-01
4.731070050948146255e-01,5.614764601985211545e-01,4.843233040568682979e-01
4.817844161330180341e-01,5.172314978721772594e-01,5.119442900711226319e-01
4.998168146341851470e-01,5.148660093724326536e-01,4.728704200166233829e-01
4.764534473448160390e-01,4.482842442008189154e-01,4.337232293237117120e-01
4.669644092869968954e-01,5.573733139218022270e-01,5.183618470944887369e-01
4.492317208540873574e-01,5.254403687767270625e-01,5.025248609450009285e-01
4.714641877521762448e-01,5.114206799232091649e-01,4.423578597287345371e-01
4.866304262202907349e-01,4.486001366147748248e-01,5.195178177697885591e-01
4.848368655417287232e-01,5.606436442220265048e-01,5.477691554264351170e-01
5.144728487032262931e-01,5.325039496804360173e-01,6.029995350813247557e-01
5.057818801689625277e-01,5.009178241020444400e-01,4.430894086225760087e-01
5.226822706796352414e-01,5.765438753465700339e-01,5.107964808313022465e-01
5.351831634959259842e-01,6.137684575717206048e-01,4.836314402998967421e-01
5.296983157431766065e-01,5.301946527544633136e-01,4.998765455467027441e-01
5.103659274873678653e-01,5.005023641774127841e-01,4.943096968370848665e-01
5.039993600471250890e-01,4.812498706062711129e-01,5.163382139619753231e-01
5.442140441304789134e-01,5.123436390622063685e-01,5.098974862646145079e-01
4.683019019909284153e-01,5.134133710063878420e-01,3.967498084320299490e-01
5.460797098371076297e-01,4.154256470671379708e-01,5.010044569392088087e-01
5.427169414165488037e-01,5.085697672915718837e-01,5.100679508341898760e-01
4.860581833855177614e-01,4.363969446874017000e-01,5.491339799617691586e-01
5.255274657832473828e-01,4.716165202669093115e-01,5.541013016223749199e-01
5.046831070999865387e-01,4.429375811989183509e-01,4.196119317790689141e-01
5.233993806797661019e-01,5.169680163706473763e-01,4.629063065310417557e-01
4.998577007574888653e-01,5.516542607279411037e-01,5.494876444522496239e-01
5.528431924898434824e-01,5.091749340969271564e-01,4.373566923101783743e-01
4.886465624535228924e-01,4.417360508703097044e-01,4.798879565408033510e-01
4.708638306749166058e-01,4.668755000908190178e-01,5.330164906219866383e-01
4.772051098093801902e-01,5.050795912185508385e-01,5.280096823468868328e-01
5.244340301886379896e-01,4.698807489876026255e-01,5.521047594930963420e-01
4.320011661784882717e-01,5.152903056458753017e-01,5.096533878683183749e-01
4.429999485936688131e-01,5.943092578657055425e-01,4.927338533096540796e-01
4.355941576442194929e-01,4.907193737507589693e-01,4.463624497089686005e-01
5.252199076784531684e-01,4.997057319721296964e-01,5.349386718352149295e-01
5.356966998427892257e-01,5.125032548450372261e-01,5.297516683573446628e-01
5.405722756550523922e-01,5.067227786681183233e-01,4.790568383978119904e-01
4.607473636969025566e-01,4.705008795824329182e-01,4.500286790030995077e-01
4.772306531925508133e-01,4.278636574020215355e-01,4.947728333571922432e-01
5.839595211933382712e-01,4.631756264122868783e-01,5.311882171583458545e-01
5.499017010395612637e-01,4.421533310741060929e-01,5.735488173609777363e-01
4.563011274755549573e-01,5.129458709481212741e-01,5.183484582382470451e-01
5.240586018132253887e-01,5.064293699016525485e-01,5.536324658587790104e-01
5.492742631669935705e-01,5.010363733568695688e-01,4.510421446099892040e-01
5.172331720378514630e-01,5.588832568499041420e-01,5.725126891810760066e-01
5.082408269164148118e-01,4.980647400219242460e-01,5.635741694401092960e-01
5.072284564941534901e-01,5.003890913942379282e-01,5.436310991226881439e-01
5.372424330478734467e-01,4.671609643945019430e-01,5.038091793111011407e-01
5.177096460217168739e-01,4.701811737842896965e-01,5.554148540323836647e-01
5.190665030525697388e-01,5.178730934282490539e-01,5.209963932762053940e-01
4.562104303855445409e-01,4.920014667472995540e-01,5.710015000977439747e-01
4.897434400784698161e-01,5.154812163796068658e-01,4.640803564608960152e-01
4.700349848038659628e-01,5.008317482553187316e-01,4.863682231095243225e-01
4.879407892849840778e-01,5.188436707952998050e-01,5.646102674414997802e-01
5.426064193677274661e-01,4.852184139104590010e-01,4.054167013297147459e-01
4.776034584628461865e-01,5.001600701656248038e-01,4.075606491920502061e-01
5.412156245853964043e-01,4.876298469726406126e-01,5.327706739051811802e-01
5.487179743565194778e-01,4.834221621944804759e-01,5.084614878755953082e-01
5.011021911227235837e-01,5.194680114074718968e-01,5.240868558341551520e-01
4.760820158523215162e-01,4.157476294731691779e-01,5.186967420754862168e-01
5.085074955606854186e-01,4.890545758267047516e-01,4.717139146484133905e-01
4.379734094913138587e-01,4.611323902325467627e-01,4.814013469165390191e-01
4.666524854019288293e-01,5.001064636187496637e-01,4.023404053483887743e-01
4.626155070244925005e-01,4.849739366630397841e-01,5.229024107769096874e-01
5.008096340291366966e-01,5.643783435198839182e-01,4.313947434969681027e-01
4.831635304225400662e-01,5.316593230849065987e-01,4.832137304726364935e-01
5.711949929629265288e-01,4.662495539838714120e-01,4.817069328191170841e-01
5.179515425288075958e-01,5.229753969746605557e-01,4.783047004354094023e-01
5.192443171170058047e-01,4.891482638948298489e-01,4.739622157252261214e-01
5.294747448099349496e-01,4.879473824895997347e-01,5.259320521937305148e-01
5.216761401190853631e-01,5.158621641905937194e-01,5.137144208503927612e-01
4.972964504775116423e-01,5.307547905226456253e-01,5.629958255715833415e-01
5.310793274431436783e-01,5.126660670731320035e-01,4.689146799098948826e-01
5.649690837417390421e-01,4.820809908143052769e-01,4.628622101296835378e-01
4.993585601760964776e-01,4.968685477751998980e-01,5.297825703739911241e-01
4.587343277984369805e-01,5.272028534806824096e-01,5.467394896717183705e-01
5.119659202898031447e-01,5.440157783455612517e-01,5.124976685224116313e-01
5.102854648468297949e-01,5.356664607791336019e-01,5.190736363528081210e-01
4.388472339207705186e-01,5.503825626335107080e-01,4.119840643451954110e-01
5.185193718687675091e-01,5.449324923154653666e-01,4.729949684812913557e-01
5.271649102074538185e-01,5.171558002256322339e-01,5.498108908093406466e-01
5.354143755311235875e-01,4.704454844399436619e-01,4.675524877230853860e-01
5.682704193210537102e-01,4.690246100823881603e-01,5.254234861212947472e-01
5.242487892020889495e-01,4.747847254154382024e-01,5.553581977757158228e-01
5.260282455235416599e-01,5.445400925983900908e-01,4.304432258095751695e-01
4.317851226086611427e-01,5.104007068196572128e-01,4.835832378734665205e-01
5.044701452133790731e-01,4.704587418705079016e-01,5.260813256370059365e-01
5.238951794288350117e-01,4.969188687540541105e-01,4.997353293222344117e-01
5.321643620632988680e-01,5.332902081037793618e-01,5.119603236636628418e-01
4.981219384406136985e-01,5.259256461603151189e-01,4.723419406640790297e-01
4.929391694794979517e-01,5.334999477318350669e-01,3.971921868276496181e-01
5.151971563283717082e-01,5.454043616274019124e-01,5.741404291481291278e-01
4.894143232412090372e-01,4.727311622939172064e-01,5.893374919237776011e-01
4.827499993243399845e-01,4.697328369857035613e-01,4.917074088449132074e-01
4.857023376548629257e-01,4.972335690102667738e-01,5.075044714369125742e-01
5.016090022331235465e-01,4.930909053307926948e-01,5.349895931521356784e-01
5.733304752101693325e-01,5.017220966243387537e-01,4.954783187219246599e-01
5.423341327822710500e-01,5.415085407316663213e-01,5.345670611784243409e-01
5.521001452777948293e-01,5.096678862282524314e-01,5.519307675795827040e-01
5.168509178799677306e-01,5.166251381144951749e-01,5.365969893420500236e-01
5.893587340316271961e-01,5.633679574888936781e-01,5.090807344065609863e-01
5.027144266055485478e-01,4.595532285600019140e-01,5.778181610016395187e-01
4.217177352338030705e-01,4.980445758215628071e-01,5.135924371369186003e-01
5.027942701432950301e-01,4.753668155697363118e-01,5.132748423676732896e-01
5.327800664443536061e-01,4.740796348010009598e-01,5.183412017259492188e-01
4.986967082801949669e-01,5.028536334921646089e-01,5.267753145908866674e-01
5.656223369505444243e-01,5.316428434559846705e-01,5.378501821893949542e-01
4.586921846332956965e-01,4.839122038971822026e-01,5.170413165634513142e-01
4.984739232870101233e-01,5.698766387903058117e-01,4.772482811665744729e-01
5.288865276072772792e-01,4.723010009452260349e-01,4.844159613421498700e-01
5.581779557193640162e-01,5.048620974342376000e-01,5.002784323907709663e-01
5.157945867253731498e-01,4.324159556907102853e-01,4.406683777776284616e-01
5.263785600219800243e-01,5.022286996657691072e-01,5.083962426781031274e-01
4.298873525610784063e-01,4.787306423693653001e-01,4.380024077779294256e-01
5.302362997282660251e-01,4.386468877294876778e-01,4.936781691164198183e-01
5.065107680518832201e-01,5.140831848386839820e-01,5.210439902644030674e-01
5.051393916868405221e-01,4.690637677433097119e-01,4.776166382297766799e-01
5.803444000433061190e-01,5.395609165107793093e-01,5.322364437742529431e-01
5.385948040173632601e-01,4.513449706003798689e-01,6.194272875300972370e-01
4.726223959043821532e-01,5.070109685725371351e-01,4.594056755938802361e-01
4.710878208271140899e-01,4.144175049924530008e-01,4.604442507487543912e-01
5.470389493338340126e-01,4.852413118211129084e-01,4.797450885047514491e-01
4.306310474730496995e-01,4.361586069595064230e-01,4.752509149459803184e-01
5.136705529331179187e-01,5.109945476240199680e-01,4.527447732444033757e-01
5.328246418349628089e-01,5.304337226950303075e-01,4.983797364527735585e-01
4.246231842216974806e-01,4.679177308268425151e-01,5.227643007404280118e-01
4.958898697544573686e-01,4.789246910420726921e-01,3.670209846604500226e-01
5.376252039111463210e-01,4.912821892542428848e-01,5.645445955036574315e-01
5.221725165895761966e-01,4.890858336927536021e-01,5.150860769249340221e-01
5.032331874859290455e-01,5.156320364569687564e-01,4.995803972004830285e-01
4.663036002660976287e-01,4.553859828058097747e-01,5.274819890035992165e-01
4.995990883233968893e-01,4.838538932117123492e-01,4.817928615587960262e-01
4.342251975176388834e-01,4.889354405401565851e-01,4.708350614624779440e-01
5.177417094342869897e-01,4.450236986526621696e-01,4.692456976038787420e-01
4.751034578130057251e-01,4.967688270571836706e-01,4.640159008928472217e-01
5.736735077795337423e-01,5.759946776191018358e-01,5.458484087262144291e-01
5.581268889990490534e-01,5.839495577332547427e-01,5.198905917651122088e-01
5.119716080346476961e-01,4.731036588116933617e-01,4.995731333522009376e-01
5.158734828594926380e-01,5.116156539692741090e-01,5.401258715629494445e-01
4.665620288454581654e-01,5.395843687685448753e-01,4.449103760004201047e-01
4.369315370661567277e-01,5.049320831605140780e-01,5.036537452862006603e-01
5.054008479169335155e-01,4.782463146718588520e-01,4.963631285530351045e-01
4.184973807406195401e-01,5.194229536411932857e-01,4.504712102020853592e-01
4.446734873337712113e-01,4.864641798584646848e-01,4.436100829021392689e-01
5.329094000981449142e-01,4.787701512053493813e-01,4.623095358177787828e-01
4.971284272673056059e-01,5.299343300727679118e-01,5.223456405633164490e-01
4.570082455445434455e-01,4.919200000120835803e-01,4.656458071928728515e-01
4.854693115336407017e-01,4.795468689076093916e-01,5.925627450131067953e-01
5.137697720369165388e-01,5.838694873181575762e-01,5.143039818891510517e-01
4.624291451118110463e-01,5.247149328865474693e-01,5.645226832519374405e-01
4.864149181918606124e-01,5.795898004558048822e-01,5.107183104235242244e-01
5.521796078627372317e-01,5.124108376918813379e-01,5.617983800841526154e-01
5.380094899823566479e-01,4.762296772297500702e-01,5.282777651549241948e-01
3.935207527204883649e-01,4.681277681005045488e-01,4.411252906013922170e-01
4.169710245286553651e-01,4.935893108118037942e-01,4.862306038025127064e-01
4.971618909590933000e-01,5.026948403789955888e-01,4.667193558014112731e-01
4.393048373080289948e-01,4.758537971070407879e-01,4.897531449891813771e-01
5.276307581344108488e-01,5.123170085620880609e-01,4.735527611599802955e-01
5.217989137582725867e-01,5.398162828955974657e-01,4.190424647234874955e-01
5.062519729856809203e-01,4.620659833936925920e-01,4.814511781221987863e-01
4.582189298346601158e-01,4.560669696338192081e-01,4.597726451448761464e-01
5.544429062413424036e-01,5.230426701045113314e-01,5.105397921880622247e-01
5.097186473186063882e-01,4.698285712126058500e-01,5.100283529354541212e-01
4.273814009136103209e-01,4.811292914614666572e-01,4.835713976304973905e-01
4.610073473187027426e-01,3.921108676663476178e-01,5.006613113326772169e-01
4.977556318247857159e-01,5.676719362756833531e-01,4.850040952003309980e-01
4.602878767200450083e-01,4.599528399584867366e-01,4.597078156076586097e-01
5.064425679219302090e-01,4.122728852245025610e-01,4.920053602356360689e-01
5.460206379710380586e-01,5.294722419043804695e-01,4.967348492473211419e-01
4.164340682095429291e-01,4.615111219880070892e-01,4.814362347211656457e-01
4.503587823116431688e-01,4.644230306814197129e-01,4.460183430064383336e-01
4.899461497025092704e-01,4.631913533594829713e-01,4.699525454401188851e-01
5.006159010292942080e-01,4.598033684717287572e-01,4.503794805440809457e-01
4.767742976726099813e-01,4.802169767296946556e-01,5.071426675108045012e-01
4.907142940923998609e-01,4.970926814551720474e-01,4.944501753799295241e-01
4.621340988425174934e-01,4.988488339976814845e-01,5.316674268611496501e-01
4.475003238508765691e-01,4.881385471991251945e-01,4.536129299648991586e-01
4.995634288863743944e-01,5.500952437052221144e-01,4.698422115853201353e-01
4.639793102029899363e-01,5.029105016401312911e-01,4.854601523431604226e-01
5.332416105378011695e-01,4.861723656008323236e-01,4.559617779111309055e-01
5.591626586518124720e-01,4.515842937973666427e-01,4.570392938945435635e-01
4.904234362129251679e-01,5.273166480369622100e-01,4.842962605978385904e-01
5.640990842049021792e-01,5.075571257067849062e-01,5.143048138227378496e-01
4.885535496829154223e-01,5.246186487888206962e-01,5.335628794513139761e-01
5.079892568633282979e-01,5.041498022377673971e-01,5.313378279472436017e-01
5.548906980296085534e-01,5.572342138673063161e-01,4.615821163356107482e-01
5.160112389694256896e-01,5.191876758223212818e-01,6.194953226299755311e-01
5.189047792320399255e-01,4.644612877111508054e-01,5.320146056213129748e-01
4.773267466623902222e-01,5.539024512148097434e-01,4.558814659697527638e-01
4.866177505885104226e-01,5.584087824883526840e-01,5.050477528063335164e-01
5.180490170864110455e-01,4.457490123722129827e-01,5.673746085676056872e-01
4.335323799954462487e-01,5.124929515533873658e-01,5.404192642978835615e-01
4.984987975288708295e-01,4.854245319816441473e-01,5.510682275965201882e-01
5.140292931833226886e-01,5.268618295083149494e-01,5.605004335978193142e-01
5.019419446937184448e-01,5.022340537321240417e-01,5.070090986538664524e-01
4.809784005994878209e-01,5.217833861968351750e-01,5.311420670349454864e-01
5.471411097381070343e-01,4.539694939279028674e-01,5.218127323457936173e-01
5.365230488070819037e-01,5.004265926912069284e-01,5.170974035136106650e-01
4.587827673980980348e-01,4.905041287695717789e-01,5.605994046731345160e-01
4.864679980471787180e-01,5.678369908923757148e-01,5.430473888608673416e-01
5.211391043650996924e-01,5.492100855685306815e-01,5.932808192727947461e-01
4.527465848140768689e-01,4.652506504749658323e-01,5.288874686870885800e-01
5.302259432653178006e-01,4.740809136281972092e-01,4.528623221745140537e-01
5.752032598053328227e-01,4.609521059561751399e-01,4.400922745784610624e-01
4.748930713381280810e-01,5.618235215033429153e-01,4.573280665214550234e-01
4.595131332089773535e-01,5.071405746418800042e-01,4.260802338549435908e-01
4.879336688024644153e-01,4.790880656644694313e-01,5.796238521695615820e-01
5.253356570558398442e-01,5.233504882161843508e-01,5.152935675756036282e-01
5.172244181039012956e-01,4.524962090332772524e-01,4.626072170480536871e-01
4.916035888487488292e-01,5.151679467578648142e-01,5.253527947706654322e-01
4.478247964925299307e-01,5.387598695148794192e-01,5.154040854045425224e-01
5.504764363974993246e-01,5.001704354448203160e-01,5.019892141247208617e-01
5.077297985728891350e-01,5.545390561779756089e-01,5.638460935528396556e-01
4.616184916499296853e-01,4.088849924634789801e-01,5.041875298438487363e-01
5.390347079962873877e-01,4.401452037344496526e-01,5.081491338910070210e-01
5.437819152891917307e-01,4.090381094199898038e-01,5.893869662449415792e-01
4.843719393015132879e-01,4.954616215644368493e-01,4.915361649265581057e-01
5.311647829372075913e-01,5.217355155104097530e-01,4.463438424498245571e-01
4.857766961189629029e-01,5.147830541458537912e-01,4.910742079527473658e-01
5.424696647263587135e-01,4.922480490718560975e-01,5.004660319883239561e-01
4.613772089383983421e-01,4.965514919122929749e-01,4.758726533322842345e-01
5.401235974650205884e-01,5.502101522560305380e-01,4.683911812564124921e-01
5.188577500286263300e-01,5.489329120132101503e-01,5.480113786670768317e-01
5.312747580958490090e-01,5.111326317410681552e-01,4.968133647261053221e-01
4.491802725703926691e-01,4.986005731578651012e-01,4.672052681404605945e-01
4.680613814298978936e-01,4.205597699120062205e-01,4.697867663844158548e-01
4.573628027897008730e-01,5.350291232322060830e-01,4.983264538355359763e-01
5.109436115351051466e-01,4.906671769541918193e-01,5.135227450534518567e-01
4.961553486125690471e-01,5.089262271268862881e-01,4.661013762194942123e-01
5.420076621279561468e-01,5.504290193980859724e-01,5.413728585907766622e-01
5.063311823739153894e-01,4.329950684366628555e-01,5.064903994664458065e-01
4.736531001743555236e-01,4.905826767584015036e-01,4.915299918219450670e-01
5.688205745380823242e-01,5.598252382921116155e-01,4.861520665161026544e-01
4.989217538266156327e-01,4.963303785552460878e-01,4.490872290765820507e-01
4.522883848695955500e-01,4.875266587974669830e-01,4.621733993855834943e-01
5.073912365379511513e-01,5.297697420224276588e-01,5.162136305565168115e-01
5.099691809232702600e-01,5.565455533528836929e-01,5.354322659170570597e-01
5.929815047823503438e-01,5.403339437034674342e-01,5.057153400536577026e-01
4.623039944146392632e-01,5.278403154658858343e-01,5.109027229801254011e-01
4.802759858123438197e-01,5.491646808448081840e-01,6.502045791771589034e-01
4.514187445903833917e-01,4.852697637921221108e-01,5.487718203930044281e-01
4.450033394258945951e-01,5.044177594574623669e-01,5.470581948382332582e-01
4.857274793548735370e-01,5.041954248894613411e-01,4.942335026399243270e-01
4.919999115578534976e-01,4.248181757699356353e-01,4.852137939357926144e-01
5.344287573254742352e-01,5.743129151666395149e-01,5.156218192071159168e-01
5.206142834450877555e-01,4.546845531125020545e-01,4.999295772218322331e-01
4.654951838012537091e-01,5.105473238452056250e-01,4.442954418867290922e-01
4.827767835160544641e-01,4.788365209160958536e-01,4.559201895311109642e-01
4.748984804763760614e-01,5.097070601751377827e-01,4.864437097356013595e-01
4.556803852997668991e-01,5.661631697616611447e-01,5.055669003253069338e-01
5.004782408954714379e-01,5.184082535161429472e-01,4.865689288043386074e-01
4.826073513082100308e-01,4.701006450505683665e-01,5.013709592131673221e-01
5.078642081013301501e-01,5.134217664395969161e-01,5.492614732051683823e-01
4.625422510048857738e-01,4.648338932861481032e-01,4.932890477002786489e-01
4.626599553237112916e-01,4.641984591266947735e-01,5.081641016219575757e-01
4.469014528360017446e-01,5.154263901144828797e-01,5.268492209399323611e-01
4.999324294924135104e-01,5.025288140388894931e-01,5.309391953867852454e-01
4.888423497030967568e-01,4.804411403545506554e-01,4.402489917535465369e-01
4.502229695470539861e-01,4.762623260740019848e-01,5.263576280352932901e-01
4.779799680663431860e-01,4.728415635348932611e-01,4.884737068377354996e-01
4.620890097974229005e-01,5.631237007095309943e-01,4.855777852976946307e-01
5.106201113707695693e-01,5.431461389880957169e-01,4.837718801025421844e-01
5.222129988911590193e-01,4.915680018333091206e-01,5.242055994079970471e-01
5.215432035755043216e-01,4.630320840269850358e-01,4.898258426706367241e-01
4.849990174675101740e-01,5.743193628373520765e-01,4.399311473395531302e-01
4.644586516217781291e-01,4.891492410213444386e-01,4.781173991310151972e-01
5.084344677877196128e-01,4.927845323008024914e-01,4.875876647200771408e-01
5.027657280292326947e-01,4.453904303220129757e-01,4.620576566458476919e-01
5.841629668996124458e-01,4.964598713190290225e-01,5.057221617646454614e-01
5.370476755606989894e-01,5.407264105181820435e-01,5.928207030215656426e-01
4.778442641775892397e-01,4.901555953284193468e-01,4.595921289573807189e-01
4.458866797185920272e-01,4.660463340688135170e-01,4.993921052346966816e-01
4.359183834162891347e-01,4.682289270136991699e-01,4.989680933245988492e-01
5.395862229299899226e-01,4.977379063253160041e-01,4.526319632715607444e-01
4.201673698409686408e-01,4.912454819078276302e-01,4.367613252380808109e-01
5.451568805539177553e-01,5.366737724660394226e-01,5.063756704869348813e-01
4.583915680211297916e-01,5.179029884474019019e-01,5.452998003685834982e-01
4.714741619724563959e-01,5.376441216154337344e-01,5.385123068500691224e-01
4.933395109429637992e-01,5.290475019866567319e-01,4.682490059977175711e-01
5.625194042676757711e-01,5.396636465508974911e-01,3.997537855013778008e-01
5.412881758132237486e-01,4.277921121163333895e-01,4.725861839397137443e-01
5.074791718863727041e-01,4.924794822450629939e-01,4.502302030172065650e-01
5.005984658913879004e-01,5.061617129016275918e-01,5.428012522310332599e-01
5.335958417541913912e-01,4.949795693299339772e-01,4.530206275747406530e-01
5.228300050350122019e-01,4.561832347800910958e-01,5.544265899708790135e-01
4.407039957095402749e-01,5.377468404818934733e-01,5.027984649490448987e-01
5.697970430141832132e-01,4.107085816028469560e-01,4.900413599820996891e-01
5.046715505317964645e-01,4.791961857406644154e-01,5.026565312258647333e-01
4.762316970857016774e-01,4.299682697296806633e-01,4.149703539637356609e-01
4.893551973593923687e-01,4.652442750179305864e-01,5.721740568866338084e-01
4.527436394044529466e-01,4.555282803192487462e-01,5.623029403166941442e-01
4.337526330083633641e-01,5.109960601163312521e-01,4.687647870892975854e-01
4.868299234274970355e-01,5.702084646325343842e-01,5.101095918019139530e-01
5.298214615927154814e-01,5.510050099058609874e-01,4.767866269967453441e-01
4.608635360118216173e-01,5.224642329888430359e-01,4.697952592855699216e-01
4.647822315104498947e-01,5.146620197128574103e-01,4.875810913733135132e-01
5.338651300696762858e-01,4.671922736320932579e-01,4.967498398969267814e-01
5.150968979395726954e-01,4.723319928848340732e-01,4.938387486569540963e-01
5.628929260079109653e-01,5.317731061307523488e-01,5.126683850797659758e-01
4.538212292927155111e-01,5.095049919714055298e-01,4.569499321122578728e-01
4.246053234996239878e-01,5.129489861760736513e-01,5.238122574864554348e-01
4.729510299497040049e-01,4.771906657452026912e-01,5.396786674577979115e-01
3.968911658811321019e-01,4.796548499928526277e-01,4.917173486885860201e-01
5.076490590456028684e-01,5.638929895838888928e-01,5.059528413303598926e-01
4.600640922887561657e-01,4.921313780038636398e-01,4.905391285376105026e-01
5.664621002405796357e-01,4.937326572468014318e-01,4.756902918462543317e-01
5.654699327506961248e-01,4.555600467507602835e-01,5.151300355904390171e-01
4.553842163126321507e-01,5.001778747075907861e-01,4.837393176230401770e-01
5.389137034123279157e-01,5.455022321630240700e-01,3.716045359629449041e-01
4.889382557731086765e-01,4.658773164978172177e-01,5.416851585253855683e-01
5.323141617856405050e-01,5.512302228946418525e-01,4.350342769222309003e-01
5.504427664418884980e-01,4.803005342022084734e-01,4.834336310428073435e-01
5.361282480122963046e-01,5.204859570234823263e-01,5.199144868686846888e-01
5.746587719110667347e-01,4.410946248528231917e-01,4.410095586178943705e-01
5.220641109487964560e-01,4.801620219532919953e-01,4.829502747831392884e-01
5.061600929407344962e-01,5.111526180449065260e-01,5.119347540392273910e-01
5.010667619224689062e-01,4.078085582361985484e-01,5.615343072917508005e-01
5.350447934311283182e-01,4.547725011855392463e-01,4.765936332579517321e-01
4.994048790875503796e-01,4.485536015732089488e-01,4.812137824485376858e-01
5.368770399716304986e-01,4.144374399424299305e-01,4.449036061040332890e-01
5.286430788763711863e-01,5.057747682276946266e-01,5.106569967716989566e-01
5.383802409072042661e-01,5.425754463561252017e-01,4.794513046822861391e-01
4.513192263593788223e-01,4.972412004901249349e-01,5.598326642015922783e-01
5.255237892212868411e-01,4.849773180723837007e-01,4.976805183247917652e-01
4.704088134333090365e-01,5.494299363810125625e-01,4.759817908269930453e-01
4.645867532290174906e-01,5.212222130380891327e-01,4.962235221956430853e-01
4.828041476651599995e-01,4.618185235852916293e-01,4.801084994632507930e-01
5.774801420131993046e-01,5.139531802328588528e-01,5.478416926414904076e-01
5.828995221956807526e-01,4.971301686087143956e-01,5.442511690210111164e-01
4.545383664203371810e-01,5.349719660568439394e-01,4.838075423517662621e-01
5.891924308786242737e-01,5.177303404381198293e-01,4.724162755820214277e-01
4.838358964035429644e-01,4.833541913598943252e-01,5.075193715981680675e-01
5.296727583816605023e-01,4.922240932798339630e-01,4.835323050278234058e-01
4.810220856716519444e-01,4.589086216988818578e-01,5.682594370705040809e-01
5.047537569516215017e-01,4.522607280670396523e-01,5.034688953639204767e-01
4.510286397543637471e-01,5.197313294590429900e-01,5.129132172220695063e-01
4.886712478196874598e-01,4.942409797099286961e-01,5.274473046174259494e-01
5.916966014177318378e-01,5.036005208351548301e-01,4.617304431427526890e-01
5.419412359686867076e-01,4.513193503403178375e-01,4.914977308627947461e-01
5.533403184037866129e-01,4.390094297430421344e-01,5.640416276489291780e-01
4.030934211900107367e-01,4.192950180360386359e-01,4.924431968251408720e-01
5.557860941320433845e-01,5.083659184540334497e-01,5.022857763166795886e-01
5.365408788479517632e-01,5.864529250276110384e-01,4.776116568189434641e-01
5.199953788125781795e-01,5.674614326529131558e-01,4.644693898451217606e-01
5.347703646838207758e-01,5.659564741624505402e-01,4.423268831160914738e-01
4.173237036324903282e-01,4.596013782920231883e-01,4.990582506578341015e-01
4.085290561776873108e-01,5.249051198544938401e-01,5.352570606410310683e-01
5.480435404482273398e-01,4.845924930475634662e-01,5.350765826724671603e-01
4.869894134779454431e-01,5.296792348838306186e-01,4.734269956546847680e-01
5.320257384131340528e-01,5.381735309496925579e-01,6.244795782120393657e-01
5.285584067403265029e-01,5.418178217105319439e-01,5.406309734286111057e-01
4.921820272741654345e-01,4.614768497748087950e-01,5.241389326957014427e-01
4.452941334360656089e-01,5.353948141840684238e-01,5.055902831205930648e-01
5.508383769412804609e-01,5.086464843162324945e-01,4.636904297248755080e-01
5.646356976912157988e-01,5.073051576581463218e-01,4.376202809539731509e-01
5.278312934144285817e-01,4.869944371996433041e-01,4.909265457268850441e-01
4.840439540952909403e-01,5.025775246218628922e-01,5.223021585321608873e-01
4.659465108072239903e-01,5.172245270723400123e-01,5.041759250177215712e-01
5.145654091872405855e-01,5.147765944754952860e-01,5.016124274841105013e-01
4.715924360446411834e-01,5.363964728914426550e-01,4.344948552821480403e-01
5.187514770438733658e-01,5.126058943531321965e-01,5.372762889979081358e-01
5.442193237018471130e-01,5.370902685318440506e-01,4.638598023903753864e-01
4.827271363601132181e-01,5.450508648976032378e-01,5.173278250621101693e-01
4.797450123617231776e-01,5.259784104116874692e-01,5.171357061253393228e-01
4.766189574073559365e-01,5.293090766043085926e-01,4.680432338793183433e-01
4.911213338403743189e-01,5.444268906375367978e-01,5.268561400046339882e-01
4.618202726480982179e-01,4.426866486841189441e-01,5.067930025610486444e-01
5.201329259493493451e-01,4.990989879279418839e-01,4.552334977996144727e-01
5.597888851693845202e-01,5.142142307678010393e-01,4.628416610210495108e-01
4.636742459414889828e-01,4.854871055578187100e-01,5.300516290431033228e-01
4.686673550614670614e-01,4.363128321293742173e-01,5.404659231982266165e-01
5.664199309080248934e-01,5.082409229966077246e-01,5.278963670693758159e-01
4.799036089788961124e-01,5.063513782298959542e-01,5.238102714971949458e-01
5.353522697476055248e-01,4.767455161897984905e-01,5.417722078760959237e-01
5.331330596530243771e-01,4.880292888039336474e-01,4.552772848909462100e-01
4.901713760939259146e-01,5.495840695418350297e-01,5.136550248220370651e-01
5.106414046369941451e-01,4.846138256914881981e-01,5.243010790899402807e-01
5.681116483943892126e-01,5.177139199956896087e-01,4.913923570520323802e-01
4.925074064370253968e-01,6.222555535737951393e-01,5.738408322796996197e-01
4.811300811737943550e-01,5.010607521122575347e-01,4.304459625495104524e-01
5.098276605041996978e-01,4.640353484606946077e-01,5.280779604031778929e-01
5.589671515655779688e-01,5.415701834333029874e-01,5.298123379433460345e-01
5.061154969045037477e-01,4.924786696289595311e-01,5.683527093334455049e-01
4.992309889393740097e-01,4.961214497615907271e-01,5.258405146081959192e-01
4.744582121585060319e-01,5.576906398272358789e-01,5.288490443805414776e-01
4.862789836780902486e-01,4.118390077364667556e-01,5.629829656763573054e-01
4.898956981367750818e-01,5.201672344487231481e-01,5.135251285880910732e-01
4.817595977492398207e-01,5.535365340189690730e-01,5.020928346304425194e-01
5.318143151344624231e-01,4.309899148169696881e-01,3.849394317537286891e-01
4.590069468266120833e-01,4.935391228912028860e-01,4.956115253576693913e-01
4.694170734106361542e-01,5.085225543221808531e-01,5.347150816528205564e-01
4.305840838122448888e-01,5.039760922218615713e-01,5.131692909578048356e-01
4.754963942131552046e-01,5.482310754944981213e-01,4.706830461881142402e-01
5.110483394015906677e-01,4.472048102550832960e-01,5.062156113032807436e-01
4.510866297216357124e-01,5.041562455413669541e-01,5.048416481873240214e-01
5.124133623947718652e-01,5.286845404818535377e-01,4.445172090384177932e-01
4.387560943825147830e-01,4.658207426250372540e-01,4.886648351462048456e-01
4.946657032932990083e-01,4.560092378749840969e-01,5.130288805418976583e-01
5.109235076049495339e-01,4.332462644310243749e-01,5.847681233769383979e-01
4.414713108118549778e-01,4.989920621884627594e-01,4.424221157886483180e-01
5.421761946326876247e-01,4.701538970392760142e-01,5.071145937931388348e-01
4.955018031380303833e-01,4.674789785633543526e-01,5.335764328588823435e-01
4.451215602883389910e-01,5.368185005205023952e-01,4.218240666613720102e-01
4.542266013101977640e-01,4.551348941511998425e-01,5.326018466098002557e-01
5.433230660806369627e-01,4.566788819687366274e-01,4.658792401588531251e-01
5.287219831693247274e-01,4.147414686980395171e-01,4.817450909238983892e-01
4.566074389530780375e-01,4.520346457039117749e-01,5.096094906831100113e-01
4.551780486915443236e-01,4.847861203326477297e-01,5.152908021405373518e-01
4.913840191947052571e-01,4.723720978893674594e-01,5.072833504878775379e-01
4.760539696164396983e-01,4.594915606904851901e-01,5.420115111109040651e-01
5.361569099282595952e-01,5.241422707529120872e-01,5.039961070946140653e-01
4.604749328863712576e-01,4.963192340619143050e-01,5.573492176157550659e-01
5.655207155801155183e-01,5.127754057465266913e-01,4.684078855939959873e-01
5.140256398060816245e-01,4.514392955155130394e-01,4.546428664629545424e-01
4.624281435586227729e-01,4.588027195036418759e-01,5.292281082848135920e-01
4.660637651100262846e-01,5.682494979773276000e-01,4.276702418095519875e-01
4.848059741860233363e-01,4.770892477884699501e-01,4.901262302907203328e-01
5.470203593228423200e-01,4.970105618331864816e-01,4.449192546849483620e-01
5.136676947091637357e-01,5.016688347752483734e-01,4.792767174050931445e-01
5.536109939635504018e-01,5.164560137742101320e-01,4.443624293917967094e-01
4.512934098294948959e-01,5.576958009467174460e-01,5.039587804286085326e-01
5.324550508036741681e-01,5.080621442711782398e-01,4.910607577900319987e-01
4.635036475405069911e-01,4.864314839132694024e-01,5.136993341387502410e-01
3.998979666978559888e-01,5.335730771781882487e-01,4.850154108317088486e-01
4.786961800057482064e-01,4.597727597588428528e-01,4.283084720844518856e-01
4.862045539820723516e-01,4.934279493182510135e-01,5.122240185798674350e-01
5.055059988903959356e-01,4.958101428062225424e-01,5.376546574848628524e-01
5.330505434627700323e-01,5.440910143200419213e-01,5.128562879772683436e-01
4.849478598862454470e-01,4.978023637907290633e-01,4.765354951028990538e-01
5.558582214773241104e-01,4.784748550494527519e-01,4.852335697687425453e-01
5.889641067815325481e-01,4.442960613753238475e-01,4.927564010212946433e-01
4.864605480545145522e-01,5.008013520898126902e-01,4.407878592181180277e-01
4.939759086518710207e-01,5.407592339809826898e-01,4.933537747100849025e-01
4.635381853203213720e-01,4.971483938575055883e-01,4.657133028039470712e-01
5.447120267158780393e-01,5.369248420654075815e-01,5.383467602722593615e-01
4.838041644431617105e-01,5.360893342911680071e-01,5.078273045470542701e-01
5.020007935620649508e-01,5.565649375557423228e-01,5.659974102651011973e-01
4.597625504685426412e-01,5.503228141556026909e-01,4.656031343621599428e-01
4.747129271187938704e-01,4.694265253114243697e-01,4.189174865204471354e-01
4.887943886354600975e-01,4.411445410782927068e-01,5.246910025629789587e-01
5.795837228346405468e-01,5.164259188206719031e-01,5.585002479587535262e-01
4.945073767752822258e-01,4.301670081231200315e-01,4.960580542191710407e-01
5.171702875853788628e-01,4.378786410221338077e-01,5.635309907779846306e-01
4.971199265713241999e-01,5.364172546607082204e-01,5.984376908997657285e-01
5.007494714706467454e-01,5.519567554118876007e-01,5.818371892105843601e-01
4.773665912673457634e-01,4.850737786696621701e-01,4.218696598519408036e-01
4.706804691600822710e-01,5.145524225597609691e-01,5.401396399472029319e-01
4.116708638229693018e-01,5.493667781875255507e-01,5.298389721694608534e-01
5.598606421070170258e-01,4.049016581410017634e-01,4.534502993109481017e-01
4.486024369879177409e-01,4.354387293121410041e-01,4.874886540334276708e-01
4.937342212341876424e-01,4.723745497596872345e-01,4.876754616587606339e-01
4.840499133687536926e-01,5.642058339752377139e-01,5.088584607253446856e-01
5.502999288711389880e-01,4.678855116722384633e-01,4.447923023516079377e-01
5.529958262978960093e-01,5.057366466581897368e-01,4.719212412345770158e-01
4.739655462329746549e-01,4.946439941616129765e-01,4.321868596136674290e-01
4.875607744913081909e-01,4.571809947850374312e-01,5.504495642135251998e-01
5.764056456943634776e-01,5.037122189643779002e-01,5.083038475639340970e-01
4.801264874050891196e-01,5.071562608090691704e-01,4.556471678075396659e-01
5.367527859455548667e-01,5.275168587816796428e-01,4.835646382228285800e-01
5.238048019462536731e-01,4.572726853619707987e-01,4.960014213512295989e-01
4.295887918519370463e-01,4.770036814100555023e-01,5.663301482679018450e-01
5.403600861216661944e-01,4.781645418100610168e-01,4.591275375875670806e-01
4.332084618238526974e-01,4.226012121722967918e-01,5.764808082346701834e-01
5.003627067958243968e-01,5.684636640204792091e-01,4.635410648038215675e-01
5.081200003496560980e-01,5.493171567456901494e-01,5.276575649652606170e-01
4.512577214341808585e-01,5.689486591718534436e-01,5.528677243968185273e-01
4.816573808378130095e-01,5.074264347597592373e-01,5.168269816811911221e-01
5.568061044539809323e-01,4.633996301192965239e-01,4.294945134419041466e-01
4.237647548880719706e-01,5.321136642859564114e-01,4.463561585479482452e-01
5.346581953546722943e-01,5.063391535740556781e-01,5.055281098331160239e-01
5.020604731416045130e-01,4.639635556406318528e-01,5.042985311388008540e-01
4.425989353109544555e-01,5.320903436248674012e-01,4.835328330527800533e-01
5.163390730976274989e-01,5.817651588410779340e-01,5.031708429631225332e-01
5.054554478933106498e-01,4.961254760118035123e-01,4.636389443018067991e-01
4.663428708468579376e-01,5.200034108713238457e-01,4.050984336981847123e-01
4.352229941659727652e-01,4.479481912289766110e-01,3.804609795673442596e-01
4.492474576058240743e-01,5.370290687249051897e-01,4.946914151513273072e-01
5.610368351139310983e-01,5.691237482887367971e-01,4.773686032492097664e-01
5.461893401010123883e-01,4.826161029522129109e-01,5.236191279823357858e-01
5.360190176760810665e-01,4.935716445390351814e-01,4.842280052497711651e-01
5.117876508205366770e-01,4.737133358964633056e-01,5.295231180914770075e-01
5.043068430615202935e-01,5.486610075614138937e-01,4.542015902514389691e-01
4.705311695850235565e-01,4.712363277560071562e-01,5.084095748937730308e-01
5.186919182254832172e-01,5.582729488888152902e-01,5.275859605311528089e-01
4.254477424649351081e-01,4.903029102229887193e-01,5.436242939911261063e-01
4.938044106497360697e-01,4.965212511097003012e-01,4.784807532991616763e-01
5.819718936194147041e-01,5.243374365941378956e-01,5.081858164605298489e-01
4.293183911797526786e-01,4.516165196713300967e-01,4.196537098995314352e-01
4.951647483496240953e-01,4.690686049002944502e-01,4.569574044504640664e-01
4.260128068649374766e-01,5.213147474795801761e-01,4.634985245447740820e-01
5.399536934088715601e-01,5.336311842551623164e-01,5.250466631166168519e-01
5.073900015968517696e-01,5.353875861408810000e-01,5.594438872480838043e-01
4.777388357837215049e-01,4.613445514468501041e-01,4.478309645760755187e-01
5.053578665962511485e-01,4.849501498609520844e-01,4.879120231563213728e-01
5.213262248323110581e-01,5.421033892188581449e-01,4.781055701303706940e-01
5.006474187868996673e-01,5.477752991478458400e-01,4.538746194944782153e-01
4.878174032653830872e-01,4.998413201121001403e-01,5.426097359138941645e-01
4.777865798742892411e-01,4.970776250651992578e-01,5.475109678855123452e-01
4.831719761950050152e-01,5.241756687111004398e-01,5.729205766470135686e-01
5.194278188793612916e-01,4.236922749283133505e-01,4.981114230124472630e-01
4.815794992388014450e-01,4.721311204006946594e-01,4.277572807102841268e-01
5.585224376132481572e-01,4.907025783368186844e-01,5.817120791334435825e-01
4.846013368390463261e-01,5.116414399388242717e-01,4.625371425067398845e-01
5.029980822997474066e-01,5.208537514919798772e-01,4.886405168836125412e-01
5.007170017963803454e-01,5.546655596259443266e-01,5.078598935855268559e-01
4.842247556523610608e-01,5.355746087223551832e-01,4.684689530287587944e-01
4.475647586655408516e-01,5.033533424797819178e-01,5.580951170802286310e-01
4.659591377310667859e-01,4.241996751924271836e-01,5.058628734827135265e-01
4.814687165182983120e-01,4.556617399633539622e-01,5.760400169682403648e-01
5.156612435032744690e-01,4.587181858179707472e-01,4.628741673927655453e-01
5.245975835636615958e-01,5.121639494458918307e-01,5.034083828433102425e-01
5.177353364640210343e-01,4.602572230635354478e-01,4.573031195633122659e-01
3.824724284124879636e-01,4.791453271730654606e-01,5.197015743123094556e-01
5.185394077336169527e-01,5.162500524564344051e-01,5.190702111421579001e-01
5.078524935755113212e-01,4.758237209906376330e-01,4.741828259859491856e-01
5.089931347862540756e-01,4.127505505494830085e-01,4.768007900789585918e-01
5.030754521998704876e-01,5.218353688555361636e-01,5.248468871101320543e-01
5.261399781138486054e-01,4.788264369468560600e-01,5.126498207412731878e-01
4.775686015893153002e-01,4.311015214985548516e-01,5.249818412716575899e-01
5.311539717353074286e-01,4.710530733796087777e-01,5.447058503351099867e-01
4.994957802603313679e-01,5.620061873202409908e-01,4.918925431466667497e-01
4.842544647707613392e-01,5.046513976897326614e-01,4.980610525432173086e-01
4.714326599913087890e-01,4.905717834753386963e-01,4.262813417937720284e-01
5.367357439480905379e-01,4.819185081476825006e-01,5.493640882657759850e-01
4.937750949197711736e-01,4.953932210202477426e-01,5.145608045226335303e-01
5.509090679404333724e-01,4.822131158246030225e-01,5.175263364008608757e-01
4.799318526393183126e-01,5.169462202277749219e-01,5.189558961444901142e-01
4.848620033090054182e-01,5.270204252977179760e-01,5.228880219120412010e-01
5.144948498777514034e-01,4.544429858981312575e-01,4.981237810272609590e-01
5.462227575074306563e-01,5.395939866954598818e-01,5.130568304569573801e-01
5.054442728722484679e-01,5.869360547625426250e-01,4.960383334813286971e-01
4.775642632833804191e-01,4.849168417702079958e-01,4.622386310942171450e-01
5.890067361054757145e-01,4.983589821762459127e-01,5.308059835214457012e-01
5.186249218669229943e-01,5.097317267981095190e-01,5.120407172319605404e-01
4.172789663403655425e-01,5.214931450226419907e-01,5.502530635088607180e-01
4.636715260692963470e-01,5.402274455004967280e-01,5.148277230557571915e-01
5.164572109075994399e-01,4.763655561933054505e-01,4.773380396093160893e-01
5.167842929217953962e-01,4.882494158375013660e-01,5.473056941008160869e-01
4.455347028009176702e-01,4.817862661527736456e-01,4.606897647814938712e-01
4.688842128732385595e-01,5.139038494347437647e-01,4.698100017192108901e-01
4.685551587516131322e-01,5.267998116094830818e-01,4.857258780885570504e-01
4.775351149363225023e-01,4.536516162946624409e-01,4.504551067862002101e-01
5.076946960233321704e-01,4.627564153174829054e-01,5.441040485190465903e-01
5.751441536656607401e-01,4.504320003791640881e-01,5.109423514924814613e-01
5.073749768342318278e-01,5.283221150366185226e-01,5.076069518050956297e-01
5.076952334324927874e-01,4.916980134744661779e-01,5.623807429002758429e-01
4.270269774267228535e-01,4.698430375774396706e-01,5.227946381096126860e-01
4.702535605297807342e-01,4.999249573378483635e-01,4.927935779055452881e-01
4.964192023783391972e-01,5.423108595225882844e-01,4.073106759306999725e-01
4.929931733225184631e-01,4.644393266513199281e-01,4.616301939218083739e-01
4.364530214565726096e-01,5.270371400648967697e-01,4.208581851518166661e-01
5.048374988971373600e-01,4.390821217806892829e-01,5.522029817152178666e-01
6.273944951801383452e-01,5.395906707465858432e-01,4.982046894420559813e-01
5.440597556178626837e-01,5.790962451461812988e-01,5.731133478964445249e-01
5.206205157254442106e-01,4.906269404294297254e-01,4.608453056810639104e-01
5.277452398823520019e-01,4.864673567480412020e-01,5.453727195336089961e-01
4.598144664299421147e-01,4.470982547899392534e-01,5.506602461158935924e-01
5.318734189460845307e-01,4.707061818816811738e-01,4.906108887605377666e-01
4.795258403063124564e-01,5.359219212567397639e-01,4.253279291112400662e-01
4.526989729075483471e-01,5.014096759187386398e-01,4.404097356835958155e-01
4.878120472392382112e-01,4.869578296551688723e-01,5.355493333277843160e-01
4.325290100784499048e-01,4.745813859216585495e-01,5.120209818442440497e-01
5.287209683418236938e-01,5.228355145795382519e-01,4.769848304124016392e-01
5.315736384600081577e-01,4.961779349457213772e-01,5.230350089143397385e-01
5.380977356792657762e-01,5.285362222302476543e-01,5.042224245097598478e-01
4.777927411836561111e-01,4.450216807445655509e-01,5.576617705570769967e-01
4.907834471075791516e-01,4.907612044906736748e-01,5.002434762248001432e-01
5.017545006105330607e-01,4.994668376677626753e-01,5.986639694928090893e-01
4.017788479115239619e-01,5.136016662026756663e-01,5.108717231454489305e-01
4.858757009307790864e-01,5.340807684073238804e-01,4.592148770090242471e-01
4.757179444397475199e-01,5.182106763542813077e-01,5.255693380305332951e-01
4.863471768143094454e-01,5.349160506692931527e-01,4.928307785187656664e-01
4.863230870731531374e-01,4.875558777523004150e-01,5.297579473812429329e-01
4.845278318785561367e-01,4.637904886380737057e-01,4.686122007850542781e-01
5.040912307505224232e-01,4.892306073849217452e-01,4.998267784797318924e-01
5.333942633806839639e-01,4.739417491422578399e-01,4.259048374827304473e-01
4.910544766330480204e-01,4.875085833477187935e-01,4.860325775339462417e-01
4.942676240082641836e-01,5.073492974189657279e-01,5.081176271123269972e-01
5.325082549113924202e-01,5.265453660279312276e-01,5.372455388013467337e-01
5.431914727484323802e-01,5.631495258607984722e-01,5.001710442835536341e-01
5.294109718278025012e-01,5.522577025817521079e-01,5.536683004489193483e-01
4.727208485141217165e-01,5.379658045737115701e-01,5.643005858910160599e-01
4.537121477790093116e-01,4.996320415889590194e-01,5.548816656317796525e-01
4.929550573060349494e-01,5.283400110788778470e-01,5.432674408724056381e-01
4.725208526972231038e-01,5.383541354658110123e-01,5.085725775555091088e-01
5.161109692682031014e-01,5.348469297289816238e-01,5.430056402173724095e-01
5.917483657067412750e-01,5.612331472926488374e-01,4.627248501491952326e-01
4.697855818081914103e-01,5.388708573157233728e-01,4.826176161048518209e-01
4.255207401044661664e-01,6.102560634489724301e-01,4.262064853284712740e-01
5.090634971085936655e-01,4.590635336369333075e-01,5.019937059480873431e-01
5.014050432523522449e-01,5.565781850945009657e-01,4.929147081401532016e-01
4.976564404524810858e-01,4.461816958225808261e-01,4.836656321372126976e-01
4.818436384841223163e-01,4.804577774939816082e-01,4.405717525021166092e-01
5.095378240644984347e-01,4.938032747222680929e-01,4.878141856686211142e-01
4.673671978888564449e-01,5.162231062486007938e-01,4.727475676677994065e-01
4.510743745213176559e-01,5.528959865053061362e-01,4.929727530645613975e-01
5.183966818694395462e-01,6.090513013190355096e-01,5.481180940018320902e-01
4.918068970775811843e-01,5.616351931193493963e-01,5.153832245025292691e-01
5.137929294806612424e-01,4.413020531342680686e-01,4.790922896242175710e-01
5.035115961545173491e-01,4.366408800585585004e-01,5.558518039385134113e-01
4.724338908217569077e-01,4.847662562098558614e-01,4.339545043376182853e-01
5.442147100541466775e-01,4.856108249825398238e-01,5.164185767276594508e-01
4.702104529364205532e-01,4.990971917814303049e-01,5.279068179768628966e-01
4.634179380000486570e-01,4.142186925595529590e-01,5.317203174917646269e-01
4.711906744267693736e-01,5.353226201140947049e-01,5.071617923584987864e-01
5.468484010829072206e-01,5.431921111335125119e-01,5.452370544355298332e-01
4.256119075109629502e-01,4.680188714446751330e-01,4.505684171798591264e-01
4.929756562698529576e-01,5.318281672230209534e-01,4.900736267241129207e-01
4.837562341564061730e-01,5.301331614636800582e-01,5.428413686807458394e-01
5.546892195845454232e-01,4.709502083776540005e-01,5.333643044448937998e-01
4.543722009556070973e-01,5.129140535522178634e-01,4.986062833322139065e-01
4.959250243221907106e-01,5.254201502926573175e-01,5.074991220526671176e-01
4.821657077843781170e-01,4.985305209105728164e-01,4.869321760056048443e-01
5.676250700325764509e-01,4.709668107386655311e-01,5.184258349080819173e-01
5.606303327015911275e-01,5.007294406715052659e-01,5.659054942888904760e-01
5.457858645313480306e-01,5.279874802935623501e-01,5.372819585631697370e-01
4.958040635906554860e-01,5.080817930828910312e-01,5.743211523922124861e-01
5.410413013847292785e-01,5.457384269493998907e-01,4.289722120127117400e-01
4.533137778648817506e-01,5.348191743591321767e-01,5.132243344285892794e-01
4.752168042426748173e-01,5.232831074551477224e-01,4.846002442003022326e-01
5.051809428292847182e-01,4.213117138034839226e-01,5.138972300741182497e-01
4.879586832091479254e-01,5.516013373381172258e-01,5.144910828155819793e-01
4.555540601988617988e-01,4.497938013312167693e-01,5.005010445181451439e-01
5.392399136593155617e-01,4.579129556661641898e-01,5.031930108454450989e-01
4.924922790843817566e-01,4.839549042817087310e-01,5.046487992786510279e-01
4.968977283793108990e-01,4.896684987950471468e-01,5.002063548943423976e-01
4.981301925916593043e-01,5.309479546008117889e-01,5.075194822037749631e-01
4.613439031531765266e-01,5.782653651173489395e-01,5.653683707441045092e-01
4.862985187746842741e-01,4.855678110071231512e-01,4.459887153269106452e-01
5.522153939007012902e-01,5.061959267773310511e-01,5.255441428106413237e-01
5.476154158656090232e-01,4.805930437284314238e-01,4.779076131308152009e-01
4.639491629335280032e-01,4.919159352614878022e-01,5.339807825091971161e-01
5.568985690212034934e-01,4.915866946926393255e-01,5.467740813929972132e-01
5.100286449197486416e-01,4.892852559481950525e-01,4.556624435785720517e-01
5.359240553671102969e-01,5.485876460227079310e-01,6.075357156017938687e-01
4.858709074986448107e-01,5.163941726365978147e-01,5.096640330069257541e-01
4.951553774000606034e-01,4.169720463255537912e-01,5.287964065245863710e-01
5.124579522819893151e-01,5.422559086138422080e-01,4.665848389655150585e-01
4.635076759535773916e-01,5.234277736619926680e-01,4.832392587973041165e-01
5.405389301081955367e-01,4.711731703811316008e-01,4.477839972461623574e-01
4.679352388585558686e-01,4.591436338111733462e-01,5.605414116108557998e-01
4.754813046795371978e-01,4.617102801407237389e-01,5.266170679524961873e-01
5.533273432448799767e-01,4.392473505334100192e-01,3.797837273538195446e-01
4.061418305389602468e-01,5.144034875247206484e-01,4.655989673354207770e-01
4.905527333203629770e-01,5.179404742839744946e-01,5.467462198004912066e-01
5.872346922775140143e-01,5.435893761100364374e-01,5.129760150893741821e-01
4.570201508996772355e-01,5.517739838751398729e-01,5.586155817909173038e-01
4.323197227861896308e-01,5.278343168982159161e-01,5.160606762873857223e-01
4.917761776731018331e-01,4.866226383843682002e-01,5.006128739585175014e-01
5.448151411501408470e-01,4.773371471388463960e-01,5.602276347880953411e-01
4.383321852386777295e-01,4.929169431052203842e-01,4.757237938579365055e-01
5.138278138384607674e-01,5.280424529452859561e-01,3.826526383073224347e-01
5.082766837159137241e-01,5.137574915088135574e-01,5.870573708073443253e-01
3.993140147669560491e-01,4.134938627083873386e-01,4.866858068592882502e-01
5.121299121889609784e-01,4.157357247298228420e-01,5.719986755890617003e-01
5.298050965730071171e-01,4.418635320587983029e-01,4.842608536014683107e-01
4.499683264030205909e-01,5.097247146134464835e-01,4.541062455409287657e-01
5.015830306339225109e-01,4.609439044971903043e-01,4.659622528772088823e-01
4.284058432127094695e-01,4.440379336234016594e-01,4.979257600919667626e-01
5.296458252777304088e-01,5.128969292929489443e-01,5.032469407991425614e-01
5.431243202421638383e-01,4.817909088789332217e-01,4.742694326353413814e-01
5.038417794754673773e-01,4.068843321952784198e-01,5.722368211226487311e-01
5.150045438314289070e-01,4.582355948661681611e-01,5.788837799865128586e-01
4.582101381477861612e-01,4.890517653277327015e-01,5.456896304875938908e-01
4.915497755618065123e-01,4.734620423827594626e-01,6.175199177277733709e-01
4.751527561405679556e-01,5.549859316501767337e-01,4.568062434912293357e-01
5.496063939273815313e-01,4.984518284838175828e-01,4.767231974276138207e-01
4.248756983711845514e-01,4.935642250685036703e-01,4.330463260584404006e-01
5.037408057805667916e-01,5.543700449323439861e-01,5.274286625197071032e-01
5.391595546040861553e-01,4.475164527509636891e-01,4.972968169975229280e-01
4.959133314361714451e-01,5.619502019186363162e-01,5.424242911033483328e-01
4.473228142372847049e-01,4.751934812674524777e-01,5.269929397727231013e-01
4.785175691488233185e-01,4.687752875689709109e-01,5.389778669266385158e-01
5.305534295166975944e-01,4.404754243213723219e-01,4.751373277833582098e-01
4.606995337844284610e-01,5.276085278367198539e-01,5.321902021446569542e-01
4.752219435156185834e-01,5.487630007321215864e-01,4.630991566503439572e-01
5.741041895989485999e-01,4.649889256688827244e-01,5.152340815151460474e-01
5.416170252944731978e-01,4.537548033569534511e-01,4.335147443390275912e-01
4.679900488644483936e-01,5.383207355623288448e-01,4.347157761834393175e-01
4.821891753640898393e-01,4.385957633789945298e-01,5.331802391416166076e-01
5.601387016871772762e-01,5.089463659762929471e-01,4.908616124363952560e-01
4.717960351658886942e-01,5.097135857503893863e-01,4.435285570540002387e-01
4.585233329265379632e-01,5.196397582793241821e-01,4.532935385139307827e-01
4.766792126651139827e-01,5.067477760650052065e-01,4.219002610788588625e-01
4.543301678140426736e-01,5.264689207627494261e-01,5.302934211232639417e-01
5.951706889480522511e-01,4.497265804337969852e-01,5.606314089844433024e-01
5.286751537690927982e-01,5.125721423933105036e-01,4.087435678741280776e-01
4.584463477868617742e-01,5.396390993367220501e-01,4.646476148181125643e-01
4.661522155926161037e-01,4.888172701748000892e-01,4.701159076353703670e-01
5.263886869707381511e-01,5.086685113847125850e-01,5.289836713178783789e-01
5.649557160468435812e-01,4.739328271699883577e-01,5.497067369602808284e-01
5.415763915584611565e-01,4.829962973005523241e-01,5.009943271835733958e-01
5.056142756254384807e-01,5.402990117488086774e-01,4.871833829945916849e-01
4.926911465203849816e-01,5.386350637856938128e-01,5.438988416211950616e-01
4.597236615719120789e-01,4.780633734128352796e-01,4.603354616390770149e-01
4.943166155435626541e-01,5.185607257763775735e-01,5.428729599013590867e-01
4.228179088697357479e-01,4.562664514492441592e-01,5.244464254973726369e-01
5.172488122373698483e-01,5.237269551144534407e-01,5.383210803580997794e-01
4.995135509150788189e-01,4.953439009366680801e-01,4.706344960313458281e-01
5.004083723788982363e-01,5.392900116841312652e-01,4.757205285599945821e-01
5.164607463609666160e-01,5.371247851043543520e-01,5.552639215525798644e-01
4.954818833884219731e-01,4.368381250505006808e-01,4.934633998160601887e-01
5.140667698019808496e-01,4.686325801418799175e-01,5.271165481417130483e-01
5.282338622141298234e-01,4.762924642246255669e-01,4.249317358689463364e-01
4.927956056532880047e-01,4.973576316122511054e-01,4.607225347728725051e-01
4.627519685026259544e-01,4.724491994293028574e-01,5.355141586662822695e-01
5.148654718536489483e-01,4.898456389646510534e-01,4.755137496447946477e-01
5.490283832425764121e-01,4.843759802150786054e-01,5.659060491347609467e-01
4.477184845243782907e-01,4.628853087473493999e-01,4.961278097854706082e-01
5.722103567487719644e-01,5.512318052208693420e-01,5.469474908349918341e-01
4.596582520086197610e-01,4.627805168722864959e-01,5.039573123874940830e-01
5.418076654741240672e-01,5.050730826647928939e-01,5.745174603155460691e-01
5.028860757703398354e-01,5.028186759309066778e-01,4.906666547641903020e-01
4.243156862559380182e-01,4.844711591970406461e-01,5.167679132491882488e-01
4.201347841437769182e-01,6.120321908076694628e-01,5.333478993516551636e-01
5.246632524198449055e-01,5.261885065802502925e-01,5.657969601393609826e-01
5.209979863316083204e-01,5.406848221636756380e-01,5.056818835235712406e-01
5.126866294931328172e-01,5.476659268462356067e-01,4.757780800304713953e-01
4.580907916600758245e-01,4.885902648615446098e-01,4.482588614750521172e-01
4.523733735791596877e-01,4.958589808539128896e-01,5.172722630421787704e-01
5.050884721221140516e-01,4.970979773008686875e-01,5.526655376952560594e-01
4.727262739174296624e-01,5.019142880405396134e-01,5.332535856084650305e-01
4.586624840525546087e-01,4.114364899314755242e-01,5.851656633753570258e-01
4.659099915656316204e-01,5.450836220361370277e-01,4.591122547189141478e-01
5.106915403851748358e-01,4.808144194792053905e-01,4.563983938810090568e-01
5.083778260953453199e-01,5.154813455130916600e-01,5.224993296654782959e-01
5.373274123798251756e-01,4.804913743846636054e-01,4.352809124861189982e-01
