accel_x (m/s^2),accel_y (m/s^2),accel_z (m/s^2)
4.224948644658884506e-03,2.150292169085367931e-03,-9.798141411570341575e+00
-4.581457222336054666e-03,7.924985201796042392e-03,-9.789849419653245732e+00
4.678132059734373366e-04,2.966079808154614781e-03,-9.795942311132856517e+00
-8.079551056208937598e-03,1.013781000052845112e-02,-9.795473802966474963e+00
-6.315848138484101565e-03,7.965138703834150763e-03,-9.791107870400470148e+00
1.692596219275368033e-03,-2.369300198375236775e-03,-9.794080082530399523e+00
-1.150321630468472290e-04,-1.480750541211415389e-03,-9.788270709006882342e+00
-1.200522897848485754e-03,-3.054539845276508722e-03,-9.804068934525709267e+00
1.394668661784750213e-03,-1.719905131141467348e-03,-9.797372525787524822e+00
2.075048225299217560e-03,5.230214096497179345e-04,-9.792635549434056230e+00
-4.414813706467787119e-03,1.120857089618979702e-02,-9.787977800830640618e+00
-8.553854455936626185e-05,-5.626416488305314989e-03,-9.790801268438906746e+00
2.491929862057774923e-03,-3.776925922720679365e-03,-9.801707048135378741e+00
2.826922622706413719e-03,6.874038762297370042e-03,-9.798868610813807223e+00
1.901332033130211183e-03,2.354137363261183356e-03,-9.792194910628394311e+00
8.597362633103485322e-03,-4.381864664046934699e-03,-9.799736759661342944e+00
-1.008163957634262628e-02,2.544493756137078400e-03,-9.791585010235966280e+00
-4.954190277988882590e-03,-8.972400658055221592e-04,-9.789897203474831500e+00
2.171298343528655500e-03,2.500038277601524667e-03,-9.788402153105492332e+00
4.571135891884802599e-03,9.613614665709821830e-03,-9.795177984515447633e+00
2.091332311926906180e-03,-9.600082430573034925e-03,-9.796906381244845363e+00
7.968254466381179037e-04,-5.557153325752467107e-03,-9.792395801207248951e+00
-5.832274061787917803e-03,9.811498047943340364e-03,-9.791022712664311456e+00
7.524838074587901667e-03,-2.733228664088092549e-03,-9.793173314298060816e+00
-3.912652995627861376e-03,1.280752993889160227e-03,-9.791892754187689007e+00
3.855533930101040421e-03,3.367280854592777893e-03,-9.791917104036906849e+00
7.822488077095351641e-03,2.460456052800493332e-03,-9.799947769840855472e+00
1.233283766004496240e-02,-6.598668388052991024e-03,-9.792653720888042201e+00
3.599841226312828178e-03,-6.734293299310141478e-03,-9.807466173870501791e+00
-6.338354463263158774e-04,7.436008402553427252e-03,-9.792143448640612036e+00
-1.515426862375622357e-03,5.102648097647014165e-03,-9.794299668203661824e+00
-5.739487449696142017e-03,5.269229889955462896e-03,-9.799636911111441862e+00
5.696832883668406875e-04,1.711623537175683066e-03,-9.790931948324363532e+00
3.649226952600621962e-04,5.159161614026248899e-03,-9.799968604843606101e+00
-7.289777851214124249e-03,2.253492964960541328e-03,-9.796870499543722133e+00
7.232805282132276879e-04,-1.110667010658155426e-03,-9.786587130785887823e+00
3.860584114424463198e-03,4.306221734813702774e-03,-9.794081128907693667e+00
2.363945080356037037e-03,-1.895527391638928468e-03,-9.792285898427085300e+00
-5.983170523242237193e-03,-1.372141475867182103e-02,-9.795054919352313760e+00
-1.067920350658716107e-02,-4.911978267469526566e-03,-9.802907420539531458e+00
-2.371220756640772878e-03,3.671362456144618234e-03,-9.794365697627622325e+00
-3.515719218035364552e-04,5.579856632348764722e-03,-9.793552994062645567e+00
1.890143648966947183e-03,5.659236161420403734e-03,-9.793349154281912661e+00
3.229672665320999954e-03,-7.523498629811462522e-03,-9.796779824990322183e+00
-4.888263736833609865e-04,4.721456537026694558e-05,-9.800988838076266418e+00
-5.829720850982118580e-05,-4.188967350339491830e-03,-9.799135740903397007e+00
5.729947435327810250e-03,1.317727289880101568e-03,-9.787228194089355071e+00
2.657291687909492817e-03,2.188345703150947584e-03,-9.789312323118638304e+00
8.335909485882046690e-04,-1.508831015928263890e-03,-9.789702724979919779e+00
2.740921338895654924e-03,-5.121085018851099114e-04,-9.798554747158975786e+00
-6.422992812103669666e-03,5.523687248773293847e-03,-9.795249815113610481e+00
5.272529782940333851e-03,-2.988379881014253947e-03,-9.789391822479039718e+00
-7.751208168458003506e-03,9.339982362479379990e-03,-9.802952847332157660e+00
5.312650763555959487e-04,1.499120572701444481e-03,-9.801001398722872793e+00
-2.890867632481576750e-03,2.934457482789048447e-03,-9.793856108453136144e+00
-9.238609819337861070e-04,1.447966462985772126e-02,-9.786970362126314882e+00
-4.194883638432199413e-03,1.104684880817409986e-04,-9.786443975013300545e+00
-4.203479731986725122e-03,-5.915116245484688994e-04,-9.795473148050113821e+00
4.101652580773936657e-03,2.415854792413039964e-03,-9.790478510949023772e+00
6.928987264092799012e-03,-5.818558521971363418e-03,-9.800794973596261173e+00
7.420315687998582828e-03,4.541964405034453790e-03,-9.789977415712765918e+00
5.581571864071022647e-03,6.419758222172129020e-03,-9.798274557462718803e+00
5.944964181781500941e-03,-2.401205580854010296e-03,-9.792802167881424324e+00
-4.428221590349136309e-03,1.449874281343226578e-04,-9.793948706164561813e+00
-2.798273909698965889e-03,-5.996060030069932326e-04,-9.799952979708058010e+00
8.425607886136322194e-03,-1.508775250588445787e-03,-9.794430150875330199e+00
3.835151302226218195e-03,6.783941461731325846e-03,-9.798267181843883122e+00
5.049264547536716843e-03,1.696790755436656042e-03,-9.795371171617395234e+00
6.372727795012880954e-03,5.077205523648487852e-03,-9.788267404621025847e+00
5.344066497052471412e-04,-6.266207159840902867e-03,-9.790883062401164239e+00
-3.080508018645314490e-03,9.711181416311403039e-03,-9.791256838790380002e+00
-5.919533861084321077e-04,-4.871579076932317735e-04,-9.797514778774829125e+00
1.648364873198474283e-03,-1.272566270879983089e-03,-9.798857152606425203e+00
2.069638949834855246e-03,-2.977925796635827807e-03,-9.798920407319412718e+00
7.706527609659733196e-04,-1.413710458246593329e-03,-9.793757098275229112e+00
-7.879589923773203108e-03,-6.657083684877821393e-03,-9.795766887578542637e+00
1.886751775391028499e-04,2.019263924778475459e-03,-9.785523637010248521e+00
1.835126485348698372e-03,2.470996935862323661e-04,-9.786688916944763506e+00
-8.929852779214928968e-03,6.679569660044494539e-03,-9.789285648936225215e+00
8.954835887636623457e-03,5.001869706244369343e-03,-9.795977530759074625e+00
6.133303492452697216e-03,7.586736003634337797e-03,-9.790310967863389280e+00
-4.058160563402229276e-03,6.208188530849612433e-03,-9.795528624332137113e+00
5.790221378237667658e-03,-4.749259187591716065e-03,-9.792801140012576511e+00
-1.719924410534297374e-03,1.070841592165656594e-02,-9.789260989642098565e+00
3.044271045070456676e-04,-3.938482957144492230e-03,-9.790744648605546274e+00
-6.680373889173314705e-03,2.256338406848524148e-03,-9.801314078367594718e+00
-2.063061422203814159e-03,2.356130691179944992e-03,-9.787020706295447070e+00
2.244928725043401387e-03,3.828688022070743466e-03,-9.801404463072818984e+00
1.133979651662839704e-04,3.098514705763577917e-03,-9.793793605114853307e+00
-1.662693216826191577e-04,-8.588439987485690236e-03,-9.805886552367171660e+00
1.157400957292895180e-03,-5.155764981798152289e-04,-9.786956288465733067e+00
8.844169199276849828e-04,1.524925699511892746e-03,-9.791293633595692825e+00
-1.857674338880522516e-03,-7.986819625096071296e-03,-9.793281858578421151e+00
-8.651529199485140679e-04,-6.916083425082864694e-03,-9.796842578928783851e+00
1.459370842566075268e-03,1.271557954447669319e-03,-9.790231005237790995e+00
1.865302969096317405e-03,-7.415122961730121441e-03,-9.791601001421726735e+00
-3.402407044596053500e-03,1.488686208087060085e-03,-9.793899722083503789e+00
6.076258402002588516e-03,-6.405853424152051570e-03,-9.793092639969589897e+00
6.475173154854829347e-03,-2.054625392859130237e-04,-9.799852641724198676e+00
-5.575106490868895689e-03,8.993313807864930509e-03,-9.792609514273788562e+00
-2.482508456013402410e-03,5.538664666515294779e-03,-9.796422351297795927e+00
7.575246856193688753e-04,5.453243837940567607e-03,-9.788905695579520838e+00
5.080815731727684331e-04,-7.264489702606591673e-03,-9.798521698563998683e+00
-4.316303034189785184e-03,-2.797095490109273788e-03,-9.787551086246011778e+00
-9.753133909963416018e-03,-1.423078968203034386e-03,-9.792470965110737779e+00
-4.160231092012123960e-03,-7.323007066397443400e-03,-9.798546769888066166e+00
1.114918881010134536e-03,-8.431902057109373887e-04,-9.793214316749700998e+00
6.229004064824462429e-04,9.748031627218760320e-03,-9.791562838470756702e+00
-1.166657646774417641e-03,4.609563563292871230e-03,-9.795859471012382969e+00
-4.869869184159185058e-03,-6.617843396780428815e-03,-9.796830718870712218e+00
-1.951028952374680905e-05,9.920900068664877461e-03,-9.803145628285438562e+00
7.424637173718677888e-03,7.160272459020881712e-03,-9.797471892360540835e+00
-4.873631432626179469e-03,9.316640032380070144e-03,-9.784464144234977567e+00
-5.879591375643386172e-03,4.771673542326315513e-03,-9.801245831973036005e+00
3.407797625526328930e-04,-8.438533456600456895e-03,-9.796713444970372109e+00
4.940297377801870261e-03,-1.088686496908118119e-03,-9.796480492896986192e+00
1.494704539192864530e-04,8.199049225829915452e-03,-9.803305829222814793e+00
6.975567396720254096e-03,5.231819205773623367e-04,-9.786013176532408764e+00
-2.585295729310232039e-03,3.390228688540567782e-03,-9.796630855426192497e+00
-3.017343313039845369e-03,3.708747228861703112e-03,-9.798250366577910597e+00
-4.031149089020465842e-03,4.632903801786105238e-03,-9.795406625968334779e+00
-1.639239441198954558e-03,-1.818924801275514230e-03,-9.791678504242264935e+00
8.676694262810806524e-03,-6.032787557834066658e-03,-9.802534665782712153e+00
1.718506044478053038e-02,-1.347389492940644432e-02,-9.804098768184058343e+00
-6.720082123378442497e-03,6.264342623611679657e-03,-9.800612760487897646e+00
7.886185823902673933e-03,-5.965423819255192411e-03,-9.800326678937471669e+00
-5.238390745218430254e-03,9.479436728392187650e-03,-9.792710879033080573e+00
-1.423399263633484506e-03,6.962408598352637194e-03,-9.788934404433774716e+00
-5.939310358966535044e-03,7.650341692917216399e-03,-9.792754790791398989e+00
7.160442624280122757e-03,3.669780268329362726e-03,-9.784578882432766633e+00
-7.959864074812192771e-04,6.684516810830163150e-03,-9.793008661284787308e+00
-2.197199624916071955e-04,1.346451668489831877e-03,-9.801655256608704292e+00
-2.604162699432342482e-03,-4.497735285217868521e-03,-9.795519585992336076e+00
-1.221658576556425291e-02,-1.796619642820438539e-03,-9.804829021901184660e+00
-5.202920533663894960e-03,-7.058660411262773424e-03,-9.798805794031702376e+00
-2.024940316630108230e-03,3.670857915482705295e-03,-9.798171626977682180e+00
2.230345329550240292e-03,-2.749030109826555365e-03,-9.796779298429065364e+00
-1.916772487479338326e-04,-9.189349713126801836e-03,-9.788478233685566465e+00
4.926496923151638292e-03,2.157127799934106804e-03,-9.789416278025749207e+00
-1.896795635020699818e-03,1.914414094842072046e-03,-9.794883799124971091e+00
-2.630433841371362935e-03,-2.833243301985061569e-03,-9.793127955062146839e+00
-3.979423340243730053e-03,1.637818370468632420e-03,-9.799558057401368316e+00
4.733377538148958973e-03,-1.896337720322964146e-04,-9.799429980813204821e+00
1.982935407333222613e-03,8.436422476402452488e-05,-9.798108529426578173e+00
-3.450128289659615093e-03,3.331425222362649832e-03,-9.790514247088328403e+00
4.795672082805410921e-03,9.764956696186916259e-04,-9.786373112771961758e+00
2.363293989302643529e-03,-4.407548123182104122e-03,-9.796682533407278015e+00
-2.594694659054400283e-03,1.488037915142487178e-03,-9.799238419105119391e+00
-4.337513384983077841e-03,5.580079185950283759e-03,-9.786065852697067413e+00
8.464426702745025521e-04,2.499887750502676181e-03,-9.800601639567290135e+00
-8.862857594696987862e-03,3.203571812236370719e-03,-9.787996085225890042e+00
-3.084527715890082993e-03,2.703446027083626548e-03,-9.791322171793247264e+00
-1.153992335014783141e-02,1.627142124594079670e-03,-9.791476683811346504e+00
-1.324894204877228969e-03,1.673530511393664941e-03,-9.792336107369889575e+00
-1.435736420747371362e-03,-3.229916539786807910e-03,-9.788894060764144811e+00
-3.263954939557740104e-03,5.143250556770740875e-03,-9.794154624842427381e+00
-4.411126230800963000e-03,4.972728088050487952e-03,-9.792473743714213086e+00
1.343020759320350324e-02,-3.852097862282688684e-04,-9.795366420247093586e+00
1.727911314282315394e-03,-2.748872075296465971e-04,-9.790544706704350730e+00
1.034378536932404648e-02,1.186876828627475349e-03,-9.793143907834306106e+00
-4.556066816193139225e-03,-3.831510162919535495e-04,-9.790060903614319798e+00
1.418276936772859369e-03,-1.686970810299161412e-03,-9.794121797687241227e+00
-4.994577143220661503e-04,-3.680927829544326096e-03,-9.793716263455998217e+00
-2.275638299162488585e-03,-1.250083251758619517e-03,-9.794825269634399589e+00
4.890466399865422455e-03,2.586922657781699948e-03,-9.796244540742854667e+00
-3.415122758408686583e-03,1.585592863229525872e-03,-9.793280095941225838e+00
-3.545477654562603775e-03,1.255019267097721991e-02,-9.780117814328736614e+00
-7.689500990102104191e-04,3.050314058481985030e-03,-9.797034655035817607e+00
-1.161508947120758889e-04,7.952045494948900908e-03,-9.800079937002005082e+00
2.053607371587020097e-03,-7.683631331205796090e-03,-9.792549793955583226e+00
2.279367431031267127e-03,-1.432450968760715570e-03,-9.788106605515862313e+00
5.880137544368728604e-03,9.597965702339386271e-03,-9.789607704580513214e+00
3.428430304599307255e-03,-1.927090627731697578e-03,-9.796498035844924956e+00
-3.719591443285316830e-03,5.444413717920526356e-03,-9.799486353736661215e+00
-2.530300663703862786e-03,-8.462855273551159185e-03,-9.794048355779761295e+00
-1.551765372696712122e-03,6.107475915471072443e-03,-9.790019959911976599e+00
5.972821156213912151e-03,-2.243686116480917304e-03,-9.793172746733295853e+00
4.710805824675385473e-03,2.183997642956100708e-03,-9.788755502186109680e+00
-1.993496441336734069e-03,1.274351487564893363e-03,-9.795047602469763248e+00
1.022124482219690343e-02,4.671108486324699466e-03,-9.806634835597337840e+00
-1.198096875556578034e-03,-2.926317860069195878e-03,-9.793407652977565547e+00
5.780278619488200126e-03,-1.077504346448559906e-02,-9.788443909521756581e+00
-1.975704390040642147e-03,2.676108507346230958e-03,-9.795846842817336864e+00
2.055577643273211012e-03,3.891832177188592375e-03,-9.794349566568094190e+00
8.394627037492038979e-03,-2.979976460159834781e-04,-9.795060069764218724e+00
-1.575290719749106172e-02,7.692741159981086006e-03,-9.795517660570135732e+00
7.670311892120866733e-03,-3.128434452805070598e-03,-9.796142209108547050e+00
4.597664842449980874e-03,9.276409532614779754e-03,-9.794391517806673164e+00
2.422082435525733414e-03,7.060334815718331998e-04,-9.793815421953452116e+00
1.335256972751240612e-03,2.428276340276841038e-03,-9.784582331029152868e+00
-8.937582177674684766e-05,-8.223273432574033578e-03,-9.791622659096258730e+00
-5.220186575564513508e-03,-7.980249815136758245e-04,-9.797858283228098486e+00
3.136006145362130529e-03,-3.371476935675229124e-03,-9.788185849231515689e+00
1.287185117926706963e-03,-1.861649277148013900e-03,-9.794190811472969216e+00
-4.855825429324599771e-04,-8.138777711560365568e-04,-9.792445912085176118e+00
3.176796242917234898e-03,1.031371982911959834e-02,-9.783300296483320224e+00
-1.038694334567519424e-02,-3.021065300938993422e-04,-9.788414015944141511e+00
4.059465959502924978e-03,2.564850569615162359e-03,-9.807448238005429531e+00
-1.625539561849234302e-03,-3.633830487923083016e-04,-9.795411795480932327e+00
-5.035267232763896436e-04,5.982078820442024263e-03,-9.796985241904987873e+00
2.227074783049341842e-03,-1.087947323250955433e-03,-9.790290752580167677e+00
1.355654469761424612e-02,9.281686621337673516e-04,-9.802708198021743868e+00
3.027372855037531191e-03,2.077220908998073491e-04,-9.795116362740941440e+00
7.416754318240240812e-03,-1.241468866783950733e-03,-9.797685450294455478e+00
-2.056791373234406577e-03,-2.881378911596475800e-03,-9.783182427340797460e+00
-1.122920599655957176e-02,5.825490427767784744e-03,-9.795619803593432096e+00
9.425516989675526962e-04,-4.667604457839725010e-03,-9.798177811375607504e+00
2.049947914701983741e-03,2.436433425546799189e-03,-9.801814088805565817e+00
-2.108964088511078305e-06,-9.150808772758263487e-03,-9.796584030519571940e+00
-8.406954156239250606e-04,2.556837571658298561e-03,-9.790921821322156049e+00
-4.771286971759923848e-03,1.386036860863417396e-02,-9.794970968179038451e+00
-3.903632662437764994e-03,1.457663634734945044e-03,-9.791888585376790743e+00
6.510516646023229749e-03,1.078037491184345720e-02,-9.792038294513867314e+00
-1.371258399691905640e-03,7.442259293450046494e-04,-9.801666343783582036e+00
-6.924489447434461695e-03,-7.151301809917117629e-04,-9.803367140460657936e+00
-3.172563507493023505e-03,3.563684368219953349e-03,-9.795211423644799353e+00
-2.543402524542734498e-05,1.743416923655373126e-03,-9.792904421148467264e+00
6.546896457801959501e-03,9.948836713083348410e-03,-9.795791399301384317e+00
2.365318192840336516e-03,4.846666122990025407e-04,-9.789384691261906468e+00
-2.390032191500260361e-03,-2.599314639171232790e-04,-9.801113954163373165e+00
5.784713916427190565e-03,-3.450432044059329774e-03,-9.794209028121686700e+00
-2.535032525322913205e-03,8.362960033146628249e-04,-9.787083727273980571e+00
5.791064525204804407e-03,1.616723965094657434e-03,-9.801700445108876281e+00
-3.437065106676093305e-03,-4.592715215470656543e-04,-9.799971236351380455e+00
-4.653680341638350738e-03,6.571458492958583315e-03,-9.796008798172286092e+00
-5.192470169562248168e-03,8.772400589218486795e-05,-9.802735417452552724e+00
-3.882701997654133038e-03,2.168159454727767825e-03,-9.797857709678785554e+00
-1.539298912251747375e-03,1.246580246943649467e-02,-9.806779983002140710e+00
6.777790036365940324e-03,6.805830152416078582e-03,-9.785208230745020330e+00
4.024705262008437465e-03,-2.726559699976423322e-04,-9.793211239974922933e+00
4.724345765855458932e-05,6.778835302511305484e-04,-9.794489393424383294e+00
6.794969777703141998e-03,6.183904008738892906e-03,-9.793975205688855823e+00
6.826991428573350555e-03,-6.300435268018760027e-03,-9.788825943419242392e+00
1.166922064888948306e-03,-1.397963355534132413e-03,-9.787109372727510248e+00
-3.849293821877946935e-03,-1.202484297834499789e-02,-9.799644719313736374e+00
1.845562704321468406e-02,1.031044577603129619e-02,-9.802551131411506802e+00
5.591642691410890964e-04,-5.409428701813696547e-03,-9.790830460077716069e+00
4.340952512549810238e-03,2.286232627782497015e-03,-9.800898665154688771e+00
4.668077045329854097e-04,-7.087504921754724310e-03,-9.790452692627480857e+00
7.754049613380375409e-04,-1.042422740884713442e-02,-9.796494155010387672e+00
7.919371454595809483e-04,-5.731148884598384272e-03,-9.800917643366435783e+00
-7.023802515495856935e-03,-4.140109921834252485e-03,-9.796072378549105508e+00
5.336207888878425655e-03,5.414552354155688710e-03,-9.786660141937620239e+00
-4.691285794052114759e-03,-5.858956220712453755e-03,-9.794094120674124326e+00
-5.919367033505894271e-03,-1.861412752220442841e-04,-9.791077275112723299e+00
7.589841087661015548e-03,-1.324569846392728957e-03,-9.784318176259652944e+00
7.066854927452158493e-03,-2.550438865178935796e-03,-9.789969224179667862e+00
9.761086036911817334e-04,3.122228065250007767e-04,-9.793056222043055925e+00
2.572904519002561187e-04,5.163191253446387276e-03,-9.792128830339565937e+00
-5.822465892260544722e-03,-2.509011225483197445e-03,-9.794562396065263243e+00
3.051662831626571985e-03,-2.235882672081731647e-03,-9.797749251664614079e+00
6.284247368069649162e-03,2.192363659252920174e-03,-9.790445028383501835e+00
3.091481466897618748e-03,6.119164655445308992e-03,-9.788243536611808793e+00
8.094562815256545240e-04,-6.205670632382350414e-03,-9.792642414553878183e+00
4.473761234772854513e-03,-4.110980475417891876e-03,-9.800008371813438757e+00
9.759130341934872319e-03,2.522632954075565426e-03,-9.799375493382424196e+00
-1.092975905731871601e-03,4.327850063239927457e-04,-9.796273721821592062e+00
2.509440730635385895e-03,-6.771805654307655464e-03,-9.799466773024770205e+00
-5.305725202979774333e-03,6.620784942983317517e-03,-9.797228155832888419e+00
-6.448993325607542751e-03,2.666277779432356214e-04,-9.796869863352696939e+00
-3.825771519785021394e-03,-3.241908405483814870e-03,-9.794557574260227995e+00
-6.812488510188682324e-03,1.998367638538364678e-04,-9.793900658313859253e+00
7.057162685116969304e-04,6.545939102058710192e-03,-9.793726383946939507e+00
2.487166720061129502e-03,9.467792336580120160e-04,-9.793305675416577927e+00
5.237473913587254760e-03,2.387368107808125663e-03,-9.793972077215236993e+00
4.243890165539418273e-03,6.870407516560281778e-03,-9.796019230222341889e+00
-3.180760572057534947e-03,-1.999493960396842972e-03,-9.798076429673974630e+00
-3.030313183265579118e-03,6.752927484532612531e-03,-9.788497506069219867e+00
8.033674170346451334e-04,-1.466197414198242791e-03,-9.796794596053130633e+00
1.775884443339636846e-03,-3.760220610022829008e-03,-9.798005114908349356e+00
1.781655085339955633e-03,6.283732923633015329e-04,-9.789867007538072485e+00
-1.079267049045679917e-03,-5.990412630475911576e-03,-9.798950108793087921e+00
-9.957773922255155116e-04,2.005827857495315596e-03,-9.788312837962090285e+00
3.145334118638601177e-03,9.687788390368258029e-04,-9.786878935319768047e+00
-4.763732074118295391e-03,3.736870298200474939e-03,-9.790187671102781763e+00
7.823327290637080086e-03,7.760754264789546109e-03,-9.788474934653542903e+00
4.912143297230029543e-03,2.145476518552271762e-03,-9.791508677066619981e+00
-8.941820913696660496e-05,1.180095390336051387e-03,-9.791534870524602141e+00
-8.324328701320838839e-03,1.081141845987962716e-03,-9.796710809140249054e+00
6.738374662376860925e-03,6.830589635400524922e-04,-9.789526646142917343e+00
-4.368564723282587596e-04,1.673317166348043099e-03,-9.789102864593679953e+00
2.803727964793122779e-03,2.760651223301297842e-03,-9.795690278257360717e+00
-8.987961331866028622e-03,1.034963017205257560e-02,-9.792102468569060747e+00
3.934369471518804097e-03,4.737517352184853446e-03,-9.793071662947806288e+00
-2.894133404903485862e-03,-9.439052909581198848e-04,-9.795637091860438517e+00
-1.000866704503958551e-02,-5.041121535937417679e-03,-9.801254918320157827e+00
1.470417329607715158e-03,1.052814956352397888e-03,-9.794803506161171569e+00
-2.465454918346721321e-03,2.440002078520756880e-03,-9.791618845205348975e+00
-3.802474987658975136e-04,-7.759402812119177775e-03,-9.789220703680660662e+00
3.693780703319266565e-04,-4.267182626688924285e-03,-9.790782682103868595e+00
8.124260010585998126e-04,9.781899933790311284e-04,-9.791419132294725713e+00
3.841679090156487932e-03,5.422144937026584632e-05,-9.798586531218033358e+00
8.256255680642681644e-03,-1.378763256248276151e-03,-9.797309413986774018e+00
-2.794000185232385896e-03,-5.532660073608730231e-03,-9.796026529822974283e+00
8.219285996703502503e-03,4.282298927863221506e-03,-9.788598784476716830e+00
-8.394921425712386850e-03,7.538997149878911772e-03,-9.789114366521971533e+00
-9.231124013076260400e-04,-2.311932671716760389e-04,-9.796956408737912625e+00
3.412547564218621626e-03,1.094945203164899346e-03,-9.801453199266656924e+00
-2.581229740646781307e-03,5.152889305665197921e-03,-9.792112583117940972e+00
6.094563062183489151e-03,4.603015947921538370e-03,-9.800613432047624585e+00
-4.149621639453424278e-03,-5.248154176309562970e-03,-9.792040436188139907e+00
-3.662758963859949653e-03,-8.851408456679478801e-03,-9.787322254644816866e+00
-2.121838485493681304e-03,-5.335169509931935068e-03,-9.795106464514006461e+00
-3.210586106122234780e-03,-3.101267955155090220e-04,-9.798365060578312580e+00
-2.187519254964326310e-04,-8.626410712753910083e-04,-9.794310752087266536e+00
8.441808431351633529e-03,-1.842007329990032367e-03,-9.791889164462878270e+00
2.186801675252785914e-03,6.686794208642233943e-04,-9.803364249591679069e+00
-8.590194466460955580e-03,1.591732795507593175e-03,-9.791354545790614594e+00
8.670783736307989889e-03,-4.358997154488480040e-03,-9.788305376677095992e+00
1.614809482531492663e-03,6.240390861395887952e-03,-9.785737286082245134e+00
-2.487187193953002175e-03,-2.567722245203063729e-03,-9.797161208192582293e+00
7.078312104956706319e-03,-1.290208972752435179e-03,-9.799345268772240658e+00
7.309226266322649962e-03,-5.152864943258906802e-03,-9.796786390023862978e+00
7.471647413092117468e-03,-6.426039091933202080e-03,-9.797215092697499017e+00
-4.115162160406951944e-03,-3.489103864445778757e-03,-9.788730904542093825e+00
-3.300229070782102845e-03,4.682815357004463212e-03,-9.792833342370030891e+00
-7.058542764214525110e-03,9.887612407707276844e-04,-9.794005117962532481e+00
1.721221778058498048e-03,-5.504475811402309050e-04,-9.789822148489800924e+00
3.557274972562385904e-05,1.195530103647698050e-03,-9.792736897147676700e+00
6.935250898809611382e-03,7.088013172421438017e-05,-9.795699356353656739e+00
4.691987165705208129e-03,7.975097921654290215e-04,-9.804967035557718091e+00
-3.950402643101944521e-03,-3.205359418062841362e-03,-9.797313784065284636e+00
5.075253234855497952e-03,7.604426957456215507e-04,-9.794840208780152935e+00
1.062766344287149715e-02,1.621127681324530632e-03,-9.796635643757085177e+00
6.457470495932651593e-03,-6.492117414315029707e-03,-9.794268496666608925e+00
8.296348390123152363e-04,6.018270283893586634e-03,-9.792859341104797721e+00
-3.698845962610499208e-03,1.975949280696512756e-03,-9.806571890255916912e+00
6.414786286014899711e-03,1.014854604833369082e-03,-9.796331378554452129e+00
9.410596370859917667e-03,1.010348321174299284e-05,-9.791251331300275140e+00
-1.006957432950374327e-02,-2.564104125535764719e-03,-9.794298213241789952e+00
4.878353479643424140e-03,-3.242115616314796781e-03,-9.798472576910294052e+00
-5.532719065315574308e-03,1.120540896686884197e-02,-9.797890653319262455e+00
-3.209213407310728804e-03,1.783273144089084130e-03,-9.792767085278487826e+00
1.246310540673050728e-02,-1.786918881142521114e-03,-9.781456814888038309e+00
3.449985879249127963e-03,-8.156570413495538296e-03,-9.791730749647831189e+00
-2.736437842793027625e-03,-6.657093597195140773e-03,-9.793451170212497559e+00
-6.020639180779410911e-03,2.980653574365881454e-03,-9.799518577352760218e+00
2.927505520020525290e-03,-5.284748487523010380e-03,-9.793605724843304827e+00
-1.993362942266298232e-03,1.966830739074549965e-03,-9.790506019290319273e+00
-3.775782477280472619e-03,-1.336352890505466962e-03,-9.802767020839640466e+00
1.841088417867419325e-03,5.919717327974293461e-04,-9.792244327933008918e+00
4.862412805193536830e-03,-1.715293956148878935e-03,-9.796708726694934199e+00
2.414362709673820336e-03,6.400178983283931131e-03,-9.790795866772086242e+00
5.597954086096196616e-03,-1.332007221298934325e-03,-9.801586135893959550e+00
5.367835782616946563e-03,4.242220990087885481e-03,-9.794359175538565054e+00
9.196776948753352613e-04,8.446854150391457051e-04,-9.793690904512452278e+00
-5.556920585318333430e-04,-8.630169831765469902e-04,-9.792034374432237342e+00
-2.728603430558446553e-03,1.784230035944744290e-03,-9.792913506125252354e+00
-2.244314933674632691e-03,-2.153479441488297553e-03,-9.799358643360410070e+00
8.055139431370665973e-03,-2.514348419873270067e-04,-9.798588175680823298e+00
-9.024332188800489709e-04,-2.542487396484605956e-03,-9.792310001924766638e+00
1.282516524317095855e-02,2.174182343614892380e-03,-9.797337415257905135e+00
-9.889485817649523117e-05,1.738909612020226019e-03,-9.787294876585972858e+00
1.760825634479251407e-03,1.584081929070011666e-03,-9.792240939169476022e+00
-3.338907970478556574e-04,-2.068741866752318165e-03,-9.798676709172221777e+00
-7.607032218151519101e-03,-3.626637832862053025e-03,-9.794527752803096732e+00
-5.108830116491159786e-04,-2.096141819018564273e-04,-9.794969621666425041e+00
-6.235584259912443743e-03,-2.784471833778707486e-04,-9.795668974109069893e+00
-4.264814425782262330e-03,3.328261634281678288e-03,-9.793505629087912112e+00
5.784679810162158750e-03,-8.247870394868023940e-04,-9.796517534296237173e+00
4.723176100035338457e-03,-2.120950072143537157e-03,-9.796098927537592260e+00
4.524874117378993588e-03,-9.591780395723342387e-03,-9.789590049323789955e+00
5.607644203051848075e-03,5.155096928071972208e-03,-9.797927871824114732e+00
1.821977098921952567e-04,4.246977460744595667e-04,-9.804574472749688852e+00
-5.519146626418275055e-04,1.831532618386376692e-03,-9.791259801935984441e+00
9.053077463134506092e-03,-4.406013159856483376e-04,-9.787015931790099543e+00
-1.605914659226312380e-03,-1.220728285305640575e-03,-9.796524917213835337e+00
4.606251176851537329e-03,1.443456667619072084e-03,-9.785148937141340042e+00
4.218211367105342141e-03,-1.696850367074034110e-03,-9.799822239370039156e+00
4.549701600934378393e-03,3.530352702867618764e-03,-9.805116479443999111e+00
-2.377460627578879132e-03,3.696245194656986839e-04,-9.801163059122572463e+00
-2.184372990486990566e-03,-1.015352967032332647e-03,-9.790567381812792291e+00
-9.652872058861178359e-04,2.052828230886346098e-03,-9.794491122915170322e+00
8.799564729993436529e-03,9.229139507140616747e-03,-9.792845682222333537e+00
-9.049805696581307568e-03,-2.233842302355004521e-03,-9.787590334359778765e+00
6.382125709770878133e-03,4.555265822212251590e-03,-9.787275652178392349e+00
-5.615125920225723204e-03,2.840434994978903709e-03,-9.794330674442933926e+00
5.269672782218104293e-04,2.644913748654682123e-03,-9.800817635405110195e+00
-7.384428462309756622e-03,-6.335394909740435596e-04,-9.787581209180757469e+00
1.220771589946752743e-03,3.892915882409098745e-03,-9.793209555005176981e+00
-8.685163514434926166e-03,5.744507078757414044e-03,-9.793460059227520276e+00
5.591053227623598264e-03,-3.480027670351728240e-03,-9.801517561418851443e+00
7.304027883644362805e-03,2.026484119400942963e-03,-9.790741555703542431e+00
-3.119586677532037999e-03,-2.777957771606877520e-04,-9.788427207693715104e+00
-4.848884988235810378e-03,-4.570485672835676930e-03,-9.786138217479543044e+00
1.241658595008588405e-02,7.011243436295956297e-03,-9.796072314904950673e+00
-9.997627570010058501e-03,-5.153232792802541276e-03,-9.796580054354883771e+00
-2.866154666982568232e-03,-1.183745220320540610e-04,-9.795346798011303591e+00
2.154220309692375570e-03,-3.568567677492867282e-03,-9.798097328598961653e+00
3.200434904975854719e-04,-2.084597867566578572e-03,-9.800206906165195520e+00
7.545431903082140332e-03,-2.089508342147223217e-03,-9.796803302010282266e+00
1.334086993856521556e-03,1.030889546761161197e-03,-9.796293197100444772e+00
-1.018910761583504548e-02,-5.042937919201356464e-03,-9.803180675253402754e+00
8.180513934505970587e-04,1.184040810372445282e-03,-9.787142867455486339e+00
-1.932506467534343339e-03,-6.290187426136056165e-03,-9.792107139550694228e+00
1.447236378628254799e-03,-3.102485736577003696e-03,-9.791000177822041906e+00
-6.863408530861639031e-03,-2.731378262977964076e-03,-9.797740286176415125e+00
-5.631714208188041797e-03,-1.288146240107789116e-05,-9.787890644116282957e+00
-2.679346920486420577e-03,-5.072311882939551687e-03,-9.797567806235717214e+00
-2.555809836674537844e-03,-8.278509926223297580e-03,-9.791400535759493096e+00
-3.847411528725308560e-03,1.794412725717039418e-05,-9.797694254958168258e+00
-4.502005379534434158e-03,-3.210603379724348127e-03,-9.800063297638290649e+00
-1.095600524826797432e-05,1.115077662038252426e-02,-9.797839197634036879e+00
-1.891225160507612694e-03,5.970029086774069661e-03,-9.797303361466902061e+00
-7.194977651354409398e-04,-2.037522385734087844e-03,-9.794721321828586014e+00
3.960188204930928033e-03,8.018969374273118497e-03,-9.787127366340719448e+00
2.751435929972126208e-03,7.929092861989107260e-03,-9.797935855410953465e+00
1.200736594217134473e-03,-7.375764799162452291e-03,-9.795573494098041678e+00
3.207663323276508782e-03,-1.651624901044816424e-03,-9.794003505732790771e+00
4.379310269015177295e-03,4.478413464962648777e-03,-9.791677884606576399e+00
-4.925645996814145746e-04,2.902791769094410388e-04,-9.788600779637750549e+00
4.576265443182279437e-03,4.858959581810065771e-03,-9.793193446921904410e+00
1.154455324116558657e-03,-5.104803678803496690e-04,-9.787302231669698926e+00
-4.057913569190888664e-03,-2.537482319224836427e-03,-9.792123852814050622e+00
-4.304132522514359264e-04,-3.165659346862847827e-03,-9.790048787357479299e+00
8.205848848631984091e-03,6.226075915885265384e-03,-9.797010434949573465e+00
5.036283372753197138e-03,-3.116450660780849518e-03,-9.793693552563945914e+00
-1.708214311258618705e-03,8.494082053882372977e-04,-9.791069767539477553e+00
-1.186889984906324899e-03,1.074508318469632670e-03,-9.793825610184530461e+00
-9.813828820446105720e-05,-7.225531041862397544e-03,-9.793483821983203441e+00
3.956821754324163151e-03,1.424033705142693264e-03,-9.793422847188349323e+00
4.936573392093808466e-03,1.569264483927343412e-05,-9.798842894698521988e+00
2.767024790833053430e-03,2.316894185439346068e-03,-9.795388956350556953e+00
3.848048127640989104e-03,4.679318460135272893e-04,-9.799810176126641181e+00
1.831528103543446731e-04,9.475129440305421783e-04,-9.797418771548116467e+00
-9.377393053176658749e-03,4.164216640379045896e-03,-9.797653173647871583e+00
3.532152694979506444e-03,-1.040683336605958530e-03,-9.791442005454154440e+00
-7.133615899276980407e-03,-7.121323238991764462e-04,-9.791248705639034711e+00
2.053173357821863436e-03,-4.895807094978174914e-03,-9.788100537088471498e+00
-2.343775191458339398e-03,-1.552972358757122437e-03,-9.793544732517570850e+00
-2.751302171876393934e-03,5.752039768839860290e-03,-9.792283803119875785e+00
-2.110688455310793295e-03,-1.712068599373848914e-03,-9.800043216938366442e+00
1.186200756871534298e-04,3.618180181490853516e-03,-9.799065545845772718e+00
3.567795387150542435e-03,6.051716166452119402e-04,-9.790157199286189993e+00
1.307997115850837756e-02,5.633529557383515178e-03,-9.796236297583439168e+00
4.685660692107191348e-03,-2.499539452616958077e-03,-9.800135626173506864e+00
-7.545405844529059353e-04,3.306411056504607836e-03,-9.796314974838912448e+00
3.812918902869836396e-03,-7.440174435083279220e-03,-9.803380227457164864e+00
7.560764443430431029e-04,4.639974501693058459e-03,-9.803011737385686430e+00
3.969720951480210092e-03,-1.109245020693040620e-03,-9.797734933216498021e+00
-6.959581311053835741e-03,-4.903023402567477894e-03,-9.797293298232711223e+00
3.143900816286967527e-03,3.124379687344311287e-03,-9.791274092693843301e+00
-8.429824054976994135e-03,1.985930294468240057e-03,-9.802439739108180561e+00
-1.465771484004552410e-03,8.154677132545253785e-04,-9.795148787019806846e+00
5.493933834626285942e-03,2.514496734497934875e-04,-9.788363091727612542e+00
4.562099836245396296e-04,-5.876380248965870981e-03,-9.789263544179751975e+00
-6.430248792251639679e-03,7.664899175908117257e-03,-9.796739084176794066e+00
-3.341094188317749163e-03,-8.342861693744769557e-04,-9.787491078862654348e+00
2.270160662774168246e-03,1.576421576918808241e-03,-9.799125991312086725e+00
2.551836290395632489e-04,-5.700972410442377465e-03,-9.794341881466488431e+00
1.776699920669665578e-03,-4.420579511115885728e-03,-9.800886964575132865e+00
-3.025869635202261924e-03,1.128212964374091139e-02,-9.799647851123101105e+00
3.679619663323324512e-03,-6.037302524828773789e-03,-9.793819554705869734e+00
-6.308404515507100426e-04,-3.032847891554231456e-03,-9.801335066093969317e+00
5.354134676263825297e-03,1.393239597144787937e-03,-9.790623680298661924e+00
1.765682968698543010e-03,2.730289458172708433e-03,-9.798324101409233933e+00
6.583036495132468455e-04,-3.903151101970458656e-03,-9.796352825773405826e+00
-2.055193871891070490e-03,2.198666015690042743e-03,-9.788946880349760349e+00
-1.021245085922664868e-03,-4.031643078982457412e-03,-9.800156462065379159e+00
4.144816455561083600e-03,-2.879470396541575477e-03,-9.791941158988400673e+00
2.069650156584225322e-03,5.515364582764866776e-03,-9.792413480841670292e+00
3.684282025975559038e-03,-3.136327415545975186e-03,-9.791862459415721531e+00
5.542764969351897733e-03,8.818434497487766255e-04,-9.793260634340025916e+00
5.459268881551014238e-03,3.266637622581828292e-06,-9.793813118940686735e+00
1.755824065822814660e-03,5.180113783500779959e-03,-9.795428298249097665e+00
3.043454368484722027e-03,1.160833469055937324e-03,-9.790857952469012915e+00
5.289292432742202441e-03,-2.270727925443366199e-03,-9.791232428763416706e+00
-8.023826981494850200e-03,9.181540842335908243e-04,-9.803189493422982181e+00
-4.233435144445429161e-04,-5.612920264852798088e-05,-9.793175576077329580e+00
-1.277821791798851130e-02,6.902189569110421963e-04,-9.784843093648188272e+00
-1.050039025228793194e-02,2.637029442193905560e-03,-9.782664434091973504e+00
-2.670316929958144181e-03,-8.797220622833638523e-03,-9.794514420449036862e+00
1.316586491418420077e-03,-4.986289582890230526e-03,-9.796566278198440614e+00
2.093376748236114651e-03,1.651384694681233643e-03,-9.793385410107998013e+00
8.711975864736584696e-03,-1.776977891790479901e-03,-9.795679308674415608e+00
1.008014774728084855e-03,1.859184930243336625e-03,-9.793755833243430686e+00
-2.503985437082543140e-03,-4.082958603004571002e-03,-9.791552751233332685e+00
-2.517344038398097554e-03,6.939334653653659972e-03,-9.798589283342684197e+00
4.690336760491264391e-03,-6.967650652002957412e-03,-9.793421881774058591e+00
-6.587309496116609993e-03,3.086849042606672547e-03,-9.793729781464703521e+00
1.464972053907164472e-03,-3.554596103399135319e-03,-9.795512575909921082e+00
-3.560080666793120907e-03,-1.018903117751761636e-02,-9.793845325577372307e+00
-6.278826229241776975e-03,7.354857698115328801e-03,-9.787297258512353437e+00
-2.985256265229571746e-03,-3.662424470337289142e-03,-9.796229514013768735e+00
6.589585451963376897e-04,2.349969060858992688e-03,-9.786673711866949787e+00
-4.842111136292354644e-03,-6.327850962239723112e-03,-9.798068269761113669e+00
3.341411032837968316e-03,-7.630424615990056940e-03,-9.800639145518898587e+00
5.290372373748341954e-03,-8.944551205531557289e-03,-9.794101079209227123e+00
2.413864245483596932e-03,7.829139240442489420e-03,-9.788924908647182122e+00
2.669488744850726913e-03,1.448450760089563770e-03,-9.797530912977316930e+00
5.106980885898546908e-03,7.402445678801935353e-03,-9.791388222873798952e+00
-2.884749567504669380e-03,-3.474795194555996888e-03,-9.802864838093563904e+00
4.734351929181415328e-03,-1.022111072727662634e-02,-9.799123820805101914e+00
7.118619515046590088e-03,6.521491693724213411e-03,-9.797750852495235918e+00
2.142018224217077504e-03,6.051181701636619559e-03,-9.784702613597740850e+00
-1.034728682039685746e-03,7.845533277001076611e-03,-9.789303914288753461e+00
1.996983650073401277e-03,6.024236014406191171e-03,-9.791803065812018758e+00
1.066184853290269921e-02,-2.728799041781314154e-04,-9.796128675959730359e+00
-5.324553482534045805e-03,6.676099719826858285e-03,-9.792162695657802729e+00
-1.371564426696623160e-03,-7.563873136432029340e-03,-9.800486042776345386e+00
-7.612984699051123134e-03,4.387259357207020163e-03,-9.794756477316937548e+00
1.255927710843294902e-02,-2.367896456996173085e-04,-9.804266807823289298e+00
4.556448629208369487e-05,4.322593603450692636e-03,-9.795986440636387016e+00
7.948482103573258680e-04,2.966089435615947706e-03,-9.790534725433202468e+00
1.129910772908207343e-02,-8.877966602734047941e-04,-9.784379610363718172e+00
1.261698812469678153e-02,-6.490700274316929703e-03,-9.790588930142112289e+00
-5.497863967391528398e-03,6.250781336091198667e-03,-9.799310390813337435e+00
7.668338474975290239e-03,-7.471040416930136221e-03,-9.792586341751714940e+00
-3.404208045025353818e-03,-5.046484377636023533e-03,-9.801343971055580084e+00
8.773859235118799602e-03,-5.717082385219457094e-03,-9.796332747891211667e+00
7.023260493642007399e-03,1.927851227908973009e-04,-9.796841523859789902e+00
8.724703326012540200e-04,-4.655188677729476046e-03,-9.785608478147320710e+00
-7.492645883932488654e-04,5.929561929438770598e-03,-9.800534466939543776e+00
1.695217167338429302e-03,-3.782674982103118207e-03,-9.794208648581554044e+00
-6.348390573907738803e-04,8.557486004848559921e-04,-9.787143623173649942e+00
1.049667006248864495e-03,2.618192331669915145e-05,-9.791357755807030827e+00
1.148560129052488520e-02,6.218129268108378571e-03,-9.792253826351556611e+00
3.261671434926788002e-03,-2.006178763344791411e-03,-9.795226585296864741e+00
2.283096668905283677e-03,-5.344284970558317235e-03,-9.785438389402745685e+00
6.912183436368663988e-03,5.055504041208285643e-03,-9.788327891959790250e+00
-4.484026527592646118e-03,1.410276942388785301e-03,-9.787150014499664152e+00
3.658963704198398698e-03,-1.303790085716915754e-03,-9.787590922056031317e+00
-2.066470993470754820e-03,8.033652283532335264e-03,-9.785005067494026321e+00
-2.890092027974223987e-03,1.697105951494230595e-03,-9.799579311114747782e+00
-1.213386540481048263e-03,-8.384116019386979486e-04,-9.791036511321026481e+00
9.611165296035952335e-03,-2.898586158478573017e-03,-9.800356820307333905e+00
5.086149885953340083e-03,5.833325558962440018e-03,-9.796689259290888074e+00
3.213771446833968946e-03,-4.495357321008548908e-03,-9.793668430355673138e+00
-3.544978664608599769e-03,-1.573719061121055598e-03,-9.792602108362386204e+00
-1.129322225873136912e-03,2.517978473544668465e-03,-9.798245923695557025e+00
-1.001285972204459147e-02,4.340844998026126972e-03,-9.793633004010292353e+00
1.961427932705628839e-03,3.103949519927599182e-03,-9.791195575637894777e+00
-7.363570857575897285e-03,7.941727252612322541e-03,-9.794263463138820569e+00
-3.405267591279462474e-03,3.893146613392063811e-03,-9.799206053590799215e+00
-8.398822121638336788e-03,-1.940858283773003092e-03,-9.786993268982961069e+00
-1.176742841151853444e-02,9.577663753701760006e-04,-9.799011437762207066e+00
3.646817479183170688e-04,-4.510292872645819268e-03,-9.794395615509786879e+00
-4.969935086923930705e-03,4.311242475180483355e-04,-9.797522922210646357e+00
-9.056283667409559951e-03,2.452057985580346176e-03,-9.796001545155665013e+00
-3.930276619119328196e-04,-5.415519822478719394e-03,-9.799808243484072534e+00
5.811982931785673184e-03,1.988017815597026131e-04,-9.791192347167507748e+00
-1.194596325899692241e-03,6.352615871175170889e-03,-9.793953774568278092e+00
-2.797203960898487357e-03,-4.663161027022469200e-03,-9.793406313022968490e+00
1.015257536265466807e-03,-8.055842379720682539e-03,-9.796691021819782463e+00
8.571256548402728798e-03,-3.339330843735412863e-03,-9.800447109881952557e+00
-2.925379123092917456e-03,2.135046548399903866e-03,-9.791468496820732170e+00
-1.073398425362364619e-03,-6.421750596593178012e-03,-9.794582620350057667e+00
-2.102703825701409193e-03,5.525025836792037820e-04,-9.795809813478873807e+00
-3.810424146738086932e-04,7.089370508314963258e-03,-9.789920982289681106e+00
3.802265177275169789e-03,-1.689362964801723998e-03,-9.796483074047744211e+00
-1.749799117756576424e-03,1.044030750134898686e-04,-9.798766540581020479e+00
6.514063539583592709e-03,-5.132774696638796666e-03,-9.789470144124784667e+00
8.878349150606279841e-03,1.078285111039709553e-03,-9.791480120122702857e+00
6.171948875953172861e-03,7.444894949740651219e-03,-9.789347124689216528e+00
-1.515066145330942835e-03,-8.201389735864386688e-04,-9.801735323572728475e+00
-2.535756371915484208e-03,-2.271234572238821879e-03,-9.789835790936303184e+00
6.662159017266745288e-03,-3.705392852943838015e-03,-9.794781403008165910e+00
-4.962876900423835065e-03,1.294709033316744553e-04,-9.793974284310953848e+00
3.780560039202076131e-03,-1.118136779028044633e-02,-9.788005408442657540e+00
7.741605023421292177e-03,-5.737005874554592690e-03,-9.798382139493678977e+00
1.646644651764218393e-03,2.215773454965677854e-03,-9.802086054187935105e+00
7.656024582769906106e-03,4.741710982486367762e-05,-9.792687721698749570e+00
6.697355892807465433e-03,2.851005399568662651e-03,-9.789995076654159689e+00
-3.502759392913644583e-03,-1.077225303182249719e-04,-9.800075313116289877e+00
4.369301892979484542e-03,-8.003818023177756589e-04,-9.803776340839327474e+00
-3.416846631912627552e-03,3.458848465297544028e-03,-9.791425488640333796e+00
1.271048742097904494e-03,6.089762548159025415e-03,-9.794756838552254763e+00
-9.513395944365041906e-03,-2.482754559653926277e-03,-9.793063951961624269e+00
-9.661721305799690976e-03,-6.970507903252773710e-03,-9.792035359654272852e+00
-1.727810969335498350e-03,1.190769010476257499e-04,-9.794188471458225465e+00
-1.707455545367649995e-03,1.846232263395982060e-03,-9.786051918252168136e+00
5.341682037498150792e-03,3.339524254105563812e-04,-9.801704985868600062e+00
-8.840625236579851588e-04,5.380837007726879326e-03,-9.795817700878496126e+00
-3.516465943470099224e-03,6.072749745534474983e-03,-9.797638031729768215e+00
5.811509026504148127e-04,-6.958505192732133233e-04,-9.793359861569577163e+00
-7.840204202558350224e-03,3.696474149277665256e-03,-9.792296056793190928e+00
-2.415787079537248284e-04,7.238452623829646181e-03,-9.790140109831826365e+00
4.323015155019488604e-04,1.437792584450412131e-04,-9.797003245899810864e+00
-7.763080366247855288e-03,3.284555581014701395e-03,-9.792564402081140429e+00
-1.332710430156011476e-03,9.528573952499581846e-04,-9.795014213071839393e+00
-5.757193945043335981e-03,-4.884103340554327675e-03,-9.797140400220458289e+00
1.116592135452300349e-02,-1.503501478208435277e-03,-9.794330211810416742e+00
2.189025368084756944e-03,-1.512638391150159314e-03,-9.789570515285207719e+00
3.045924098560634681e-03,5.197270083292826123e-03,-9.794157293398736641e+00
4.404160533970164805e-03,8.299387272323200532e-04,-9.794944336846340249e+00
4.856654663249961208e-03,-3.376439778861518208e-04,-9.792504567414642480e+00
3.703309476819455562e-03,-2.376001402672829957e-03,-9.803449066898025421e+00
8.361917988344690772e-03,-3.954604948220048072e-03,-9.796839980615834165e+00
2.827624420223220306e-03,-8.629820226218623547e-03,-9.797103789098187576e+00
-4.544965892936499684e-03,-6.111734680847598746e-04,-9.794048096724019103e+00
5.777879461810190437e-03,1.854826424344776289e-03,-9.794861521626643253e+00
7.843001927673917337e-03,-2.110829856387561390e-03,-9.797741115839048831e+00
-5.439173773293478134e-03,-3.512729299712108455e-03,-9.792083207661240962e+00
-5.593773253180218778e-03,1.756824362719163445e-03,-9.796433844156112514e+00
1.642616560130383870e-03,9.850671567719693818e-04,-9.782378969816894809e+00
-1.613699341996929597e-03,-7.038727293113633890e-05,-9.799112505554193220e+00
-1.056107409316450231e-03,5.903532700819458419e-03,-9.788260344453707518e+00
9.660572103061398908e-03,2.612318608764692060e-03,-9.796551606751162211e+00
5.193931140542723014e-03,-3.245469790188297999e-03,-9.790345447165561765e+00
8.682659060629262585e-03,-8.304095692242340759e-03,-9.788943294705713782e+00
3.984585942936298177e-03,6.720736770638009727e-03,-9.795805613606230366e+00
1.785372536583374652e-03,7.199519388196066148e-03,-9.790292105853881210e+00
-2.859988902207900776e-03,1.172203351379968225e-03,-9.790728158377433488e+00
9.470633035955800406e-04,-7.183930251606858225e-04,-9.792417507999147119e+00
-1.674236003125619075e-04,-5.860814864816496841e-03,-9.802044466115944488e+00
8.041521787109136158e-04,-5.470009041619915482e-03,-9.790103726390505301e+00
-9.574678040351700808e-03,-4.424256130481497677e-03,-9.796639357049327756e+00
-5.709327299785576723e-03,6.124719276047675860e-04,-9.806370738317481184e+00
-1.805210188364643996e-03,-7.029673455327426976e-03,-9.790515012213921509e+00
4.427248831313495420e-03,-4.450663093863684722e-03,-9.799036556949396015e+00
5.637821673375571774e-03,-4.709612631919071930e-03,-9.795166134279048364e+00
-2.224612965159572867e-03,-2.421424340912489790e-03,-9.794132816921971241e+00
4.019184900248159303e-03,3.188439250465280837e-03,-9.796511819119624320e+00
5.015884265380062511e-03,-2.993668054400593082e-03,-9.794714568334665472e+00
-2.589079107158798101e-03,7.182038724422790815e-03,-9.790940959337694594e+00
5.724211264342640324e-04,3.802379280138333366e-03,-9.790257774675746205e+00
-1.239002286850696306e-03,-4.190229876283422736e-03,-9.791780748088209307e+00
-8.939335585286793283e-04,-5.875766924494527955e-03,-9.790764213925578829e+00
9.333750280492674259e-03,7.992996929483275545e-03,-9.793281721390417971e+00
-6.288599776719742095e-03,5.783914133845496561e-03,-9.800069756634284701e+00
6.637391447152227869e-03,-1.997386120199443147e-03,-9.794440858680413697e+00
-9.510815237448306397e-03,3.150516423972506315e-03,-9.794904416141136494e+00
7.338800739127269296e-03,-3.090167993449523167e-03,-9.786903172785125449e+00
-4.205704439144902947e-03,-1.459902868175236030e-03,-9.783493567978178262e+00
5.835903357514856185e-03,-4.226586790969759366e-03,-9.800509559632116563e+00
-5.463560014743529432e-03,1.589216983967120305e-03,-9.797943946839938079e+00
1.818050828216743542e-03,5.515945003048986807e-03,-9.805679267201501403e+00
1.223312556400696707e-02,2.133305415588467122e-03,-9.795150066197612304e+00
4.193650091837771050e-03,-5.938703031339162206e-03,-9.801013760765787453e+00
4.797281174532465331e-03,-3.671151314175755392e-03,-9.799025645180845956e+00
7.251015244654096872e-03,2.699887437488250261e-03,-9.787271742655434537e+00
-2.687363365453040130e-03,-1.104538151676952122e-02,-9.798794718287222594e+00
6.126631427659816852e-03,-2.611646598978924422e-04,-9.789918928677508347e+00
1.037718055094439921e-02,4.200854337342507187e-04,-9.795071135696321818e+00
6.397514215054181906e-03,-5.293458853527527319e-03,-9.797981145025849159e+00
1.361848534120004440e-03,6.594370651410255170e-04,-9.795527779279710856e+00
-1.725422109388029344e-03,4.133633072213534904e-03,-9.796560860958365424e+00
2.575726736890533372e-03,-4.153258712457462767e-03,-9.794381048967563785e+00
-4.579992416808343660e-03,3.590852004484601772e-03,-9.806515078721780299e+00
-4.809052966108875483e-03,-2.207485752765597819e-04,-9.796694583221160713e+00
1.221883339567128753e-02,-7.363781471328765095e-04,-9.793447212512441880e+00
-7.549444894509038662e-03,-5.179219821019222757e-03,-9.800558661165819530e+00
1.986266680683540335e-03,-1.904313261055454176e-02,-9.795111991792499140e+00
5.162012911697422962e-03,4.539002221715903763e-03,-9.789416399337552477e+00
-2.280665131931231861e-03,-6.094829448170004105e-03,-9.802397777353368369e+00
3.862796597516996756e-03,1.397680078628502250e-03,-9.795427037712306273e+00
6.561900055717521593e-03,-5.724807561947656970e-03,-9.795816212669290479e+00
-7.241945726917434732e-03,-2.136633321369430611e-04,-9.801227750916135406e+00
-5.005813152146177183e-03,1.015291776941024127e-02,-9.797775915614836961e+00
-2.894957414250706740e-03,2.861433809286862383e-03,-9.784074093141143180e+00
4.565869311618129048e-03,2.180139802685984729e-03,-9.790012593164089338e+00
-6.258517562114773031e-03,-4.034702199784454858e-03,-9.799649739041106145e+00
-7.659953232892957251e-04,-3.279143003906393426e-03,-9.792447153467488619e+00
2.092374630667571261e-03,5.479806847611711548e-04,-9.795489335563337008e+00
-1.437656023393314459e-03,6.550093495068443593e-03,-9.795368776782700238e+00
-1.145462897059296072e-03,-6.981103394773705700e-03,-9.799729778001109892e+00
1.648016434782980212e-03,3.145490853561632317e-03,-9.790769422470972927e+00
5.979203141381463603e-03,3.620837722701708387e-03,-9.799321414727092616e+00
-4.068613901846019308e-03,4.252471952344009931e-03,-9.797717589626309120e+00
7.571927283933827836e-03,-5.062700839333544346e-03,-9.782042517623544597e+00
-1.583866592161252288e-03,2.703058928622121410e-03,-9.800380071639713364e+00
8.923303950159500609e-04,2.428162032605939418e-03,-9.786909496700388900e+00
-7.864519970519203785e-04,-3.725639054895278635e-03,-9.797727473288526667e+00
-1.019220454428422344e-03,3.176075579897586973e-03,-9.798848914286077516e+00
4.122957981285643031e-03,9.862279198905692101e-03,-9.797800973225843535e+00
-1.791393633513950348e-03,1.349685641885540154e-04,-9.797041736078174523e+00
-1.035126122709332727e-02,4.102254007625680959e-03,-9.794793582417637978e+00
8.574353251293739776e-04,-2.781149376463921789e-03,-9.786332735975429742e+00
-2.783223373355289861e-03,2.454902353225119419e-03,-9.792776757071640858e+00
4.049356172201931149e-03,-1.094984588246986513e-03,-9.795769066198605657e+00
-3.135703507883723894e-03,1.266618286141887699e-03,-9.791497831072403457e+00
-9.456489861262917318e-04,-1.071504292264331692e-03,-9.788441719532992025e+00
-1.702938876024972809e-03,-1.860720973792558911e-03,-9.791176339251762784e+00
-2.590381622734695731e-04,-2.533408133409372539e-03,-9.797823515800100580e+00
3.128131000794918959e-05,-4.630260667247337869e-03,-9.795297308059394581e+00
-3.891001267465289334e-03,-6.547943550605679619e-03,-9.790766389797108005e+00
4.617993345303276348e-03,2.053522026242410488e-03,-9.803346990935688510e+00
2.706670503589188141e-03,5.911203074891646127e-03,-9.799727968833849445e+00
-3.498187240256011091e-03,8.490319912128640491e-04,-9.789541907776586172e+00
-2.877014182407801324e-03,6.186220636373541623e-04,-9.791251492953277236e+00
9.720937974306875003e-04,4.029899138403487437e-04,-9.786309432640120320e+00
6.797907490570730474e-03,3.911707338334688769e-03,-9.793986515926338399e+00
-2.080141851811241529e-03,1.927873255130664511e-03,-9.794721284078011792e+00
1.652353280597139776e-03,-3.400740723352770663e-03,-9.796963972657984243e+00
7.461796886783216010e-03,5.473950264852043288e-04,-9.793638372135482939e+00
-5.136691658110937794e-03,2.403038966700736089e-03,-9.801888222102761006e+00
3.625949622130471978e-03,-2.580240161600176087e-03,-9.793908427904021607e+00
-3.919293750858522836e-03,-4.782185107896434187e-04,-9.789856236658298627e+00
-8.870904698991715839e-03,8.105933559899273708e-03,-9.794267821867521207e+00
7.928165429636351708e-03,1.538914723569475770e-03,-9.789033468328820931e+00
-2.803013206340928751e-03,-6.758538796971151098e-03,-9.797990963224417982e+00
3.509439629241709133e-03,4.424008881712828724e-03,-9.785225320821515638e+00
1.019717952146245808e-03,3.919843439469816553e-03,-9.795510166622786841e+00
5.348733588578664369e-04,1.337958052300959339e-03,-9.796501769507354851e+00
-4.899055883654928126e-03,-5.682048867534988598e-04,-9.796338907453300493e+00
-3.204718326345789214e-04,-4.014730018007524499e-03,-9.784791885448784754e+00
1.537834290004677033e-03,-4.493271692289222546e-03,-9.792830708431843334e+00
5.733762336712958617e-04,-6.295262954946512744e-03,-9.793546692552713040e+00
4.508561691681053051e-03,5.944179026260098218e-04,-9.792984298740035953e+00
2.244264112107036482e-03,3.616701435928009779e-03,-9.798021917563108474e+00
-4.208257455790314315e-03,8.233107395771561282e-03,-9.789310501109852680e+00
6.106346334717569976e-03,-7.975332509713517828e-03,-9.803084985091945924e+00
-5.186320357395984675e-03,-1.270739656687617809e-03,-9.799938829287979658e+00
-7.494075221788264185e-03,3.476694702601269924e-03,-9.803187273903843035e+00
2.412610124331489043e-03,2.900103824561821720e-04,-9.793709660591671806e+00
1.115828250263015305e-02,-5.708910197700476849e-03,-9.794571002053906739e+00
-4.589055266650021378e-03,6.646915608327847932e-03,-9.780778620711471305e+00
-3.147026978021885951e-03,4.646621006151560249e-03,-9.797489027550536633e+00
1.372750397896712379e-03,1.145092677209327663e-02,-9.797321189783698259e+00
-2.474520025624927112e-03,-4.154434762947839706e-03,-9.793631111609974127e+00
9.661179346888513347e-04,-2.084561932928120139e-03,-9.791998638034927538e+00
3.735476873918298999e-03,-1.964643412498848739e-03,-9.795534329389525396e+00
1.334629243947355395e-02,7.133035145242239486e-03,-9.793301024496855689e+00
2.226404997606904607e-03,-5.216459724926091925e-03,-9.789219061996393023e+00
-6.522113864269832306e-03,-2.200652970102902513e-04,-9.798641741757453616e+00
2.243921750957481379e-04,-2.555607390274901042e-03,-9.791748249980479102e+00
2.240302266783610399e-03,-7.453618884719522865e-03,-9.792848129687833136e+00
1.066278418324976413e-02,3.597551428906204003e-03,-9.800119066551685520e+00
-4.562525668784392016e-03,-2.310433034776161743e-03,-9.789717663090005573e+00
4.619684640585887056e-03,4.068433931921677620e-03,-9.795637467467377846e+00
3.242921757626184183e-03,1.989325981128444343e-04,-9.787703890900196768e+00
1.000509965395444479e-03,-2.206554163201920622e-03,-9.795595554448164322e+00
-3.199553780910552748e-03,1.109412555579140404e-02,-9.795477918675365103e+00
-1.212726658198736394e-02,5.263280584202529623e-03,-9.796472743712250519e+00
4.394370710902954433e-03,-2.620728248584211495e-03,-9.805240840183753193e+00
3.840001928223472048e-03,-1.880944062064696543e-03,-9.788595709131309164e+00
2.827557316751513981e-03,-8.097059919457288285e-03,-9.797470886776872945e+00
1.671297470278780735e-03,-5.708285811996333461e-03,-9.790466837182341564e+00
1.219942282636552085e-02,7.616093377061967581e-03,-9.793484082779476907e+00
-5.905253179103679868e-03,6.207379859020506485e-04,-9.790278464100733657e+00
3.282474960599631158e-03,6.348255492334685737e-03,-9.808867019140716792e+00
4.393990791504047595e-03,2.187518404422734292e-03,-9.800399111594142454e+00
-4.978366949143353017e-03,-5.551684872854723701e-03,-9.796128469389937976e+00
-1.165028123611584320e-03,8.555287036009228546e-03,-9.794510561817903138e+00
3.443145903968557447e-03,8.540644822169223341e-03,-9.791558938866147699e+00
2.102143558584106814e-03,-2.270586103934806943e-04,-9.793309026860496758e+00
9.964314098221906460e-03,-4.536055614821389755e-03,-9.796622545335578636e+00
-1.229911962400795020e-02,-6.571302261339581272e-03,-9.789793055698533308e+00
-2.118121140462734912e-03,-3.731255030621564474e-03,-9.787730835383058547e+00
-1.129420570912408614e-03,3.541667740560547426e-03,-9.780719034469782969e+00
-3.471159489121863374e-03,-1.520497602624606894e-03,-9.797039002862323542e+00
7.787488147983830447e-03,1.348162110131988136e-03,-9.794665264507647962e+00
5.482185851663720112e-03,-2.553539542399120045e-03,-9.793627734717075484e+00
-3.295621974458709351e-03,-8.868570465062437444e-04,-9.798830458490940032e+00
-2.905075261202581284e-03,1.793691651468739753e-02,-9.805598597408597072e+00
-1.475651487711096685e-03,-4.639456474850089940e-03,-9.795856861531882842e+00
-9.127509736641918267e-03,9.846400908381298944e-03,-9.798510811193077430e+00
-3.516240415901667610e-03,5.328784694899024212e-03,-9.788368263601700647e+00
-6.166469639081787434e-03,-1.231447599937865109e-03,-9.790375159351031087e+00
7.068564617406397979e-03,-2.231414847250511209e-03,-9.789126415634363809e+00
8.028584007062826520e-04,-2.523581633291156496e-03,-9.785724290007035364e+00
1.483696196037973892e-03,3.393792776957133255e-04,-9.792936582962292746e+00
1.974435212830436947e-04,-7.485574575695048971e-03,-9.797663452274345985e+00
1.410916251753469974e-03,3.640782973242797944e-03,-9.797750956381563014e+00
2.806731783804294715e-03,-1.039567115363726740e-03,-9.779556056907569683e+00
4.683257495740019913e-03,-6.351162815105351744e-03,-9.786870763525636008e+00
3.623169792016356881e-03,-1.747918315105367144e-03,-9.796139055026827691e+00
-3.584954585437402554e-03,8.819016122168961413e-03,-9.802555390784906564e+00
6.802735123288921465e-03,1.753554585325115250e-03,-9.786908304899469613e+00
4.975005827045152207e-03,1.365941945574036809e-02,-9.785623944513295314e+00
8.455660415738235763e-03,-3.735763497421845918e-03,-9.805043015641953019e+00
-1.092406216067208155e-02,-7.874773632521229680e-03,-9.795108538861274639e+00
-5.042351990408658335e-03,6.929012860376678341e-04,-9.792130801928031758e+00
7.843817989162764608e-05,-2.491744274534150785e-03,-9.795883893918729157e+00
-5.037183218591994097e-03,-4.084213096850793610e-03,-9.796055886027142279e+00
-1.871787480155511028e-03,-1.089083553638602649e-03,-9.794232698851628172e+00
-1.017268420765452333e-02,-5.795308163461171565e-03,-9.793777985226437721e+00
-7.284457560095048724e-04,-6.508128601806269058e-03,-9.798170935261168779e+00
-9.584407519930214850e-03,-1.035465667502062474e-02,-9.792811869478432740e+00
-1.588528124545894073e-03,5.218591323943470861e-03,-9.794545831102425382e+00
2.257452914075649877e-03,4.034563074742054251e-03,-9.798860968009208250e+00
-3.950102343351208183e-03,5.849061078598584255e-03,-9.788867365763875839e+00
1.310231615702640157e-03,-2.380226996624082349e-03,-9.793860150944194487e+00
9.876176683862175620e-03,3.143363196334261062e-03,-9.790711584401988077e+00
-1.807927411872587656e-03,-3.338185952020787748e-03,-9.784004701655277358e+00
4.592979260545044379e-03,3.026941802097574997e-03,-9.791173815517161927e+00
3.778922815497431399e-03,3.903288024912437114e-03,-9.790760697874601348e+00
-3.003511023422967717e-04,4.417377127647178527e-03,-9.792689255493373324e+00
-1.479808384066823258e-04,6.959259432002895887e-03,-9.792365578408087856e+00
-4.132104353897136581e-03,-3.338183891100574181e-03,-9.794881101949846069e+00
4.542628143557989225e-03,4.052993474134792586e-03,-9.790700375348603046e+00
3.432844753194357577e-03,-1.339945331792509638e-03,-9.801090290388533077e+00
1.154333008127326164e-02,1.531210609254892926e-03,-9.795451777430338680e+00
-1.051525609401160162e-03,1.122200032356380009e-04,-9.802828972848010025e+00
-4.956175402721924549e-03,-4.970429495674855494e-03,-9.796083982789854261e+00
-8.439960160042829290e-04,-5.153963847979260715e-03,-9.793523080563812044e+00
3.049151732603433591e-03,-6.304726804188857947e-03,-9.794254898429722189e+00
8.621666218330829162e-03,-1.891291907219972996e-03,-9.796172981738232366e+00
-2.579204671588600575e-03,-5.187978300754268919e-03,-9.805695927149269409e+00
-4.257524250937057102e-03,-3.768916299380890064e-03,-9.797831202472707446e+00
1.616045902450569550e-03,6.069642158944552925e-03,-9.794951455716171651e+00
-5.332242707004147993e-03,-1.172094437100929063e-03,-9.796493480572149082e+00
6.732018878053821695e-03,4.606671610615368714e-03,-9.797061480534846822e+00
2.958752972705129373e-03,5.465643738316807061e-03,-9.792716068761750492e+00
4.046304703715277590e-03,-3.615244553491254878e-04,-9.795952625554031457e+00
-1.009093277880165895e-02,1.927275382092702438e-02,-9.788032224547658089e+00
4.462122809907988555e-05,-8.801976131866218883e-03,-9.793535405421389228e+00
-1.676141647760749469e-03,-2.929324506721656899e-03,-9.784655492237357421e+00
-1.021100392963916661e-03,-8.982770253047046155e-03,-9.788731330120851837e+00
-2.337936623801803709e-03,-2.429126207732688891e-03,-9.795270416021095272e+00
-3.588743906269092031e-03,-4.124154115854120235e-03,-9.781743913393116330e+00
2.097663416049054519e-04,5.730994198101158413e-03,-9.795339995477593931e+00
-4.821227808918503990e-04,-3.683172122540741191e-03,-9.793647949343570858e+00
5.450626187711513949e-03,6.774569434854927491e-06,-9.796177909682404206e+00
4.738734557279801821e-03,1.438356102670025486e-04,-9.790362417731564904e+00
5.935322177208301672e-03,-5.794645605835726382e-03,-9.787922057840285461e+00
5.276651528409853457e-03,3.219793797107163569e-03,-9.797045093577551711e+00
5.784026061295743926e-03,6.283161060850533594e-03,-9.790008100071474928e+00
-8.814228557114018453e-03,2.993632015242031572e-03,-9.800280606324269783e+00
3.567618704671822460e-03,-1.160453045805474870e-02,-9.792713744791255337e+00
1.833949571811435090e-03,2.368544423377210231e-03,-9.789222064251136501e+00
-4.630777843665081356e-03,-1.390640168125580577e-02,-9.788893182813234617e+00
2.530536510116234740e-03,-1.886358239894873369e-03,-9.793711113798643453e+00
6.366758815610466457e-03,-1.023744132780174919e-02,-9.792934341770950013e+00
3.518007716770739628e-03,1.215820600872955480e-02,-9.797609141463848204e+00
2.965436425894345512e-03,7.111453610683976696e-04,-9.789850436339788686e+00
1.623351655282042911e-03,2.804923591006391144e-04,-9.790224135351632384e+00
4.505816820330920324e-04,2.842231226220121813e-03,-9.800453863459480885e+00
-4.837183397739215802e-03,1.155057140151350206e-02,-9.796653047688957727e+00
-6.444321532287755790e-03,3.690045508747359648e-03,-9.795553326689846685e+00
-3.339435766699916635e-05,-3.593622242844587197e-03,-9.790264373067470771e+00
3.173698222934333291e-03,-6.586295261744853045e-03,-9.794196254614043085e+00
1.113615144362751878e-02,-1.207972149717251309e-02,-9.784277455295290693e+00
-3.978356700117784660e-03,-1.485898088058604715e-03,-9.792839060848034904e+00
4.099473686752386041e-03,-4.907983648421047201e-03,-9.794725754368997173e+00
-5.716043873860100245e-03,-5.544539844711730489e-03,-9.792686105703550581e+00
3.910198574044900302e-03,4.234511545239336150e-03,-9.794592373026571153e+00
-5.597631926168982267e-03,-2.815061915192058634e-03,-9.781947406930299849e+00
9.394732365166806121e-04,1.349450964694522050e-03,-9.792881984179917509e+00
-1.239055960152142663e-03,-2.796709899292632202e-03,-9.794046084815491326e+00
-1.000622689683605335e-02,1.823083997382370786e-03,-9.791622099999415241e+00
3.929426215387673595e-03,4.464130882282034071e-03,-9.792934428220481990e+00
-1.056561464792585194e-03,-2.018303679009364731e-03,-9.798916967404984746e+00
3.029629450295161664e-03,4.211623506511866580e-03,-9.793008439484923500e+00
6.918384429915318701e-04,-1.275864859272810275e-03,-9.792700112190983575e+00
1.275775926046936008e-03,3.409561443683945675e-03,-9.793794171099378332e+00
-1.885294662681608838e-03,-1.495109322707119598e-03,-9.787595015613630878e+00
1.280899472243577329e-02,-4.408220497749674831e-03,-9.798260855283190907e+00
-3.372818561685797566e-04,5.113354492576572922e-03,-9.788321962301010259e+00
-2.628060597035033162e-03,-2.192718123385119580e-03,-9.795792622059350307e+00
3.474538812931979217e-03,-2.144429616619797103e-03,-9.788560293727543993e+00
-4.317396315135612304e-03,6.078412287381949018e-03,-9.788434723903117529e+00
-4.067949842052900888e-03,3.222136869358942050e-03,-9.794678023314117965e+00
-2.457294776633758230e-03,1.435433995679319440e-03,-9.789444139756625418e+00
3.687942725908808367e-03,-6.261387046596977347e-03,-9.800798432068537736e+00
5.427325548233047706e-03,1.706133606884062837e-03,-9.793146699764252006e+00
-8.163048343382440109e-05,5.345373228214175473e-03,-9.790100904604837950e+00
3.474534038908179347e-04,-1.589456098184211137e-03,-9.789640114224853917e+00
-2.714037758026015094e-03,9.855010287985039447e-03,-9.796080477253607199e+00
7.995143654128874025e-03,9.663370232100638307e-03,-9.786603313701364826e+00
-7.985213527008025447e-03,-1.883069281567205551e-03,-9.793103854369604733e+00
4.532105580662875235e-04,-5.012622037461527368e-03,-9.791353465761048369e+00
6.328630395396493344e-03,1.274068322020473383e-03,-9.800283476355591716e+00
7.604980076956652756e-03,-1.040004031058272028e-03,-9.793988658777873724e+00
-3.656021866052408791e-03,1.401326955121406058e-03,-9.789671785727682263e+00
1.526772980094339045e-03,-6.656808483744340544e-04,-9.793795168353478076e+00
1.534290543644423318e-03,5.231775307764859745e-03,-9.791577452932259007e+00
2.559535418810943760e-03,6.497393789816520090e-03,-9.790711521301433962e+00
1.478500101051149866e-03,-4.031721021841999826e-03,-9.799120546510282637e+00
6.302444362221224080e-04,5.309406022297693227e-03,-9.793660199547206346e+00
-3.656734581458760507e-03,1.277494214701963351e-03,-9.801256472721647128e+00
-3.427419769951313335e-03,4.976093711669131621e-03,-9.787287866503291411e+00
1.023642762804300582e-02,1.526030498513156544e-02,-9.789540813981984613e+00
9.074628195150227089e-03,7.432451717711593790e-04,-9.793109562077839669e+00
-1.358070567729546818e-03,-6.788024409735191229e-03,-9.789273456094639059e+00
-1.464379926638546088e-03,1.321783784526113330e-03,-9.802332813427463876e+00
6.317777058212365598e-04,8.995622815827724814e-03,-9.796063320958952048e+00
3.773394842913484464e-03,-2.352860659835038191e-03,-9.794386479964437342e+00
-2.105592313551706181e-03,-9.362414041700841891e-03,-9.797325850975752815e+00
-6.636347961395797079e-03,6.809746138949669680e-03,-9.795552810238191910e+00
7.469339824760861356e-04,-1.518889394191539483e-03,-9.798120499533144567e+00
-5.322331647057912266e-04,2.081057746572464312e-03,-9.803201775132476925e+00
-3.586170494309722130e-03,-4.699758226870021961e-03,-9.783353038049575900e+00
9.655622614404411885e-03,-1.082681883813505982e-02,-9.797982710503001513e+00
3.838023764307593212e-03,4.021950548005156709e-03,-9.791807664718085391e+00
-9.696980205930122790e-04,6.787411531574301209e-03,-9.789297371305071493e+00
3.993912240349709389e-03,7.225227058739010916e-03,-9.800241206365955193e+00
-1.578914650937942709e-03,5.107435116769584033e-03,-9.795903045837757617e+00
1.267781739667471746e-04,-5.574609100441486192e-03,-9.799676572006331909e+00
-1.159985200673425238e-03,8.491451161607286484e-05,-9.788542731760038862e+00
3.709230092106228453e-03,5.486709678689324562e-03,-9.792058469922423569e+00
1.387368462181749404e-03,3.300799886660393638e-03,-9.787546839531957588e+00
-1.674127674704456881e-03,4.875123527614584271e-03,-9.790737342408219135e+00
3.458505493595142796e-03,-2.571069162061082481e-03,-9.791173661907183856e+00
-1.218686645532725439e-03,1.106182491039108505e-03,-9.788036667419149239e+00
-1.001084979451651903e-03,2.445914611460123841e-03,-9.794097503307215291e+00
1.028257386505277956e-03,-2.347393799531974183e-03,-9.792882991543862659e+00
-1.003591181092466575e-02,2.156156731228522721e-04,-9.791639765464559275e+00
4.579646688018663460e-03,8.548425835788695318e-03,-9.788946805422799713e+00
6.412345510459906833e-03,3.730948214753309310e-03,-9.784755440850585018e+00
8.498493730000539811e-04,6.055024075671800420e-03,-9.800365828234088639e+00
-8.411149580770167777e-03,1.267438755245577737e-03,-9.795382473378081656e+00
-4.126222869221373400e-03,4.902227907338457293e-03,-9.794526812738396870e+00
-8.856732472952099332e-04,6.243741340468069237e-03,-9.792497151451287962e+00
-1.857611385444060247e-03,-8.561950227324940585e-03,-9.795098925314574601e+00
7.213767940366075208e-03,9.879875034750653512e-03,-9.791626552450551912e+00
3.347250155249092626e-03,-2.207119678431881428e-04,-9.791266496405325981e+00
7.449828201746241593e-03,5.119169167988882156e-03,-9.793647912799256616e+00
-9.890050589092657524e-04,-1.029399960449371189e-02,-9.798814934592781967e+00
-6.559803239902398629e-03,3.508417479561473651e-03,-9.798571904032616686e+00
-3.346669201686934981e-03,4.979999020063931997e-03,-9.786783852014526275e+00
4.353079581562841437e-03,6.778270078157874572e-03,-9.789951800349731670e+00
4.061108730581480634e-03,-2.005951138951727469e-03,-9.797235850188151574e+00
-4.363886489292386102e-03,3.030484465865510187e-03,-9.793769846496932274e+00
1.389194050957716191e-03,1.608553518896694689e-03,-9.787522720038719370e+00
-2.215071542511389859e-03,-3.562317977861229230e-03,-9.796350925448152225e+00
-3.868256888907869225e-03,-2.178423628854467275e-06,-9.794350301438379702e+00
-2.172315554556324222e-03,-3.832724488493473997e-03,-9.795092063304982943e+00
-6.594257499295492174e-03,-8.401169307172868736e-03,-9.803462808595654110e+00
3.261421095940338598e-03,1.158161794396450530e-03,-9.797012050271142414e+00
-4.903520607437560075e-03,1.073915133301248451e-02,-9.804446586065388658e+00
-2.082814881123292491e-03,-2.356778714572867368e-03,-9.790665097637353043e+00
1.318988205617772479e-03,4.711295322154290983e-03,-9.797597336754705566e+00
3.743142319010884199e-03,-2.634750858932447242e-03,-9.796772895248956559e+00
1.359344116530338074e-03,1.392563160406876024e-03,-9.794539961949945805e+00
1.814149890462923593e-03,-2.475510742013456531e-03,-9.794863927745687704e+00
4.593274343068873278e-03,-3.519934002183150966e-03,-9.789534506399311553e+00
1.489470464432186836e-03,1.351164114973934854e-03,-9.791921628910204234e+00
-1.580687422315609023e-03,6.359290803640494510e-03,-9.797911386880363338e+00
-1.002143008951622213e-02,-2.593831580992577834e-03,-9.793485099705714347e+00
4.256679595569672764e-03,1.007322358977326936e-02,-9.788319965085102936e+00
-1.139480287836242868e-02,7.313411912598726319e-03,-9.790815343114195102e+00
-2.905610143265297939e-03,3.544930520807982742e-04,-9.792793861605254335e+00
1.475359992111756986e-03,2.968809437716421040e-03,-9.801372820328545288e+00
-2.919434854946594687e-03,3.847086360565449888e-03,-9.796804577539390380e+00
1.215014298843631636e-03,-2.044928091865265071e-04,-9.790120017938003016e+00
4.229710924871641319e-03,1.168648151426135624e-04,-9.797411112371815278e+00
-5.600394690165873962e-03,3.488854549595141966e-03,-9.786264776966216772e+00
-9.126678766995324505e-05,4.206269208930181643e-03,-9.798587516369442696e+00
4.060755623711202029e-04,-5.231316964623176219e-03,-9.790463276406496718e+00
-3.644183645816020511e-03,3.722246292552795158e-03,-9.792179846154246192e+00
-4.454701966463964560e-03,-1.697662405298855847e-03,-9.794082863401268213e+00
2.007167181147520400e-03,1.734395582724157243e-03,-9.786565824614591236e+00
2.271961333357862441e-03,5.159080908252495698e-03,-9.800611281366066407e+00
3.661246706151831398e-03,1.441047327205001363e-03,-9.798002690747988908e+00
1.255313919912078675e-03,-1.014461522530314685e-02,-9.797558522279603110e+00
-6.476685643997686813e-04,3.445321793876706448e-03,-9.794507528454877487e+00
6.919221458018777124e-03,-7.307663919193979445e-03,-9.791164729617044316e+00
-1.986955635766034581e-02,2.055260648880204502e-03,-9.797241510824560962e+00
3.593862978464609868e-03,-5.822798812159885040e-03,-9.789778912870522376e+00
4.385919790599947764e-03,1.104178354435315403e-02,-9.794730617446925081e+00
3.170595646569291173e-03,-3.996146193966778302e-03,-9.789474755818101670e+00
-9.199485586019219563e-03,5.898168644264338567e-03,-9.796537167290802373e+00
3.576396662480555680e-04,1.513017454016748423e-03,-9.794797836928639256e+00
-2.470014728680676105e-03,2.632734284976595996e-03,-9.795709882592532836e+00
4.786675842728829212e-03,3.845697586653138312e-03,-9.795062786337842553e+00
1.145976240416042569e-02,-1.356213168629600294e-03,-9.804029252885932522e+00
5.983186072955780886e-03,-5.586686765993100108e-05,-9.788796614111168637e+00
-4.827152720529402988e-03,-4.004578215346526159e-03,-9.797440676364759682e+00
-4.315123030522214449e-04,6.617974524028440858e-03,-9.791034260449535509e+00
1.267393811155873712e-02,1.167647094770134231e-02,-9.789359686836316854e+00
-4.225697689242104843e-03,2.839759447480969673e-03,-9.789678264147180897e+00
1.933981048222399796e-03,7.359152344389542806e-03,-9.796706162352935010e+00
-6.791621371859428956e-03,-1.733138757857202727e-03,-9.798089533240679216e+00
5.262178527729743753e-03,-8.810486778267661440e-03,-9.796493829314416146e+00
2.940936160179140682e-03,5.829094227719683330e-03,-9.788547029701629043e+00
-7.140146308632272509e-03,9.780213151968503160e-04,-9.793863788352773270e+00
-3.643618322874692204e-03,-1.356392458809476623e-03,-9.805897678430840259e+00
9.602176742769547718e-04,3.240349690072893366e-03,-9.798509400584125117e+00
-5.639622525703369242e-04,6.715010704784415280e-03,-9.790900027822777574e+00
-1.204854368019716432e-02,3.409057140173097147e-03,-9.791252943341444137e+00
6.591371799581570608e-05,1.605901508045857844e-03,-9.794761094932830758e+00
-6.570891930539798573e-03,-1.997219432260462918e-02,-9.787076907899347589e+00
-7.805130343306924956e-03,4.242753502456135875e-03,-9.799316976204465846e+00
7.872130734819996270e-03,-5.310927280994981632e-03,-9.791122713098195263e+00
6.183927014194668314e-04,7.266990568664729970e-03,-9.800544913072709363e+00
-6.854178484975145813e-03,-6.909595013603612307e-03,-9.786936876765027549e+00
-6.355588624550372913e-03,9.432377684086309770e-04,-9.803910493154273098e+00
9.044536532176997070e-04,-2.761490498914254219e-03,-9.792677921539443275e+00
1.023753624283675438e-02,-7.382412307640704233e-03,-9.797893919937417095e+00
-1.839112047296014713e-05,6.395773395082781157e-03,-9.794135945267157695e+00
-3.403266753363329029e-03,-1.635047653730147422e-03,-9.798692947037224599e+00
-3.754560321757661849e-03,-2.143076795607004158e-04,-9.798440238139356495e+00
-6.551465583219391424e-05,7.581352363139221354e-03,-9.793121046126731954e+00
-7.934283736498211684e-03,2.139160159020628456e-03,-9.793630645385452027e+00
7.461732550338473144e-03,5.143643801437960961e-03,-9.790880658803681413e+00
9.544032231256148816e-03,1.985516206911962494e-03,-9.801819686551695554e+00
-5.547897866013709080e-03,4.526660825721624815e-03,-9.802945060881357975e+00
4.550636808730603583e-03,6.713263053505963245e-03,-9.794035757129613273e+00
-2.326715040911364173e-03,1.073729726691242253e-02,-9.794389706166628073e+00
6.352833440373959958e-03,1.623928574573522184e-03,-9.795355621112559419e+00
1.686315618130002775e-03,-3.041201972358177803e-03,-9.794217936078961628e+00
-7.107142744833758359e-03,-4.424750775199852090e-03,-9.796373111195443073e+00
-6.625453038440149399e-03,-2.940213636104721312e-04,-9.804034386167806758e+00
-7.137796232085848874e-03,-2.748636545681150921e-03,-9.794107486644753280e+00
3.615843298804654292e-03,7.670004969910838074e-04,-9.797809047959475492e+00
6.912602206379536186e-03,3.649907991155021750e-03,-9.799063918131610151e+00
6.036340736309271648e-03,3.775248918194093820e-03,-9.793193342887501984e+00
2.379343304901280348e-03,8.802891998421364869e-03,-9.793490731871862920e+00
9.956598541685915404e-03,2.276245165229982565e-03,-9.793171625842793659e+00
5.892035661948293382e-03,5.131220418109926594e-03,-9.786589654843902863e+00
9.088148894212642621e-04,3.569373442533878282e-03,-9.789129254597257912e+00
-4.799998056140044635e-03,6.535334230291237534e-04,-9.800670783374254569e+00
-2.387953221739787073e-03,8.884925431948412916e-03,-9.785921287844260519e+00
-5.921168118846791874e-03,-3.523967714705456954e-04,-9.792086204536142091e+00
-2.934173971899315791e-03,-3.548688126915112463e-03,-9.790300326866926639e+00
2.432135657152226932e-03,-4.616603978471004247e-03,-9.795286804977187956e+00
8.921295673761163274e-05,-3.710054086536568232e-03,-9.791540492024916276e+00
-4.210238785942194834e-03,3.382588241844791763e-03,-9.792350007992085992e+00
4.701898851944610706e-03,7.369404204211026099e-03,-9.790232074014332042e+00
-5.503928166650426043e-03,-1.391525713522611882e-03,-9.796225430305831594e+00
-3.526459168300819479e-03,-1.690698102719244162e-03,-9.797575343798605729e+00
6.926288186657681561e-03,3.314756718904286227e-03,-9.797166776179162540e+00
3.630611658619527140e-03,-1.168368926031543905e-03,-9.801200881166478140e+00
2.583109119800620912e-03,-1.137671393569734350e-03,-9.789557954567635889e+00
8.568855381834144386e-05,-2.415332980554899499e-03,-9.793259558185821945e+00
-2.112875959522174558e-03,-3.630322588993857222e-03,-9.796687869892098277e+00
-1.142816995729973575e-03,-6.807522881125865725e-03,-9.797448323464911013e+00
1.512271568262799157e-03,5.621074417707206707e-03,-9.793913798642746471e+00
-1.400511599779355465e-02,-1.354486348860437731e-03,-9.795620274097361246e+00
1.263450805360479857e-03,-2.639921977768866675e-03,-9.800243137128905602e+00
-2.707398882378465182e-03,4.654662799721053651e-03,-9.796667919979391570e+00
-5.690976812148458228e-03,9.034875322164610464e-03,-9.787277967728719830e+00
9.335326813333435234e-04,5.237689195487687903e-03,-9.800195203155258383e+00
2.277699377212537898e-03,6.053863392660278030e-03,-9.795982298068276251e+00
-2.745454611309016031e-03,-3.868720183818765302e-03,-9.804383804834106542e+00
-2.971521897307744138e-03,9.568085238438148177e-03,-9.791388875557087701e+00
1.699967575873350886e-03,4.426083097009095128e-03,-9.798533011373633528e+00
6.583214926616555614e-03,9.170422937484786971e-03,-9.807114291582751164e+00
2.267772892342894819e-03,-3.503557471255868555e-03,-9.796668671336108858e+00
-5.097769113218869434e-03,-1.182649115532200586e-03,-9.791995446405163506e+00
-2.066189424872066742e-03,1.150562347415950547e-03,-9.800558256818405312e+00
-2.469801891350863979e-03,-1.536690951464797852e-03,-9.793899253730925736e+00
5.853650044340718769e-03,2.114334962867304817e-03,-9.794504091867926476e+00
1.776480696149442115e-04,-4.558244159722573199e-03,-9.789785149497797434e+00
4.400001399492371214e-03,3.081934278843840962e-03,-9.794998971439573765e+00
4.899768070536819099e-03,-2.585856828760273174e-03,-9.799457421058042073e+00
6.592061518393341896e-03,-3.484875272385794601e-03,-9.792514743659308962e+00
-1.111297423660555228e-02,2.499703841490606617e-03,-9.783573888079621028e+00
-3.212493760169126723e-03,-4.144512691960935101e-03,-9.795863137345756755e+00
-1.102506043763128163e-03,1.340599011384261199e-03,-9.792110743739904422e+00
1.486080800715063131e-03,2.477513140108440672e-03,-9.796593632476648494e+00
5.114669117480135502e-03,1.252193878252489366e-03,-9.793637682657687193e+00
4.566423777288607620e-03,-3.437226556683668170e-03,-9.787548515383672765e+00
-3.812822350633242926e-03,-5.905292809115073038e-03,-9.798422546161900115e+00
-8.121328425941553870e-04,-1.639604730777624629e-03,-9.799763056887895729e+00
9.489035769013203642e-03,2.243234252877048928e-03,-9.793104034704414929e+00
2.081108168077167118e-03,2.068962333232223752e-04,-9.796859925778154121e+00
-3.290827722177138911e-03,1.274838963349517532e-02,-9.792212610679879248e+00
6.580168384665702457e-04,3.641755285879955985e-03,-9.795008910971569449e+00
6.494619637357801172e-03,-1.003003598190790012e-02,-9.785316467744840097e+00
-6.667235945378388075e-04,-4.512835597903605729e-04,-9.800213579163806088e+00
2.989435421926144119e-03,2.161118583145787368e-03,-9.792880774009876887e+00
-7.238027199408552347e-03,-1.073542438653952644e-02,-9.792458101437986784e+00
-2.203836961627569056e-03,3.551991145274716738e-03,-9.789625198465857991e+00
-1.697859389154190990e-03,3.104971175549254593e-03,-9.799354025370053733e+00
9.141668264019568724e-03,9.879512476261100885e-04,-9.792612766317601469e+00
-1.395643833059584654e-03,7.378467020364556060e-03,-9.786046034445892161e+00
4.016067748731096121e-03,1.222074338375523533e-04,-9.793515160726327551e+00
-1.148666776228534150e-03,5.371093163852808453e-03,-9.798406916619788021e+00
-1.602008740646586197e-03,1.216180582332670665e-02,-9.793596442859300311e+00
5.911667230888950977e-03,-3.346812832815433160e-03,-9.790457256551782450e+00
-2.933292990532829908e-03,4.572757543949632617e-04,-9.799734756665639424e+00
6.666509256633046561e-03,-2.834867006529833561e-03,-9.794017784880939104e+00
6.053571838855331330e-03,-4.098373958402226278e-03,-9.787594447437623302e+00
4.152287665291921545e-03,4.119921372269934844e-03,-9.787877547720896132e+00
2.118602999833576854e-03,3.551024514285465623e-03,-9.805057832350092539e+00
-2.152957161983505650e-03,-3.689202630445062841e-03,-9.795286734880578550e+00
-5.916339029292537639e-04,5.787385096568863074e-03,-9.798760994029869664e+00
4.441210846615175657e-03,7.213787307990974021e-03,-9.797648005050094255e+00
-3.201667694874391155e-03,-3.053175249832929504e-03,-9.797618932450975038e+00
2.646379214833340489e-04,3.558401985107284907e-03,-9.785713534232289845e+00
3.549341863148673323e-03,-3.405200117107024752e-03,-9.796954240367304223e+00
2.247303163515012702e-03,-2.346523413806775836e-03,-9.784033246708304432e+00
3.963414706863370093e-03,1.457945275800262824e-03,-9.800240709853095922e+00
-4.931088129830323713e-03,5.984568716315191630e-04,-9.788058131714771903e+00
-2.117301803628361592e-03,-5.673556700024636303e-04,-9.790266273918890150e+00
6.267249035107674490e-03,8.749001289126926567e-03,-9.794359432687748779e+00
-4.512326424398072772e-03,-4.471598650471521504e-03,-9.785650032325717618e+00
3.443961238936570773e-03,-4.512068621304682337e-03,-9.792652246085426171e+00
1.461461369350602457e-03,-6.597545581928069766e-03,-9.791191693816140074e+00
-1.414227008482098809e-03,2.715115157034015281e-03,-9.801906418871801918e+00
1.902724518845075579e-03,7.044583490603393075e-03,-9.786494194110014533e+00
4.697641855972865300e-03,1.493515557776896666e-03,-9.786067823397790022e+00
-4.770937024548261261e-04,2.823962851805588477e-03,-9.787069782139704799e+00
-1.064639209077927751e-02,-1.937433669502773006e-03,-9.794075369064202619e+00
3.424640314221526899e-03,3.718209131564732730e-03,-9.787662619477925929e+00
-6.252969457959942252e-03,2.957275881670895674e-03,-9.793336047464599403e+00
-3.108494710229398571e-03,5.034871901904092867e-03,-9.786805083546559203e+00
2.047188935956399322e-03,3.818340703344190543e-03,-9.790259886796356170e+00
-8.254293366526343351e-03,-7.896704692049511714e-04,-9.798617355623083114e+00
-5.266293319851981722e-03,-4.832451024180810760e-03,-9.801356710591226928e+00
-3.493715117030775363e-03,8.619464258087600195e-03,-9.792240242160007213e+00
-2.564198689828427625e-03,-3.652867503352230302e-03,-9.791984141849169987e+00
3.153506416453516568e-03,2.170752867707946045e-03,-9.787055062133148908e+00
4.482535798957461119e-03,-1.489843981245526482e-03,-9.790884583997311097e+00
-1.843771324388118488e-03,-3.564294883155371286e-03,-9.793711824650975117e+00
-8.010727853675837958e-04,6.434117604560916567e-03,-9.803114159626948876e+00
8.412325243889693174e-03,2.686765188004913967e-03,-9.800900114149090570e+00
-3.051855313448690633e-03,-2.051787520772733325e-03,-9.800687321556400988e+00
8.520953196767894894e-03,-1.256478128414248528e-03,-9.795882069836956418e+00
4.143874714921284147e-03,-8.423633462155771801e-03,-9.791103845487418411e+00
-1.277239775672898633e-04,-7.980754054668307701e-03,-9.794042672668336280e+00
-4.809364509290087533e-03,4.988041173043330882e-03,-9.797056872138584893e+00
-4.136843420542989612e-03,-2.682790156987014969e-03,-9.794141739384027545e+00
-5.695181832634444580e-03,5.290231087359065568e-03,-9.803908671685103826e+00
1.320276941483785466e-03,4.713709737337447130e-03,-9.796806115909188151e+00
-7.377131880504842962e-03,2.844921867951033349e-03,-9.800680575572176423e+00
5.372314795516262668e-03,5.537141920269054302e-03,-9.797919316189164007e+00
-6.949302110103515798e-03,-1.009045726509947335e-03,-9.801548855132043769e+00
2.495752771183090430e-03,6.517446376367246920e-03,-9.797010694342999315e+00
3.971064458957610475e-03,-1.333688582645384604e-03,-9.793294442732673133e+00
6.404714889422266459e-03,6.915372985013030702e-03,-9.797270433214068319e+00
-4.139271175675945068e-03,6.135563174953627017e-04,-9.787579210377833405e+00
4.590263270622999513e-03,-1.065841130460831905e-03,-9.797707028665895379e+00
9.430489785204162340e-03,1.653689540757585265e-03,-9.796103522189614665e+00
2.504838700856737779e-03,5.503143410446311107e-04,-9.795035146838580786e+00
-1.823609896608161321e-03,-5.369844017247794692e-03,-9.802053738089174573e+00
4.345521172995271512e-03,-1.422901650040441640e-02,-9.795051663155362576e+00
2.080110811829303033e-03,8.944625348690830868e-03,-9.795693197237319794e+00
4.155987371245774449e-03,2.556140654284555502e-04,-9.789385430167932611e+00
-2.903512302194169448e-03,-3.972360978485941878e-03,-9.792245005630952903e+00
2.665660354289932713e-03,-3.802737014762431773e-03,-9.800821379707617353e+00
-2.470852628398946538e-03,2.459804600054074902e-05,-9.792897435443780552e+00
-3.801373790248243831e-03,-1.525120163858327549e-03,-9.800754218981353461e+00
-5.469202099354448544e-03,-6.375593891572890748e-03,-9.794891787996704124e+00
1.966890274295856646e-03,4.118251739209892806e-03,-9.790167369470912817e+00
7.413564427954835723e-03,-1.686032840810149655e-03,-9.791695711481798625e+00
-3.146089478013443415e-03,-2.749339711408747399e-03,-9.805893219660820392e+00
1.177269551751685545e-02,9.569625292524398807e-03,-9.793383399517722410e+00
1.620494593516391343e-02,1.833757944504106965e-03,-9.795522983382015880e+00
-2.991931223444834441e-03,-1.638328818485824782e-03,-9.805077935391793176e+00
9.381142240138912961e-04,3.357505284631345181e-03,-9.791749404667504209e+00
-7.100855019449902293e-03,-3.939043360815116211e-03,-9.797341179221577434e+00
2.989639497736342692e-03,8.615843997986505701e-03,-9.782762355104257068e+00
-3.209486211727237089e-04,1.995206080283862260e-03,-9.789770109245063523e+00
4.931275061028387793e-03,-4.210875059659380942e-03,-9.795200780426824849e+00
-4.211928888006655387e-03,-1.276316836958020159e-02,-9.798752917146977381e+00
-9.746611171365488283e-03,3.212317563950515750e-03,-9.797108567814550639e+00
2.320002022032946368e-04,3.721617284797411329e-03,-9.798389803466863057e+00
-2.753070576229425977e-03,6.398780909907905712e-03,-9.784005604267880685e+00
1.885949014459508506e-03,-2.650327351340101174e-03,-9.807678501384081926e+00
-1.398280287788988612e-03,6.789176420437120080e-03,-9.793153950577716316e+00
-8.339607067975823938e-04,-3.798047739483482402e-03,-9.783742078298972800e+00
6.911975746457086137e-03,5.649458468046457058e-03,-9.789179826158644460e+00
4.181534932838812911e-03,3.399066934896873091e-03,-9.790956207125264044e+00
2.077446937776062145e-04,-3.781395381945777635e-04,-9.792229621505200043e+00
-4.422900728865205720e-04,-3.106243839034405173e-03,-9.787527191398925908e+00
-1.055667256754600370e-03,2.945031918586102663e-04,-9.799589986174968459e+00
1.150511570467099886e-03,3.585300965284653023e-03,-9.794684579403787339e+00
-8.875577401512961279e-04,-5.039955643201055394e-03,-9.794968847743064089e+00
7.250686979877966204e-03,1.771724368677265928e-03,-9.794858600273416371e+00
-9.148721825927578133e-04,1.904239103845870008e-04,-9.791965725336886806e+00
-5.734670597115410808e-03,-2.310770119566238606e-03,-9.794156480050602909e+00
4.346228984862932250e-03,5.784274197655960882e-03,-9.796416659112644254e+00
6.862759407904942856e-03,4.504924364779645286e-03,-9.791678745615294943e+00
2.699144063265667120e-03,8.621157038216763907e-03,-9.791386996596209258e+00
4.610226776604902169e-03,6.371938196451324560e-03,-9.794976828327474294e+00
-1.318046818572859470e-03,-4.882869355861145858e-03,-9.791021980168308048e+00
-7.922912418768186847e-04,1.258534479599912690e-03,-9.795773521485781288e+00
1.540339034092001302e-03,-3.083876593757257055e-04,-9.790363211989998149e+00
2.050835839054447433e-03,-4.054402844603731924e-03,-9.798217599705004943e+00
6.483402658299256341e-03,-1.623081886774835813e-04,-9.793073618343322906e+00
-3.453534974552122019e-03,-3.292775454395578411e-03,-9.807267026544435495e+00
1.317832312536469262e-03,-3.753642991402151956e-03,-9.798586939677985441e+00
-2.294309819743349608e-03,-4.641509823848645813e-03,-9.794079014165872010e+00
-1.569947582752055301e-03,5.320575205052875851e-03,-9.796480951375542645e+00
-1.445088427227021310e-03,2.839808849629729941e-03,-9.791065559085646797e+00
-7.975904267227705482e-05,8.558135975959915015e-03,-9.796750274880496434e+00
2.065387813578924842e-03,5.608543612616134592e-03,-9.787795265142214873e+00
2.019267690931113475e-03,3.025338053127582007e-03,-9.794485389425272359e+00
5.750394582762314785e-03,-1.414374636080949991e-03,-9.794585168606820602e+00
-8.626408659411846647e-04,4.806003523442227594e-03,-9.786837320351400749e+00
-5.051472518449943560e-04,9.801278597567950057e-03,-9.786465883267339905e+00
6.364234189781345016e-03,-5.293606689967382886e-03,-9.786775546455345420e+00
-6.064568229230257387e-04,2.245275491395612704e-03,-9.795884556400165977e+00
7.204400396444366611e-03,6.220319122408367492e-03,-9.791238491258665633e+00
5.430660515931689213e-03,2.263075962082547118e-03,-9.796673494079591649e+00
-2.432097580767838153e-03,-3.069681717164357299e-03,-9.798445707297537055e+00
3.657280982032625090e-03,3.385051106897588903e-03,-9.792138623368147776e+00
8.237797696197651440e-03,4.485339985027697943e-03,-9.792623364259224417e+00
-6.688906844820383460e-03,2.675326138394348505e-03,-9.790290699563975352e+00
2.767730292918862598e-04,1.139461073123533216e-02,-9.801413638730776867e+00
-4.949728006499339722e-03,-3.578176917097974788e-04,-9.787576155645032472e+00
5.781088497638820975e-03,4.137533658187950093e-04,-9.795050342187161974e+00
1.662153662089014237e-03,9.161400683651423765e-03,-9.799584700282485628e+00
-5.235709370365541036e-03,-3.387913843007483040e-03,-9.798828300996341056e+00
-3.413839544441319828e-03,-1.018697394468932394e-04,-9.790754062490305998e+00
-5.644894119988350112e-03,-3.319705252341432523e-03,-9.794538986994771435e+00
-1.574685733087429276e-02,-7.371126321289504096e-03,-9.799454952865231050e+00
5.375876701158266782e-03,-3.854916427578481200e-03,-9.792905916164588831e+00
-5.920121119699908382e-03,-3.381874399085648200e-03,-9.792336680443270325e+00
-1.245766491980819079e-03,1.332848332195447558e-03,-9.799506989438226512e+00
3.501636828203494312e-03,-7.529275126020323720e-03,-9.790100668336187084e+00
4.163814603162492231e-03,-2.548934585673475958e-03,-9.798616817903820220e+00
3.211399315087907461e-04,-6.384128648403750161e-03,-9.794709893432520076e+00
3.410081350413774956e-03,-2.198839164721283664e-04,-9.797520564918183794e+00
2.113897172135959131e-03,1.271939153144385770e-03,-9.798987630490033851e+00
-1.197229465119699658e-03,8.459169590184672724e-03,-9.798706280671726887e+00
2.916112312248839850e-03,1.429149590561199553e-04,-9.796126031180035554e+00
1.335583525641565643e-03,3.572756046429188467e-03,-9.796109990096947939e+00
7.665041792876269022e-03,-6.419684286593964210e-04,-9.797128616811045632e+00
5.433848219201118865e-03,-1.991337207262430450e-03,-9.788729073471635900e+00
-2.086931436006492831e-03,-6.382319276965964716e-04,-9.797825288712980196e+00
-5.992888423976341916e-04,8.433728953218455268e-04,-9.789044579785286970e+00
1.155606229673604131e-03,6.761369206135648194e-03,-9.791811118248876511e+00
2.805115512531475980e-03,2.787575099342682987e-03,-9.797376747377478878e+00
-3.718529733247345152e-03,3.995356821362166687e-04,-9.799158824838166026e+00
9.363713538942025627e-03,1.324041029122124827e-03,-9.791764842020517889e+00
-7.746839532428904072e-03,-3.015738717177382164e-03,-9.795978950460133561e+00
6.668064625492849812e-03,8.164464960752996006e-03,-9.797218450888101060e+00
-8.230508919073793728e-03,-9.954478415533088084e-04,-9.792493918067146197e+00
-3.791181712861265048e-03,1.052633111079954303e-02,-9.793053626199965223e+00
5.147735366649802170e-03,-1.262291208430608514e-03,-9.796742016655906937e+00
4.033712961589962231e-03,6.759734877298782113e-03,-9.796818298300854266e+00
5.822426423265095402e-05,-4.222194946192968021e-03,-9.789821552400784554e+00
3.086009325573130756e-03,-4.708503022913028413e-03,-9.782902833596347492e+00
-2.346022758856845108e-03,-5.957863431725188893e-04,-9.796017486997174117e+00
2.537789551627822777e-03,-2.108011926841747794e-03,-9.796294316526779511e+00
-5.685121008756645593e-04,1.158686161565523551e-02,-9.801226934593531226e+00
-7.810282000930404180e-03,-4.315372447565858985e-03,-9.800926265220015310e+00
1.538966195766899121e-04,-4.082625768706847624e-03,-9.787411760557313656e+00
-2.657111792865383786e-03,-1.947678615765496748e-03,-9.791965979869662107e+00
1.254431199328882689e-03,7.300171106353502875e-04,-9.784332962298524450e+00
-3.147277094481862846e-03,6.328314638818083315e-03,-9.794738165900671589e+00
6.146639095786386384e-03,9.811790039579666722e-03,-9.790501303280708001e+00
3.528583556702120667e-03,2.155325638154774719e-03,-9.790782148534580287e+00
4.200161869776450514e-03,-1.471825496534683985e-04,-9.794600043834853054e+00
-4.416391490560233474e-03,-3.976680574513623972e-03,-9.796395555755685436e+00
4.461878043026670619e-03,4.022331306207367705e-04,-9.795981596589035334e+00
5.865030117504297334e-03,4.170796424508196876e-03,-9.797771049157315559e+00
-1.144596945358164475e-03,6.398400276368617495e-03,-9.797715768827604421e+00
3.963974714180246509e-03,1.199657792574526215e-03,-9.796024191159519390e+00
5.137572458990875661e-03,3.953032219238009244e-03,-9.790821605091744928e+00
1.121926420513731778e-03,5.505242528864253207e-03,-9.802012585731509020e+00
-1.154861876481802496e-02,-2.138743439915225149e-03,-9.787643491555350295e+00
4.229303286297561408e-03,4.572335861084391578e-03,-9.794713805378870930e+00
2.315710070449159864e-03,-2.140541140649950599e-03,-9.792521303032392765e+00
1.562475285255418914e-04,3.239536522905054651e-03,-9.797384169065393777e+00
-4.115974317239549408e-03,2.262638585985853133e-03,-9.795498791277221784e+00
3.212882476747455987e-03,3.189636012524026446e-04,-9.787849328134559101e+00
-1.578278556983141699e-03,5.466929549071354501e-04,-9.783819523338550539e+00
-6.689412302347632656e-04,-2.563384229035179426e-03,-9.784110009787875484e+00
1.451224529211769332e-03,1.091238589656702215e-02,-9.794071318400057180e+00
-5.777562626984274370e-03,2.594787266123863706e-03,-9.797189809818583228e+00
6.953879029328798337e-04,1.279724951252315512e-03,-9.801996921582707856e+00
-5.659332182385833640e-04,-4.905019267620665258e-03,-9.784772098442486410e+00
5.249841548506463222e-03,3.820374463534832558e-03,-9.796046768865469545e+00
4.631198745106607055e-03,1.035452023064869316e-03,-9.796506121561787239e+00
3.354412757916281143e-03,-2.645570808016677739e-03,-9.796219710448559326e+00
-1.666230022420849130e-03,-3.168887947843965647e-03,-9.800077024931727721e+00
7.031960267371633808e-04,-1.075105343689415974e-02,-9.789895278506278942e+00
1.001712442974718106e-02,1.260478190021312259e-03,-9.783839145536237680e+00
1.190711431053701960e-03,2.872851935062233856e-04,-9.789655521738474420e+00
-5.914366060634656044e-03,-2.258898470525727391e-03,-9.793921815039592360e+00
8.577981492271265565e-03,-5.378540186686412219e-03,-9.798306704489743169e+00
-6.269337379208406256e-04,8.063496543604636857e-03,-9.793895132179155638e+00
2.553528991453980768e-03,8.124631358734648104e-03,-9.787585854137468289e+00
8.790921136308075005e-04,-3.958902094040917669e-03,-9.801906439119624892e+00
3.796851202947226691e-03,4.271217461356719217e-03,-9.799174197525251984e+00
7.246675989615749755e-03,-5.183359910272502570e-03,-9.785787013691988889e+00
5.833780720002670547e-03,1.139356901320987339e-02,-9.789552299881188802e+00
3.520574430502436489e-03,-1.247149137699561736e-03,-9.786753510647491439e+00
-9.869854927627264018e-03,2.533734517432089089e-03,-9.785433023615107473e+00
9.529141456957274190e-04,5.548275206450251941e-03,-9.804571301780407921e+00
-1.153433553187408270e-02,2.455442147213354742e-03,-9.798544731968831911e+00
-6.458352872348859484e-03,1.705939082696778745e-03,-9.792590641409951502e+00
-6.934042794156190098e-04,2.099059628944766401e-03,-9.801330018475256978e+00
-6.214238950951460772e-04,3.809651644400139422e-03,-9.788288820942723234e+00
-6.137826239653062024e-03,1.915933199972391383e-03,-9.786625321659352394e+00
6.276775265920137535e-03,-4.000995678104534575e-03,-9.796559156758721798e+00
5.488906684995069341e-03,-1.878409111213822161e-03,-9.806478029303670851e+00
-8.240146586916893834e-05,-7.382955215664592161e-03,-9.804698577543449645e+00
2.517933397170490483e-03,-4.496726657679523190e-03,-9.796125724081329977e+00
4.394841433368829563e-03,-3.544736252422829321e-03,-9.799041460657130997e+00
-1.837392521691498569e-05,5.745928860436230919e-03,-9.793185602369970155e+00
-3.276449062923577227e-03,3.406646004469931956e-03,-9.792501715159932729e+00
4.548183522755993788e-03,3.915193789095489443e-03,-9.790768094225073881e+00
7.272672079792745319e-03,-5.108409597186138601e-05,-9.791977403407582159e+00
7.333294816514060108e-03,3.692551585210461333e-03,-9.796755891074420575e+00
7.948335690891266889e-03,5.486038982269435434e-03,-9.801299537260476313e+00
8.484508259503360621e-04,-1.136183879044624662e-03,-9.795922145380307811e+00
-4.395272335072282835e-03,1.892249100358205072e-04,-9.790300807927131643e+00
7.267138739336647703e-03,1.706954416622125147e-03,-9.793027580539837018e+00
-7.880725106533823313e-03,-2.048826713722189542e-03,-9.797126998680113275e+00
2.616839744131786282e-03,-2.171627014472571771e-03,-9.792137507873704294e+00
1.135793540122401364e-02,-6.157308976575019861e-03,-9.791480232596203592e+00
6.838963053401219197e-03,-8.209775904168242332e-04,-9.801395221101959265e+00
-1.023908331103870126e-02,4.903796926525447707e-03,-9.794346905714338192e+00
-1.054561713849908305e-03,-4.039059163549165755e-03,-9.791272382632120852e+00
-6.353930643362849795e-03,6.154767859035383199e-04,-9.794584116362647919e+00
-3.978421043472572978e-03,-3.799068120990548372e-03,-9.792610181201595765e+00
-3.744118986419272491e-03,3.788863321163841134e-03,-9.792350070780797111e+00
4.748032202822283394e-03,6.906609683747357530e-03,-9.795154695856018279e+00
2.985607598223055225e-03,3.512194415737593389e-03,-9.797914451086729315e+00
3.346200283829188146e-03,1.088396313657137311e-03,-9.797029954599338453e+00
3.705143131168711461e-03,-5.251392972462450535e-03,-9.802290625120363643e+00
-7.487087707869191991e-03,3.138067857658050075e-03,-9.791320035346609885e+00
9.109932408611976559e-04,4.318584855247480894e-04,-9.792727917890193368e+00
-8.050776448310444262e-04,7.648901462596210087e-03,-9.793841054143898717e+00
-4.023521620693506530e-03,7.066011587396428019e-03,-9.796851024596081814e+00
2.407542520988514845e-03,-2.513799433828007093e-03,-9.797578728170687867e+00
-4.429689605826560468e-03,-5.435090306090633802e-03,-9.796066724982583906e+00
7.882348169188108794e-03,-2.525109123600047072e-03,-9.785269639293689536e+00
1.982259034214770010e-03,6.895526896630171931e-04,-9.798473278347010762e+00
-9.958073521607716666e-03,1.735633693682325004e-03,-9.800791290016919177e+00
-1.994160067164085087e-03,9.223071548668958577e-03,-9.803325280735187164e+00
-4.194117412435382532e-03,3.446943609125300168e-03,-9.792320776394284110e+00
-3.899413416646034958e-03,-1.279010615848800254e-04,-9.803263041478409434e+00
-6.040923871323023407e-03,4.574234212069015933e-05,-9.792604807701138725e+00
-3.015070415416648466e-03,6.814898795527353850e-03,-9.796823119131092383e+00
7.387003390480542490e-03,-1.041250346696102240e-03,-9.786547826187442567e+00
-1.950117977879785736e-03,6.124571382784252740e-03,-9.795240219258174008e+00
-1.133347769143697517e-02,-5.493869980241354416e-03,-9.791746385187403590e+00
-4.116068907668887604e-03,-3.373932370803092284e-03,-9.795077323187603824e+00
-7.579109761008969055e-03,5.962836726500098800e-03,-9.790497538933012223e+00
7.267578845717385244e-04,5.692338489518574025e-03,-9.795973789705197277e+00
8.998574307503789428e-04,4.695703741398826953e-04,-9.785090798564986869e+00
8.984661087896859185e-04,1.754941761676001664e-03,-9.793230045896619274e+00
3.479604964868223370e-03,6.140629579068176101e-03,-9.795858730712147633e+00
-3.914494969856045434e-03,1.338573472793737774e-03,-9.787378389313630578e+00
6.355973093444959240e-03,-2.710344039288833419e-03,-9.791076258731809645e+00
-3.581732126099284566e-04,-1.605616001036115018e-03,-9.791952974247664088e+00
-1.844977256946509240e-03,-4.165792922878759283e-03,-9.800678206475257781e+00
1.007459526576344987e-02,3.597260520549427475e-03,-9.788224881006136968e+00
-5.751473895527039679e-03,-3.753481869909645104e-03,-9.788770816219498627e+00
2.819375826705138640e-03,4.853257457335313969e-04,-9.794025249250383425e+00
-2.000965468259035228e-03,-8.608485454276799259e-03,-9.793410275424193401e+00
-7.290868915934099227e-03,-1.596902657122198539e-03,-9.797911812438675483e+00
-7.465435071862212011e-05,-1.797839593350286300e-03,-9.797480473931909017e+00
8.643690952238306316e-03,3.962633682903132608e-03,-9.795686264131161280e+00
4.909922756895322184e-03,-8.086056622122137980e-03,-9.798022477057870105e+00
-2.808453865463032655e-03,-5.515756912336159876e-03,-9.802802219293416996e+00
-1.260056754045058014e-03,7.795184956343213963e-03,-9.796400591328220386e+00
6.135434520710109953e-03,2.824083127362734744e-03,-9.801552090342783075e+00
2.779197680041884961e-03,4.111107606271884171e-04,-9.786030618062627084e+00
-3.734909137802232097e-03,6.687600366214407031e-04,-9.798089382208152287e+00
1.722042109269671453e-03,-1.889685857033823572e-03,-9.787596080807425380e+00
5.994925591497831958e-04,-6.641985968698794346e-03,-9.805835583676099532e+00
-5.681582853478838076e-04,-3.004227933112327796e-03,-9.794687592253938035e+00
1.546207602819863218e-03,-1.619663722287057774e-03,-9.793803990120126812e+00
2.356553891593361587e-03,2.325824712075300841e-04,-9.789016897809455386e+00
4.683513922905412942e-03,1.079650876923969344e-03,-9.794310226321631063e+00
-3.290896946335852748e-03,-3.971120217393352310e-03,-9.789287027754388859e+00
-5.728508730047871325e-03,4.901847725526894614e-03,-9.791105542549605190e+00
1.613679252848563943e-03,2.187016577040274898e-03,-9.793113677119750449e+00
-4.386438174839661077e-04,-1.781971122256166377e-03,-9.788473020644268274e+00
1.054712154372865196e-02,1.271708774179668155e-03,-9.795810033461707533e+00
-9.187413055694400223e-04,-1.680831836420399990e-03,-9.796195004216027513e+00
2.392236662330892230e-03,-2.332450443215686609e-03,-9.798917328760694545e+00
1.196497899076800998e-03,1.858994592598458900e-03,-9.794891376839851560e+00
5.250015080192294882e-03,-2.189579557383580354e-03,-9.795180917224577399e+00
2.754095818453416392e-03,-1.098842188043311005e-03,-9.786394529832076472e+00
-4.089529552702650742e-03,3.677996778205844166e-03,-9.796024181271951292e+00
-2.983296985532246821e-03,2.907196540837187447e-03,-9.795592655571828899e+00
-4.011857595772170063e-03,-1.426119470420141424e-03,-9.798685364970491918e+00
-4.511996605930554101e-04,4.145236767505192273e-03,-9.787449731835801359e+00
8.145956000963154239e-03,5.716460983701441081e-03,-9.797350424276901393e+00
5.296813359564029634e-03,-4.376121633529669874e-03,-9.793935175344062216e+00
8.554081412257550851e-03,4.149133082778692916e-03,-9.795711786285911771e+00
4.176049236831970088e-03,-1.067328353378410241e-02,-9.798000524026283742e+00
9.650916678406139260e-04,-2.505261997090154312e-03,-9.796124181236420370e+00
-1.202607910109424090e-03,-8.479350161936077476e-03,-9.783398608762766457e+00
7.043654065253814826e-04,-1.941976696420779106e-03,-9.795910787918508333e+00
9.245566710095368124e-03,-2.693723813887202289e-03,-9.790168052579627300e+00
4.199689684140328963e-03,1.469704158691754678e-03,-9.795155865962996700e+00
-3.130379243218632274e-03,-4.605439265203580684e-03,-9.791595442972353069e+00
9.910846973876612231e-03,4.760062534411886939e-03,-9.784884264678050059e+00
4.945779431778956313e-03,-4.783828355557769377e-03,-9.799924671278589017e+00
1.653843723645963791e-03,-7.251331507766883193e-04,-9.796836638112848661e+00
1.734063214726392580e-03,5.484917643070259113e-03,-9.790154006225492367e+00
6.333282539315575679e-03,1.268367222045492190e-04,-9.802776956458899349e+00
-4.515392389937665507e-03,-9.697858955128105252e-04,-9.797752708973556324e+00
-2.890225068534413126e-03,1.813318909795369645e-03,-9.788280715446608937e+00
-8.335729634771932989e-04,1.134003948169918195e-03,-9.786797976161677681e+00
-4.150983677949973520e-03,3.414459149221914236e-03,-9.793739551620266326e+00
-1.396361246877903146e-03,1.059810911862557603e-02,-9.794005254878294764e+00
-9.671867771373089326e-03,6.132546557388862934e-04,-9.795495664462718466e+00
2.892422700737234259e-03,-2.547052511857736054e-03,-9.795203802687185046e+00
-2.358789700696500846e-03,-6.660027760650482492e-03,-9.799342855704100685e+00
-6.458279772159754469e-03,-7.845082045618774133e-03,-9.796026854307013920e+00
3.423258342159928198e-03,7.272680074719008007e-05,-9.795558664597558973e+00
2.565067316176953410e-04,1.559340114568974738e-03,-9.789304695095706776e+00
9.847869829012732140e-03,-2.586668628594608523e-03,-9.787994139014083217e+00
5.017779360789351942e-04,6.380160954955948691e-03,-9.799726876374085904e+00
1.158757646601992972e-02,-4.421311936227865884e-03,-9.790841301213115244e+00
9.679681945793681746e-04,2.234821639904951626e-03,-9.791767026799510276e+00
6.831507146402737707e-03,-2.942603019573429915e-05,-9.793007156728945617e+00
-6.938864119962361542e-03,-5.011322345458750710e-04,-9.797220917110992744e+00
-1.051963726153750138e-03,2.395903040087043936e-03,-9.794319747127419262e+00
3.926521653229822321e-03,6.719550671570017827e-03,-9.796130268924763129e+00
2.015563648491864321e-05,-1.081037352233834735e-03,-9.791605569992070102e+00
1.505620745388048425e-04,1.400063865691864116e-03,-9.794550525579415634e+00
4.170563409341103076e-03,4.584719800960881725e-04,-9.789090909028665521e+00
-3.783133900558358076e-03,-2.259961655785019605e-03,-9.785250119633017718e+00
-4.642862309207013496e-03,3.035318437980793083e-03,-9.794694987201499004e+00
1.182091147234042797e-03,4.073441058056665072e-03,-9.776922797584239433e+00
-1.713376856303614349e-03,-2.895940339542940264e-03,-9.796985039236925985e+00
6.739577555475416600e-03,7.192871314005716381e-03,-9.794862170925568989e+00
-1.512152033076969663e-04,-3.835741687069456167e-03,-9.788793883572038723e+00
8.770255852282315273e-03,1.872992644162464661e-03,-9.796169977485238434e+00
-3.850702742165812431e-03,-1.343892208373442983e-02,-9.799247657561096503e+00
4.932766701642118425e-03,-2.554691142501999343e-03,-9.789310802591089100e+00
6.968110819228135648e-04,5.468620745796608706e-05,-9.791283431543510218e+00
8.587460678959558599e-03,5.375527082019517650e-03,-9.796941135427163161e+00
-7.179147912710016812e-05,-1.006285098355270101e-02,-9.799908013536796858e+00
2.666311222264311758e-03,-3.424798568168538207e-04,-9.797132443886505726e+00
2.737410507182390504e-04,9.003575416904656403e-03,-9.805658711809387640e+00
3.989655085483261900e-03,1.216500618225586309e-03,-9.794767759887918146e+00
2.033649589323819132e-03,-8.751226981061101251e-03,-9.795785151370163035e+00
7.600715493821861082e-03,-2.800565434290379786e-03,-9.796296499418142290e+00
-1.505444113689405859e-03,2.086747786237673832e-03,-9.789092437895854815e+00
-4.533334348957518238e-03,-7.178833970367331542e-03,-9.794822630787370699e+00
7.802520469050013528e-03,-1.466720841541108199e-03,-9.799903784647474581e+00
6.516526145636885280e-04,-7.760555887248173730e-04,-9.795259603389085967e+00
2.213734050080546235e-04,3.716055620721656159e-03,-9.797163612348843031e+00
1.919471531451887123e-03,7.994196946471320009e-03,-9.791848265302405707e+00
-2.764366484754917936e-03,2.242263689148769716e-03,-9.795991539264342407e+00
6.047455745114253475e-03,7.165217653904732429e-04,-9.791186431799440371e+00
9.822055232432942793e-04,1.925747897037193230e-03,-9.795406484581871354e+00
7.620527909214940519e-03,-1.768419271006639246e-03,-9.792153769247336825e+00
7.573390889378565308e-04,-5.108191919888963387e-03,-9.794055142175560391e+00
5.147786824782215297e-03,-6.027967805221277203e-03,-9.803464686596354838e+00
5.337135504357633578e-03,7.156649784771386934e-03,-9.792097232214226565e+00
9.284552713980802384e-04,4.634397372635334217e-03,-9.787029126153582226e+00
6.876443666052265737e-03,-8.366969705285694572e-03,-9.792634915727463252e+00
-1.081152039879397682e-02,4.675548928427855286e-03,-9.786575322531852805e+00
-2.997473548703455566e-03,1.459773931421092311e-03,-9.800393524871999773e+00
-5.918277363732430026e-03,5.233400206408516178e-03,-9.796103790664410838e+00
4.636859801827738874e-03,9.320659233641736402e-03,-9.792748894641601254e+00
-5.232758772179921247e-03,-3.168944322737563598e-03,-9.798971017430702091e+00
-4.249998276152368824e-03,-3.576264215111118160e-04,-9.795787452429241426e+00
3.669541280626373823e-03,3.654066142728491437e-03,-9.784895376607913420e+00
4.437456548551962205e-04,-6.624863303775237536e-03,-9.790545002610979708e+00
-5.865168597164929949e-03,5.328820063590191010e-03,-9.800908463305962215e+00
-7.985891152475462981e-03,3.058352464767142599e-03,-9.795824858234537302e+00
9.515832955299820262e-03,9.152261162648641160e-03,-9.799892345491803880e+00
6.659231820652302888e-03,-6.166129097145244334e-03,-9.789279292090711238e+00
6.162318892730112019e-03,-2.340266149919297163e-03,-9.793537907066724557e+00
-6.927300515061252280e-03,7.640011916935574715e-03,-9.794190472837101424e+00
1.188533776952620594e-03,2.784187262394037521e-03,-9.794175195143179025e+00
-9.169841378139167304e-03,6.727908232711092909e-03,-9.796931655440321407e+00
-2.570141375745217671e-03,-5.191091227766770830e-04,-9.795382861537934360e+00
4.979508333405820858e-03,2.478735956162049416e-03,-9.799078398276931168e+00
2.105383400893584989e-03,3.989466097715369322e-03,-9.797816960727052660e+00
-8.956054199805359509e-03,3.287023847007396540e-03,-9.798324714930833679e+00
8.231642886144044380e-03,-3.984359431001494728e-03,-9.791555665231612693e+00
-1.075890664568618263e-04,6.685120128550409374e-05,-9.790078365764330215e+00
-6.480705796935745493e-03,3.562163340778259479e-03,-9.789720710830879469e+00
-2.716399808619716742e-03,-3.881642006626796152e-03,-9.796964382317387532e+00
-1.941108927242700573e-03,7.580725064867155014e-03,-9.794111749758462437e+00
1.162642391895382220e-04,-8.731981236885586872e-04,-9.798052455130955352e+00
-2.301392189787469789e-03,-5.041225361826334392e-03,-9.800372537319500310e+00
-3.047135738606381646e-03,-2.403237036798228435e-03,-9.796342670551263510e+00
-7.328809607970482483e-03,-7.361195535433242947e-03,-9.795135008404043830e+00
3.509978955942251976e-03,3.009054619203845905e-03,-9.795787216096121242e+00
4.644659301999402683e-03,-3.118648974617507699e-04,-9.802570263370766313e+00
-2.937894418671210036e-03,3.807387156171349041e-03,-9.793488068860058959e+00
5.355340909901233452e-03,5.273990257244199134e-03,-9.793746875042202760e+00
-1.831506351614859730e-03,-3.008910872563601291e-03,-9.793651530036367348e+00
-1.482319993312954196e-03,1.002521576200737438e-03,-9.803209856181251070e+00
5.230243641259413497e-03,-6.489426932338170605e-03,-9.799832823747568256e+00
-4.120423363140424209e-06,2.375371886255366440e-04,-9.794153294530472564e+00
3.243612019956406203e-03,-6.230356782374484037e-03,-9.795253774212779874e+00
-8.997896451090712112e-04,2.426440714740197343e-03,-9.795658465276257942e+00
1.746310871983149365e-03,-3.582222261300274310e-03,-9.795388483458737028e+00
-2.055589295881045820e-03,7.263082256765735975e-03,-9.792604464595148883e+00
7.226378019270810957e-05,2.334730003919500280e-03,-9.795785585371685755e+00
3.032689156999259818e-03,2.680495858443539096e-03,-9.797222470002489914e+00
-3.057703553289945267e-03,1.754177561708136594e-03,-9.796513255533547238e+00
7.576405047495586922e-03,-7.582346535889478200e-04,-9.796814734824209836e+00
-2.453125085978913669e-03,7.209816322478421538e-03,-9.793160388315921949e+00
-4.599408166602053476e-03,-2.717398067381329024e-03,-9.803733120839396520e+00
-8.023304920418742291e-04,-4.433029937696035191e-04,-9.797738435506945009e+00
9.915947202589035434e-03,-2.501228110490835103e-03,-9.787844611642029236e+00
-3.067644863805792099e-04,4.924782784525865223e-03,-9.799403692029757806e+00
5.748477174170788136e-03,-1.884763519387218584e-03,-9.791896209812662732e+00
-5.032132899908484461e-03,-3.464661578431294572e-03,-9.794417083672199098e+00
7.896491955877712327e-03,-2.013262259926580297e-03,-9.788677237842229317e+00
6.739202852012319764e-03,2.725686631176447647e-03,-9.800097042282903459e+00
1.924696699252894782e-03,-4.179111616800477123e-03,-9.796566644914012301e+00
3.141480790536533250e-03,-3.984246916543506337e-03,-9.787553830756127837e+00
-9.534316816752975293e-03,-1.888137522836489399e-03,-9.786508881120111525e+00
4.915545139395433027e-03,2.873284848025708070e-03,-9.799813150619238300e+00
-7.714977413685033744e-03,-3.697489824551502147e-03,-9.797938338485179699e+00
1.433811589315543700e-02,-1.689562611493501806e-03,-9.794708444752048493e+00
-3.804565305978661015e-03,-4.470094308698158159e-03,-9.798447934315403174e+00
6.859909057349621118e-04,1.610505373430944076e-03,-9.790930225164776957e+00
5.825517195978442350e-03,-1.108634054509237757e-02,-9.786226044098725652e+00
5.550968060671799490e-04,1.858763126182930029e-03,-9.801001141066347344e+00
-4.527366080980506705e-03,2.826036918895805019e-03,-9.792316116841201179e+00
6.212463493617692394e-03,-3.698702235182419005e-03,-9.799061915703108028e+00
-6.015366839108565906e-03,2.230833777087667859e-03,-9.796266207147699134e+00
-1.072062917608282949e-02,5.377658331707307025e-03,-9.789056396116531999e+00
1.417516554946022904e-03,-1.953354694867443560e-03,-9.786718426711678021e+00
1.422810803011854974e-03,-6.242414196963953776e-03,-9.790177158645086308e+00
2.693650378746279689e-03,2.680579772471920839e-03,-9.802293563163605228e+00
-1.069005033977844799e-02,2.683721753607275131e-03,-9.800725209327888265e+00
-1.961271638594997736e-03,8.441116759908423323e-04,-9.793949850261363110e+00
-1.292875374691403309e-03,4.670870597988201200e-03,-9.801537948185861993e+00
-2.472004829631288016e-03,2.456776757717091253e-03,-9.790718262765262025e+00
2.033952449158257791e-03,-3.050174946391041170e-03,-9.794003942961992948e+00
-4.331980447163978620e-03,-5.518810113230727607e-03,-9.797621620999017011e+00
1.081962916920742312e-02,3.717808807030792417e-03,-9.794438862912222987e+00
-1.346631614464976773e-03,7.614242797045683159e-03,-9.797450850349555651e+00
3.511573519082697870e-03,-6.107067884480909398e-03,-9.792911003818968396e+00
-8.131748101142255436e-05,3.540461862127467461e-03,-9.792817146672309292e+00
4.210175844013529234e-03,2.781165093655378531e-03,-9.796983665714801504e+00
8.450445594823197213e-05,-4.318116023838561648e-03,-9.790969342056509817e+00
4.701405161309905618e-05,1.340318643919964723e-03,-9.797925992872722034e+00
1.407747754308043752e-03,-5.767607491981184206e-03,-9.793791653927490515e+00
-2.799686109268024331e-03,-7.509901400714219001e-03,-9.798655554881458229e+00
-6.647076120766876560e-03,2.389262904157488966e-03,-9.788428050285563842e+00
-6.220196838729592607e-03,7.982797168931412071e-03,-9.793837312947285767e+00
9.466014391200521004e-04,-7.287284510904628275e-03,-9.790877361658232303e+00
1.566365435259054828e-03,2.977896628791931559e-03,-9.788825948586648451e+00
-5.967482615359789681e-03,3.222435795400384068e-04,-9.794721875220380625e+00
-3.374095939431264683e-03,1.166892401922923648e-03,-9.789578709276518964e+00
1.081658413132852029e-03,-4.337622575567227738e-04,-9.787818079543445293e+00
2.583747513872798000e-03,7.831253351600390988e-03,-9.794847196480857221e+00
7.062751809205626259e-04,-4.594624700693659622e-03,-9.792644955913715421e+00
-1.238143751461801565e-03,1.890452238940999730e-03,-9.791501837518570284e+00
2.738780977560783744e-03,-1.711207881879696184e-03,-9.788719870395368616e+00
-1.218480904465992203e-03,1.053047110162277618e-03,-9.797156943487168590e+00
-1.669935383408979908e-03,9.296858709213897537e-03,-9.788589276105984283e+00
5.214646076335763963e-03,-7.009558729875221827e-04,-9.792760506849552016e+00
2.643036854098891305e-04,-6.888082103609849231e-03,-9.797150612947810089e+00
1.396996102398026345e-02,-2.986296019924516727e-03,-9.794385873288034006e+00
4.553058825873163712e-03,-6.757785412485586146e-03,-9.796153023420062667e+00
-9.916840435753332839e-04,-7.171337697353207148e-03,-9.792979642491419057e+00
4.214219601507754147e-03,1.886387069295462383e-05,-9.799250188224929659e+00
3.154749029094908869e-03,-1.564062796737365063e-03,-9.796076033605391586e+00
-2.219415460848776431e-03,-4.224498292343057673e-04,-9.797354445555537694e+00
-2.341422940714585343e-03,-4.659509616458105095e-03,-9.780725175884212419e+00
-5.622481822685919742e-03,-3.681384835342822476e-03,-9.798856832675813422e+00
1.133278678733671933e-02,3.566604464327892236e-03,-9.793347768749338655e+00
9.741113870396738220e-03,1.346868816613041708e-03,-9.795062396413463546e+00
-4.264969794873959587e-03,-6.322085521129461490e-03,-9.784355092105007756e+00
7.708688377274671138e-04,1.472230354192084669e-03,-9.793354961157760386e+00
4.600137192154321771e-03,-9.581598621214242571e-04,-9.790476683190881602e+00
4.471363756648817286e-03,-3.482852728897214110e-03,-9.789588812346925906e+00
-7.760961041167818101e-04,-8.169893845628183049e-03,-9.794637952461256347e+00
4.160805052359583742e-03,-4.074395750289883794e-03,-9.789844305079455467e+00
-1.935409261037242951e-03,6.422449403132349764e-03,-9.799672290398584451e+00
3.111365954655608522e-03,-6.031632477964046259e-03,-9.788520329041419998e+00
-1.197398657228235285e-03,1.050193333903025328e-02,-9.785935068652285906e+00
5.328542684853897898e-03,1.658372292593166463e-03,-9.808039996996630094e+00
1.431789141457941866e-02,3.668628148860871713e-03,-9.792408568382539258e+00
8.377629006317802336e-04,8.092381774077426777e-04,-9.797810761179215788e+00
-2.794827848402959593e-03,-5.955617520851415672e-03,-9.795122073498548687e+00
4.751353557838180856e-03,-3.547075619476473384e-03,-9.792440790078783763e+00
1.172725457901053125e-03,1.719958632986154758e-03,-9.795203937877770883e+00
7.641179179455195175e-03,4.634453604331017704e-03,-9.799436502051102948e+00
4.809049149852698095e-03,2.887418554554748579e-03,-9.787443437133262591e+00
-6.189187030639476707e-03,-1.818400403764745344e-03,-9.799969527469770014e+00
-1.344296073962006170e-02,-4.514876733774587231e-03,-9.796339963854462596e+00
-7.413874437437893618e-05,7.450824215406248383e-03,-9.791384896253138237e+00
-8.239553272979885379e-04,3.020603132905736073e-03,-9.794681567407316436e+00
-1.058043222950084006e-03,2.661265203523809249e-03,-9.797926281704597784e+00
-1.620286913916415932e-03,8.073729330489503794e-03,-9.790452425764035738e+00
-1.457183839736933334e-03,3.097006929962146157e-03,-9.798686505733554597e+00
1.472603572126368913e-03,3.579478771843149811e-03,-9.797859608978058077e+00
-9.321578537381351726e-03,3.123225823098384896e-03,-9.793246240159250604e+00
1.534977616040733052e-03,2.865015363005665294e-03,-9.784112258339426660e+00
-2.085281315514068458e-05,-5.000751953117090788e-03,-9.793212307903315761e+00
-6.352669473056975560e-03,3.719921974650715335e-03,-9.804585752729797932e+00
-2.053495591490414173e-03,-3.288557476240453435e-03,-9.791254435035019910e+00
8.822458386736717773e-04,5.363940956654203972e-03,-9.798687056797129813e+00
-1.679098157193684030e-04,5.320703979852812147e-03,-9.790455831044804214e+00
