gyro_x (deg/s),gyro_y (deg/s),gyro_z (deg/s)
4.438349943531042507e-01,5.127787849997155201e-01,1.928177727021497534e-01
5.333111932388095999e-01,5.048349505353244560e-01,-1.565661701010582774e-01
4.882115816650031692e-01,5.190954211705675059e-01,-4.826784051339622073e-01
5.436953105312964940e-01,4.753135298660843833e-01,-7.330989419329906331e-01
4.802329717869398551e-01,5.491967280563083698e-01,-1.034321053984915029e+00
4.791923045002896009e-01,5.109238577095872591e-01,-1.351478348068557711e+00
4.916471675720336942e-01,5.039606808928640547e-01,-1.735449424948231290e+00
4.958476799772540411e-01,4.769229136542686986e-01,-2.033181035832122951e+00
4.831284853210159880e-01,4.130463887543774915e-01,-2.345353253126825521e+00
5.283326317115552007e-01,4.836855856762710681e-01,-2.704797980548360403e+00
5.026761233725460798e-01,4.541264854936193918e-01,-2.966526100078652473e+00
4.877978720679088664e-01,4.547944214988381972e-01,-3.293440347868406892e+00
4.693432289583490680e-01,5.384379469024186404e-01,-3.649356286429795038e+00
4.507618491811619665e-01,4.304441354938335351e-01,-3.889750074393932167e+00
4.509203313646469868e-01,4.786271427175925464e-01,-4.197154854627300757e+00
4.259197597336868424e-01,4.873803050365198564e-01,-4.496817111739334294e+00
4.708664648301917333e-01,4.674768381989085619e-01,-4.834101260924801302e+00
4.124790171826102636e-01,4.160261907569001161e-01,-5.190670152439261997e+00
4.214948565684672466e-01,4.429745110013507681e-01,-5.508259497587147280e+00
3.726878718828045001e-01,4.504518083768482284e-01,-5.749486814020741576e+00
4.566040786562498566e-01,4.859043567317607448e-01,-6.115567160494256527e+00
4.668051371640243308e-01,4.184280977325269824e-01,-6.483393777311355244e+00
4.974986059507767733e-01,4.092760856138888959e-01,-6.761572666728095982e+00
4.847793338351760184e-01,4.201304874748713614e-01,-7.074323714953009379e+00
4.563044745265650848e-01,4.436664266320545780e-01,-7.412970166162645036e+00
4.523791959444194433e-01,5.160170307722624639e-01,-7.728498177770483757e+00
4.231581937899877577e-01,4.140965413651919724e-01,-7.957098932064938346e+00
4.171192986545460002e-01,4.112991396323307791e-01,-8.336239445532143577e+00
3.725097343123024984e-01,4.332427866566378460e-01,-8.594970233649778635e+00
3.707330141803484858e-01,3.592709548697721189e-01,-8.975796321929585986e+00
4.246810912018026962e-01,4.041938125117003899e-01,-9.287532997830073356e+00
4.682935884155480233e-01,4.169977477399460231e-01,-9.633716406249021702e+00
4.231416866015992873e-01,4.398880633314717903e-01,-9.881760018684721203e+00
4.554233010157491823e-01,4.121019304875651046e-01,-1.023229036806530345e+01
4.314213304882867916e-01,3.734547569990460669e-01,-1.058781684846444726e+01
4.321039377800854897e-01,4.295690967013398032e-01,-1.085298684663208668e+01
3.799726199268291804e-01,3.538871871789119883e-01,-1.112617620662132545e+01
4.546351318459422863e-01,4.306392305222125350e-01,-1.157640811286387361e+01
3.632784335609652304e-01,3.718371073275814620e-01,-1.176181093789462651e+01
4.709748646621292334e-01,4.036988956895624092e-01,-1.208497212822989830e+01
3.864404476389160514e-01,3.216365166511834794e-01,-1.250673397322885272e+01
3.821455927717823386e-01,3.988918656277100072e-01,-1.282184873731597285e+01
4.269662885821179921e-01,4.051798365267905155e-01,-1.301700693578737855e+01
3.568319068255682569e-01,4.179837973093752379e-01,-1.334384938295431589e+01
4.167694658633591120e-01,3.636587679575866150e-01,-1.364669074003712623e+01
2.817309051206732806e-01,3.529634231066000050e-01,-1.395395057284112639e+01
4.081996627508120978e-01,4.400904600050178361e-01,-1.432438716888385599e+01
3.760230275081095086e-01,4.132039150222912016e-01,-1.465726108079460666e+01
2.978454200743131941e-01,3.667566074053111858e-01,-1.502281374781912326e+01
4.005947321432604125e-01,2.788255063850747506e-01,-1.529641493965889509e+01
2.129966408897780994e-01,3.138792942891758253e-01,-1.558324279880618590e+01
4.276934078476883894e-01,3.032063180985587469e-01,-1.582382838895187227e+01
2.961275382429038872e-01,3.156999327386624810e-01,-1.618936368671183956e+01
3.074884616692816763e-01,3.506945803308741394e-01,-1.652269742552351062e+01
3.765070017817715997e-01,3.528976685013615056e-01,-1.678350036710295967e+01
4.399130040208527048e-01,3.223722893531610345e-01,-1.720535930978934402e+01
3.384425601842299680e-01,3.879951358779687443e-01,-1.745073694391966157e+01
3.267142138137454910e-01,2.626981490244509332e-01,-1.781069310300245334e+01
3.654501043196289323e-01,3.903040337260006432e-01,-1.810986507508570753e+01
3.489893934917326912e-01,3.427239632864486629e-01,-1.838258322960108870e+01
3.223730849184626157e-01,3.621373769139934473e-01,-1.872051316835653623e+01
2.174986878486892539e-01,2.850311496321170091e-01,-1.904035417719344991e+01
3.246933351498019760e-01,2.898572926095500657e-01,-1.934877432025519184e+01
2.796547738568224695e-01,4.098787744682471645e-01,-1.973800497791293296e+01
3.617159723175942809e-01,3.727216297127578515e-01,-2.004827729486247989e+01
3.557303134538488676e-01,3.331441167532656622e-01,-2.034637261555504040e+01
3.003727701872163647e-01,3.222147073092048175e-01,-2.056674289475188289e+01
2.928286749578019044e-01,2.596539985449199950e-01,-2.098172905002114419e+01
2.752257166060807503e-01,2.936114411328247242e-01,-2.123002031153322022e+01
3.226788734994620045e-01,3.393391130965350833e-01,-2.163882034129551002e+01
3.053164553534223336e-01,3.061853758018284744e-01,-2.183706228472412647e+01
2.868243257878789199e-01,3.602307287954092940e-01,-2.213349181758779238e+01
2.869576774327665669e-01,2.661768649582465507e-01,-2.253633882025532031e+01
3.274393341028801752e-01,3.012781928908516704e-01,-2.279433499341910618e+01
3.228103950492356988e-01,2.909125918524657073e-01,-2.303013576330038603e+01
2.628959247743389294e-01,2.194565838659900125e-01,-2.346069641563916619e+01
2.737912496687545660e-01,3.177800524779620939e-01,-2.369884309414910106e+01
2.862084117639916436e-01,2.990914350845784164e-01,-2.409636033120340670e+01
3.015327773990914006e-01,3.117805743159474674e-01,-2.431516376839427096e+01
3.103394054759554543e-01,3.210518969141257783e-01,-2.470914257265838287e+01
2.853824857202443832e-01,2.282059965225366749e-01,-2.500444074319796783e+01
2.742705073919451952e-01,1.714706302151605966e-01,-2.529230129360486856e+01
2.183839512518640780e-01,3.568532672356266588e-01,-2.565323182022951798e+01
2.351996700795304374e-01,2.701138798641304350e-01,-2.599237114328033726e+01
2.575371862823931379e-01,3.083163107188801044e-01,-2.623821425715814470e+01
3.093204213197123242e-01,2.400139992294020308e-01,-2.660443935042933816e+01
1.830491938141933228e-01,2.698133333371445230e-01,-2.692786223810989554e+01
2.313944724977189948e-01,2.489274219363083185e-01,-2.715881714110546241e+01
2.058906788752867256e-01,2.227311946201061266e-01,-2.751427862158098847e+01
2.239937626051996256e-01,2.605853948166802492e-01,-2.786778844546400791e+01
2.826350148709801946e-01,2.332975583349699567e-01,-2.817614902670747412e+01
2.849935982813974200e-01,1.939933297775567889e-01,-2.838812649470751381e+01
2.112347841227103229e-01,2.774613998407626236e-01,-2.875613103854249530e+01
1.560537027859270343e-01,2.632658057099310223e-01,-2.909173166116846332e+01
1.744774146247186908e-01,2.354730555480750998e-01,-2.943277811814166611e+01
2.527248240028404647e-01,2.210138964475183987e-01,-2.984883382614470193e+01
2.244561790407966217e-01,1.789361539307775251e-01,-3.009076788333091912e+01
1.991525048754715643e-01,1.721554145738371233e-01,-3.039489501958152573e+01
1.995430031719404584e-01,2.552028318595919165e-01,-3.074426007400090555e+01
1.839781591561109875e-01,2.577748808020806637e-01,-3.101855483978797778e+01
1.528262161641469330e-01,2.115354961601035033e-01,-3.133022507728283657e+01
1.846016427623067835e-01,2.280362048872004999e-01,-3.170988838662429288e+01
1.968317082365656778e-01,1.534654206505308149e-01,-3.193954691687086722e+01
1.966299432379861878e-01,2.278882103489111022e-01,-3.227527071163152783e+01
1.698755764453097894e-01,2.169686801235451157e-01,-3.245538998328703428e+01
2.497750135178093411e-01,2.444038192889263494e-01,-3.294499480836468308e+01
2.670728730494677516e-01,1.924370470553530554e-01,-3.326409691218684372e+01
1.624088410152022821e-01,2.293145049463788387e-01,-3.365635602165473017e+01
2.048701798302644816e-01,1.609316064003429858e-01,-3.386784924949478182e+01
1.523615206389836996e-01,2.117977661361387653e-01,-3.414376559512599130e+01
2.364894741515674303e-01,1.666657636762650108e-01,-3.449971908106765994e+01
2.263753526489501178e-01,2.235592611239460015e-01,-3.482578821254116974e+01
2.046242089418116028e-01,9.428738690999310945e-02,-3.514064980582620024e+01
2.642835227475442417e-01,2.112734858920519154e-01,-3.542451986974934641e+01
1.619704816972728223e-01,1.547425206059714342e-01,-3.580538518166822826e+01
1.154010381929952977e-01,1.989636838259322138e-01,-3.600382660641104593e+01
1.765742271241656780e-01,1.426081927626493828e-01,-3.630366330042712519e+01
1.279653786580799979e-01,1.757883255310994375e-01,-3.631844436642471408e+01
1.810731564278921235e-01,1.657310131255883279e-01,-3.662735432913169120e+01
1.789706252168445366e-01,2.062723953483337480e-01,-3.662783618373780570e+01
1.068598241163421225e-01,1.754941856908087128e-01,-3.691153128009499795e+01
2.123641389194211304e-01,1.334329552496857085e-01,-3.687573647661278642e+01
1.562140192665522620e-01,1.021617965143737233e-01,-3.695600979572915179e+01
1.586469328982780258e-01,1.746651677513219036e-01,-3.686900650434874649e+01
1.804134007929367178e-01,1.992436764549149752e-01,-3.687907060693765970e+01
1.657456572341090562e-01,2.274246799126394547e-01,-3.683883928726520907e+01
1.612346287738217754e-01,2.216694640413229000e-01,-3.686439466690742961e+01
1.862555820192847988e-01,2.504228957161411806e-01,-3.674004109559020748e+01
1.146252577849240090e-01,1.330459856453762302e-01,-3.670232716172634468e+01
1.128154885373856137e-01,9.297624888529656961e-02,-3.654678084338450361e+01
1.242363525743175323e-01,1.702872709242423122e-01,-3.651863799952342049e+01
1.241504616391706783e-01,1.801508779871011656e-01,-3.644553056157425175e+01
1.578391884365540898e-01,1.164191886867654707e-01,-3.621159278866174702e+01
1.632924111472759676e-01,8.847979428373478616e-02,-3.616381404120203058e+01
2.039443928834320796e-01,9.647733224493278137e-02,-3.609760869391740812e+01
2.205829470519411473e-01,1.396114328557535589e-01,-3.597917339967434458e+01
2.286922683656357203e-01,2.032524311849812915e-01,-3.571399143779957797e+01
2.379409435999793321e-01,1.565120280710627088e-01,-3.566252494477977564e+01
1.026633727917444783e-01,1.518004400459294911e-01,-3.561173139283068423e+01
1.359037444708535436e-01,1.569299319874024601e-01,-3.534850193644593475e+01
1.325753058544545393e-01,1.433591249915179555e-01,-3.528641189969731329e+01
1.471091557123523352e-01,1.793908699808791085e-01,-3.505693027559372865e+01
1.545195199132781139e-01,2.245886790531851362e-01,-3.493124571792907318e+01
1.586398197999856485e-01,1.626782603944640360e-01,-3.465827528448211581e+01
1.621286708341126703e-01,2.822275731169076596e-01,-3.461235839738562703e+01
2.217080936516943601e-01,1.591215984851039045e-01,-3.443650003013833327e+01
1.749166444999842862e-01,1.574780739444100186e-01,-3.425755433322493815e+01
1.822445800948866712e-01,9.077241519045661788e-02,-3.418990512552657890e+01
1.678138282203164577e-01,1.824254078229248510e-01,-3.396333208481625832e+01
1.971065223452558857e-01,1.937359881570011322e-01,-3.378659801241312266e+01
1.019320381690239363e-01,1.669400978793863510e-01,-3.357182672937904044e+01
1.757920210058999955e-01,1.415331015276639348e-01,-3.348598778740095838e+01
1.531896088131759204e-01,2.190339832781379170e-01,-3.328090941905420408e+01
2.087752337666783919e-01,1.133842792277771627e-01,-3.313946396390210936e+01
1.998323810444769810e-01,2.020500733334508747e-01,-3.302134719032621746e+01
2.523210346227995338e-01,2.652977964591716753e-01,-3.280351991151430013e+01
2.122294510486948116e-01,2.063230840895536322e-01,-3.266067894649879833e+01
1.768007223138494122e-01,2.145290002866460100e-01,-3.248454904839432089e+01
2.010691291449063223e-01,2.363450102787415796e-01,-3.230430791541211022e+01
2.391756310185143564e-01,2.188723823239611677e-01,-3.215971118466043066e+01
1.982827725580409151e-01,2.738956959230228194e-01,-3.200264813129081176e+01
1.821475003300863371e-01,2.574949446960637101e-01,-3.176278260456667013e+01
1.285180659378145351e-01,2.257115997488823578e-01,-3.167990329027708185e+01
2.087171664224452827e-01,1.532447228621121316e-01,-3.144546290420730017e+01
1.669709019621898327e-01,1.652521601439849996e-01,-3.131531526596078407e+01
2.781276114622506235e-01,2.166673630415984486e-01,-3.113904654255903992e+01
1.849599829354272029e-01,1.463083673302186249e-01,-3.098110683979163227e+01
1.879260174135912731e-01,2.404845928366624586e-01,-3.078805579220636446e+01
2.389811784230647107e-01,2.583781928238139125e-01,-3.063936228301367493e+01
1.951741957011676465e-01,2.059043302455582369e-01,-3.046518826762764576e+01
3.242999908284263655e-01,2.222399081827386436e-01,-3.031382544688858260e+01
2.890861177095133128e-01,1.812194652347261237e-01,-3.018371360737541309e+01
2.216509101837319806e-01,1.886386197473142734e-01,-2.999744619345101881e+01
2.464674151716526040e-01,2.060468104031636660e-01,-2.988777171791431542e+01
2.119379909315216026e-01,2.597927794596295858e-01,-2.963023438307680379e+01
2.680049082597879551e-01,2.028971313698327283e-01,-2.952779874610071431e+01
2.492989596319427348e-01,2.328613815014229371e-01,-2.931714557830562384e+01
2.647411067008242913e-01,2.489627726670351482e-01,-2.917984329073674132e+01
2.481962217916834634e-01,2.581800925402110702e-01,-2.914429455986494943e+01
2.374526110418722080e-01,2.337656103653984185e-01,-2.893954255680228727e+01
2.127905863556378285e-01,1.263506639159916456e-01,-2.868285537577264677e+01
2.128511841426498907e-01,2.369063041169756911e-01,-2.859763209878281387e+01
3.193014289252610327e-01,1.806138235117430990e-01,-2.849050496233719443e+01
2.640893256328562533e-01,3.190938029537984666e-01,-2.829998463296996292e+01
2.602714514752796915e-01,2.206579768178981993e-01,-2.817216173550301761e+01
2.449733509284601207e-01,3.130982701712167748e-01,-2.794411802868041761e+01
3.003332897077487518e-01,2.458317726460503838e-01,-2.782786991609790661e+01
2.810608527217164365e-01,2.830447217072520338e-01,-2.766764797040590906e+01
2.690045547484660737e-01,2.156495381290582380e-01,-2.751692503282464841e+01
2.847090088565807919e-01,2.167246272090638803e-01,-2.741940609010525165e+01
2.363503967037274833e-01,2.759382696457188255e-01,-2.726305904139892178e+01
2.285983692956573832e-01,2.589843148154269414e-01,-2.717436674214291159e+01
2.734766964062606553e-01,1.977354318758331730e-01,-2.697328855389311997e+01
3.029645647003017528e-01,2.128649540882938118e-01,-2.686123169394071297e+01
2.104434915157859243e-01,2.123850198069766881e-01,-2.664606648987697923e+01
2.764392086605145238e-01,2.130453535378273588e-01,-2.659182322517898811e+01
3.084841442123251731e-01,2.826478642415296560e-01,-2.645470506399544774e+01
2.979413997762899724e-01,3.130484296347596507e-01,-2.625921975230005856e+01
3.341390284390001741e-01,2.154720308304302057e-01,-2.607466123966083771e+01
3.142111530988841439e-01,2.271501309996554197e-01,-2.597009403213587930e+01
2.707050819763950900e-01,1.957559023659014852e-01,-2.583283490236734536e+01
2.205096186064804398e-01,2.524137021110987589e-01,-2.572817120702115190e+01
3.245837015831837813e-01,2.490135905218534007e-01,-2.556036418977938851e+01
3.282023274706871163e-01,2.915907643825256801e-01,-2.545601900512167148e+01
2.422847608127625951e-01,2.627636860028170762e-01,-2.530009937464770076e+01
2.972271071611233828e-01,2.953227996724728244e-01,-2.517607087629200890e+01
2.690266141536680200e-01,2.182607684022799532e-01,-2.504797677604846129e+01
2.551681896178719655e-01,2.800362587656642921e-01,-2.485668371579417268e+01
3.297859978928731617e-01,2.480023473393017930e-01,-2.474682682346418972e+01
3.109389904308679231e-01,1.922082942268959760e-01,-2.462837029117335774e+01
2.015282998214922017e-01,2.070648466589908865e-01,-2.444974679767537751e+01
2.377416252986609968e-01,3.308007105871053621e-01,-2.437980673081529304e+01
2.727571975962806428e-01,2.380211517926256459e-01,-2.422126689083345141e+01
2.385640188196763156e-01,3.026617522872927513e-01,-2.412101847395096144e+01
2.396808164942193231e-01,3.170276699623476024e-01,-2.396380167364388569e+01
2.468367962274505556e-01,2.918031364899283941e-01,-2.385657825690107003e+01
2.114804277243156061e-01,2.339996620880052114e-01,-2.371580259869141827e+01
2.689664537060053595e-01,2.742355222672490656e-01,-2.350105384165251365e+01
2.605165477611297020e-01,2.101680999747850276e-01,-2.346311007859825182e+01
2.164242507356132494e-01,2.655315068985932281e-01,-2.329435319288520034e+01
2.041952959600548123e-01,3.012735833039493216e-01,-2.326359090414570474e+01
3.274669083607629760e-01,3.008826929319219357e-01,-2.310166364275540829e+01
2.442774983427845048e-01,3.135162054010495747e-01,-2.292716581751410132e+01
3.138725281497826147e-01,2.823993840010039502e-01,-2.284878067448983785e+01
2.566766225624878550e-01,2.144784557251079027e-01,-2.269715237264027863e+01
2.582804577442478489e-01,2.287664855908514150e-01,-2.256072743881156484e+01
3.249939547961879227e-01,2.630575710085148455e-01,-2.235622399713594532e+01
3.235519769887401642e-01,3.055926908975429290e-01,-2.235677667724672446e+01
3.313033470809167991e-01,2.696270443755400814e-01,-2.222542688040120140e+01
2.747407135589739480e-01,2.856683656373779634e-01,-2.205257415953602873e+01
2.360674534550111781e-01,2.448959138148053549e-01,-2.197370968526939095e+01
2.732934163660919458e-01,3.209945366351427132e-01,-2.186033091923800242e+01
3.517762130978354662e-01,3.293476855200502262e-01,-2.177640849596395256e+01
3.048643301739074052e-01,2.988758387769955838e-01,-2.166609296415527908e+01
2.802647104985567794e-01,3.328172753995476962e-01,-2.150634419115622009e+01
2.509173694726763437e-01,2.839648914502458932e-01,-2.142094629500737923e+01
3.130512898839586944e-01,3.058537479086504418e-01,-2.133099529646607806e+01
3.177977229629274647e-01,3.316289502002462974e-01,-2.119920572446729068e+01
2.412050470646253386e-01,2.978168768517022724e-01,-2.108810481941847215e+01
3.043095299585963920e-01,2.763703440927562371e-01,-2.093300357805273393e+01
2.505728853195337003e-01,3.268573649736769005e-01,-2.084510375428459383e+01
3.460053023657719828e-01,3.189136902763447523e-01,-2.071546674725241743e+01
3.343263069504254781e-01,3.030895578383507316e-01,-2.057240140714553789e+01
3.413390564458615994e-01,3.106861857239701652e-01,-2.051006192371315251e+01
3.647625045384575437e-01,2.962376383295949878e-01,-2.031695351701123542e+01
2.433083958809231229e-01,3.072375261147325398e-01,-2.030132735016408319e+01
2.217835063732052359e-01,2.863794981958754371e-01,-2.007231240462881061e+01
3.428626810345147269e-01,3.431818314482424359e-01,-2.002347126021114221e+01
3.055329293997970375e-01,2.729921698464583546e-01,-1.995772101423398937e+01
3.250429417133098853e-01,2.983010332913297868e-01,-1.988641867936942020e+01
3.493975276437123467e-01,2.571097623677988109e-01,-1.971918828335574148e+01
3.774178060876272611e-01,3.541916522168818138e-01,-1.967160967173393615e+01
2.952268482226473312e-01,2.605188587071052275e-01,-1.946323755647173925e+01
3.423277983252174250e-01,3.676065938331993799e-01,-1.945338308743306399e+01
3.734784890578481953e-01,3.235999823990431401e-01,-1.925905144675571279e+01
3.297108466880861455e-01,2.825085325013856896e-01,-1.922552148201304689e+01
3.326630060506978737e-01,3.388095759604511925e-01,-1.916534954100634991e+01
3.686557005676582288e-01,2.874493379912269608e-01,-1.898475827535269644e+01
3.318763426407010941e-01,3.511285358616100249e-01,-1.892107483692693393e+01
3.623048928925985956e-01,3.101092452652223774e-01,-1.880368729113426340e+01
3.083484039594229231e-01,3.329827230437492069e-01,-1.870832545001842107e+01
3.750007753678043509e-01,3.407673592219819247e-01,-1.865176157061170414e+01
3.550806774223642659e-01,3.034226178218984993e-01,-1.844713330258007389e+01
3.079384124346087881e-01,3.575304286248655039e-01,-1.841371640318005021e+01
3.015563946557123232e-01,4.058153704498868586e-01,-1.828695313182320703e+01
2.600674010808538550e-01,3.122182242952935005e-01,-1.817453503280456673e+01
3.214627472667125896e-01,2.661052693590106877e-01,-1.807126064605252225e+01
3.822854865384070489e-01,2.703484366915759884e-01,-1.799430675228259702e+01
2.997621421669769970e-01,2.931125416444577136e-01,-1.794819788291984963e+01
3.091008022525266186e-01,3.654280376180387147e-01,-1.784661776600089667e+01
2.786164558846775385e-01,3.138363285249256007e-01,-1.770487541139020138e+01
3.757025789957152417e-01,3.071333899142541513e-01,-1.760632108765533133e+01
4.358087287740468052e-01,3.073082688872525448e-01,-1.753691682411194108e+01
2.984582851146636018e-01,3.479193939126379309e-01,-1.736917038723620266e+01
3.290907547994225690e-01,3.842139681381291916e-01,-1.736527164871209905e+01
3.771277375775219931e-01,3.171532495396576223e-01,-1.722931975517370518e+01
3.634677879615925700e-01,3.527740240764626889e-01,-1.709250006003533784e+01
3.430419239865847292e-01,3.261577566858215871e-01,-1.702855746837684592e+01
3.070096553080670088e-01,2.857825404222786858e-01,-1.695733190411878866e+01
2.899345693419763115e-01,3.174243199375188507e-01,-1.687368359135594531e+01
3.656514112614830392e-01,3.626860270398990505e-01,-1.677479116679442228e+01
3.511286278188427423e-01,3.233385783369973621e-01,-1.672530854786231913e+01
3.729455211278817073e-01,3.862274633122777523e-01,-1.657123614853354709e+01
3.318121697014183580e-01,3.233616954944206756e-01,-1.646194476355147174e+01
3.518756082382705763e-01,3.656305346281686908e-01,-1.638191355521687953e+01
3.407496254683209380e-01,3.502052966852589044e-01,-1.633657311305319126e+01
3.380657517946799029e-01,2.956765883184719890e-01,-1.622931625168104475e+01
3.316159312838145579e-01,3.249682899075037046e-01,-1.610050369721298935e+01
3.669779747964905248e-01,3.614453247773576905e-01,-1.607787557186498262e+01
3.303878607370442366e-01,3.499312274890709062e-01,-1.597070593071270217e+01
3.929016209009945637e-01,3.758264453724567411e-01,-1.593241602048094308e+01
4.119768845873872376e-01,2.869164738440401763e-01,-1.578740968024333036e+01
3.517736493479421966e-01,3.574935917313871725e-01,-1.576132685607991135e+01
3.182012018654095664e-01,3.604262010671853145e-01,-1.558314115625336527e+01
3.006719463277698345e-01,4.243034458275375398e-01,-1.564859482625427312e+01
3.286430729348044366e-01,3.442910355739799977e-01,-1.546316328726562439e+01
2.612171270327693917e-01,3.605601411602826767e-01,-1.539115412419130280e+01
3.792337701146577533e-01,3.225902429441984132e-01,-1.529191596988847124e+01
3.370078641241531781e-01,3.926076822509877995e-01,-1.528170803281629020e+01
4.361684645755762868e-01,2.871882996720240278e-01,-1.512507756370373535e+01
3.394045367734470631e-01,3.675141952722720262e-01,-1.506022678745858023e+01
3.495225829992279487e-01,3.161906552325255415e-01,-1.484836458659109937e+01
4.381118990944614100e-01,3.750865573352713533e-01,-1.495084119704996439e+01
3.466889851962856595e-01,3.584489199278427796e-01,-1.479096132666930785e+01
3.338775814867173120e-01,3.380378389842940701e-01,-1.472657251217470176e+01
2.836733706714175129e-01,4.013322231088273240e-01,-1.465385796034609278e+01
4.060414969539241636e-01,4.055065588144503574e-01,-1.457566018782849149e+01
3.673655537217666578e-01,3.665700817808682510e-01,-1.445720858171812395e+01
4.004571573241925697e-01,3.426935772129816593e-01,-1.442527182017687437e+01
3.596527565061529153e-01,2.822909193464172573e-01,-1.436349551484930309e+01
3.814983195369180402e-01,4.432986445194468383e-01,-1.423614321449999309e+01
3.892365508683371389e-01,3.134309143496865069e-01,-1.420676539852100717e+01
3.283180843566448348e-01,4.288410020690088253e-01,-1.418634882451202905e+01
4.109548900642249203e-01,3.046158865048886888e-01,-1.403287510889692591e+01
3.234157362311016470e-01,3.366603959424144255e-01,-1.385543768751288596e+01
4.067516000654277097e-01,4.279267153572302584e-01,-1.388887222154512813e+01
3.879917731675301407e-01,4.260440117313749053e-01,-1.378024773431631012e+01
3.644490513255852493e-01,3.324539925499125359e-01,-1.373182783549829367e+01
3.189477512196087772e-01,3.700098213157300697e-01,-1.366023905659562665e+01
3.854256729671795556e-01,3.557405651196844931e-01,-1.355635312046573304e+01
4.252097079396225943e-01,4.498391132301901574e-01,-1.341315099431614577e+01
4.026469533686033442e-01,4.680087607311496645e-01,-1.341452462169129412e+01
3.889774505356277667e-01,3.694478032128706846e-01,-1.334128316245725721e+01
4.053427659698470298e-01,3.768439262602890083e-01,-1.329782036495299558e+01
3.521056232942755271e-01,3.318406529724679532e-01,-1.315220176919538986e+01
4.086726350428167009e-01,3.174223634900806279e-01,-1.320786690364125526e+01
3.988665935865715051e-01,3.759758178004323215e-01,-1.312585399583044854e+01
3.564502800769087099e-01,4.088429275086645220e-01,-1.299345450425585646e+01
4.438144618866352031e-01,3.410078451281015610e-01,-1.290613667738591097e+01
3.470670708744377220e-01,3.910316153662961591e-01,-1.290295871532172711e+01
3.389977777424557082e-01,3.817281635911380921e-01,-1.279945728559185625e+01
3.454235333669445907e-01,3.290354651627996896e-01,-1.272104734121896641e+01
3.875637249048751176e-01,3.774421438477312263e-01,-1.263181707199397685e+01
3.598575235536478067e-01,3.615312330942782038e-01,-1.251029154795434195e+01
3.119823908230424103e-01,3.609286038604914704e-01,-1.251471416867922670e+01
4.385499739383448836e-01,4.111009862469617304e-01,-1.245225198735568739e+01
4.580796655527443195e-01,3.809527137167864064e-01,-1.239059656353777683e+01
3.668011827953928106e-01,3.038685558254444752e-01,-1.230348046126299799e+01
3.548800496852065334e-01,2.788485444413880687e-01,-1.216385752150543098e+01
3.708645096368698435e-01,4.561107895216824915e-01,-1.221482623595298023e+01
3.143876477005047021e-01,4.068008574619696449e-01,-1.211815027636095721e+01
4.346820935648749162e-01,4.077305289088414830e-01,-1.198148037531661281e+01
3.764181122455719786e-01,4.002016406499458445e-01,-1.201778243142993752e+01
3.553487074789963840e-01,4.352746628397902717e-01,-1.191662396597240026e+01
4.267560560117131807e-01,4.206724149098476362e-01,-1.184585506618337369e+01
3.759170844570264292e-01,4.354253456046586201e-01,-1.182696148810701509e+01
3.601131745169231513e-01,4.576203198447028608e-01,-1.164929525883641581e+01
3.615684262685600614e-01,3.770203949583561531e-01,-1.166312009324612475e+01
3.784561024344510471e-01,3.639380145426904245e-01,-1.156120666915836992e+01
4.297160182183265564e-01,3.651508327629613970e-01,-1.154082550417335717e+01
4.229233220297656803e-01,3.754162920709500084e-01,-1.142059612813439884e+01
4.421297789642893994e-01,4.539210839993375046e-01,-1.145797354589219985e+01
3.959444502459537607e-01,4.218988306778454489e-01,-1.133582835572747527e+01
4.538841064329905972e-01,4.306597957566370427e-01,-1.129464221390896306e+01
3.783251621073712156e-01,4.358637298194047993e-01,-1.118502797122690495e+01
3.392497648910667851e-01,4.511307398467998553e-01,-1.121175000928018939e+01
3.479817502127487971e-01,4.314289416336877236e-01,-1.111304150418771286e+01
4.393320155341526312e-01,3.789058297422154831e-01,-1.111828055695853479e+01
4.161956291543160158e-01,3.840050686230008226e-01,-1.089998018097953469e+01
3.011115905338242471e-01,4.061481465572552296e-01,-1.083091158051384006e+01
3.524410372805263925e-01,3.994203473281183747e-01,-1.087547170582929290e+01
4.547570298323907467e-01,3.903159472085964143e-01,-1.072676069332372428e+01
3.592649274648065383e-01,3.850311076224882667e-01,-1.072783653788309266e+01
4.479001672182484350e-01,3.902642051596842965e-01,-1.065819536777316046e+01
4.758424129002103431e-01,3.772835342871516673e-01,-1.060578627580670208e+01
3.413708143438651255e-01,3.971522123073807364e-01,-1.050145890711280394e+01
3.930637234017975712e-01,4.138451234886006413e-01,-1.049420406570358821e+01
3.457109779057776500e-01,3.844486880903462689e-01,-1.042078514666557965e+01
4.073770073238919265e-01,4.429874625046570369e-01,-1.036810704756913637e+01
4.206122648422356836e-01,3.814988457199292582e-01,-1.025121023103001328e+01
3.963407128057398476e-01,4.131013056047842524e-01,-1.029150643450565461e+01
4.441419783361961193e-01,4.100113906741258973e-01,-1.018887365000392542e+01
4.334541595517834023e-01,4.105564580019797072e-01,-1.016268810520898036e+01
4.036442752539680101e-01,3.456623497019207236e-01,-1.013668906521563251e+01
4.514038096399290989e-01,3.079886423732153822e-01,-9.945651622734185793e+00
3.343226035129951978e-01,4.348602031983644367e-01,-1.005104448464297207e+01
3.921720975607249082e-01,3.932218384409076339e-01,-9.964116967810142000e+00
3.049170454731068292e-01,3.577121810102341648e-01,-9.942325176916659402e+00
3.819531474663201975e-01,4.654610937240316049e-01,-9.851386520380811973e+00
4.309997092423176746e-01,4.564135211157749894e-01,-9.757772215720093456e+00
3.909295789853790004e-01,4.217892888269320628e-01,-9.769999950309093961e+00
4.212329434391338667e-01,3.422174185790667345e-01,-9.662434757771096727e+00
4.170192813784559527e-01,3.710806356642440962e-01,-9.578964046666023080e+00
3.477598378761765363e-01,4.025546821584926604e-01,-9.642193178089362604e+00
4.634637464878780810e-01,4.229453719197620587e-01,-9.446729270362594022e+00
3.769545921223882989e-01,4.789806594934644113e-01,-9.454347829638805933e+00
4.323344302941996009e-01,3.533622943861082777e-01,-9.390848695726260686e+00
3.958555430432393885e-01,4.440820893674946590e-01,-9.356297531754167451e+00
4.210392149463969558e-01,3.722164998943574554e-01,-9.346825168016625440e+00
4.162367260178714834e-01,3.798659801642559897e-01,-9.226128616256374926e+00
3.420256090730237619e-01,3.743603743627241798e-01,-9.111955181178608143e+00
3.766114866414202456e-01,3.895440748555936694e-01,-9.154211137546125698e+00
4.092416956967949715e-01,3.445749372313727799e-01,-9.120685850532542105e+00
4.715514544569051059e-01,4.314737684497393921e-01,-9.025151611908675875e+00
3.891377777603571286e-01,4.603081243509498655e-01,-8.966862132157684684e+00
4.362323677380582354e-01,3.810440546025588016e-01,-8.954563136985218108e+00
3.735265263122873880e-01,4.428080598830660963e-01,-8.857180989211533628e+00
3.780648343585192861e-01,4.173631531033760167e-01,-8.822450288795005591e+00
3.625375920450652489e-01,4.487932446524439123e-01,-8.795001793858181927e+00
4.389686674103921993e-01,3.940905371282751313e-01,-8.771431769152282953e+00
4.966411040173097646e-01,4.187116263900149127e-01,-8.649204824606304243e+00
4.678498075146427237e-01,4.038610857908828677e-01,-8.666762911007852566e+00
4.003428820800532528e-01,4.363559641303668690e-01,-8.553675926897506443e+00
4.710034715013866058e-01,5.151750121409971461e-01,-8.580067035202054271e+00
4.266264030385369943e-01,3.526760409784230332e-01,-8.401995990498614120e+00
5.290042241858354810e-01,4.568740134811582476e-01,-8.433491449157260789e+00
4.460315134054286257e-01,4.833092627324473423e-01,-8.314150550450424504e+00
4.555411782103997442e-01,3.510994768579455139e-01,-8.353314222416745594e+00
4.728772276285782006e-01,4.838606452453790285e-01,-8.299028949780428377e+00
3.905803383192451017e-01,4.860650876340523174e-01,-8.266545116708240215e+00
4.357906241728154995e-01,3.617869463948888975e-01,-8.203449248837863195e+00
4.435804379478520687e-01,4.234822394781224686e-01,-8.170360537591164984e+00
4.601618060067781957e-01,3.599979299903032226e-01,-8.110798355081568545e+00
4.292928194491539839e-01,3.970859396871447289e-01,-8.047258057283725563e+00
4.524031068732444205e-01,4.221851610934379551e-01,-7.968228801032897657e+00
3.364226381355257534e-01,4.270298846348236643e-01,-7.968180196247642399e+00
5.072584382312133044e-01,5.008972427029262375e-01,-7.887046689823073109e+00
4.788526459233950483e-01,4.307486782730983732e-01,-7.930163556918088830e+00
4.510374997944022746e-01,4.030046789467853774e-01,-7.822791447363162121e+00
4.847277551060074074e-01,4.533918703520164462e-01,-7.795209089970824401e+00
3.580217701257190077e-01,3.739701004819295238e-01,-7.687097912462168559e+00
3.900649146291243485e-01,4.393445268417633942e-01,-7.720538400329385098e+00
4.043874507133821128e-01,4.278405413895999820e-01,-7.730537976158898594e+00
4.948036073150102188e-01,4.492664904760072520e-01,-7.663086782954959375e+00
3.963556288818292916e-01,4.099561018315006633e-01,-7.573727776099423714e+00
4.365921898680818480e-01,4.738275443137567877e-01,-7.524587942537241503e+00
3.920240776827638718e-01,4.188834150550044266e-01,-7.447724099460411473e+00
4.287657627027005036e-01,4.352235365937451306e-01,-7.377914968285727682e+00
4.041616282174396169e-01,4.177750163607916734e-01,-7.417462952214951777e+00
4.392624200249270472e-01,4.704788224457579493e-01,-7.362956388827258891e+00
4.524070732513518212e-01,4.159658457431874568e-01,-7.322912111286740355e+00
4.389340154567606400e-01,4.370353819781132576e-01,-7.236167015049649542e+00
3.767918378516258993e-01,4.067730321844237884e-01,-7.206156896547991408e+00
3.811348373011856916e-01,4.765979606572327554e-01,-7.243958402899013826e+00
4.411943934452311478e-01,4.784454824685160368e-01,-7.209826010968623855e+00
4.122204183969669922e-01,3.838530531359300446e-01,-7.120968265388737173e+00
4.684539325838304458e-01,4.630617815719137997e-01,-7.101095345185997942e+00
3.173551055312368585e-01,4.747313845332940541e-01,-7.104535757591863288e+00
4.905587859217856450e-01,3.870009792005623117e-01,-7.005130396205849763e+00
5.630392106101514971e-01,4.349173236074065918e-01,-6.933010817815116411e+00
4.127087337966326430e-01,4.000687009681120343e-01,-6.925380545264774312e+00
4.299545637930856090e-01,4.389580345753885116e-01,-6.865303351754967309e+00
4.623716493469308686e-01,4.172895055276858445e-01,-6.890949736693051442e+00
4.597507052074002454e-01,3.822422033805525365e-01,-6.904136347695879472e+00
4.523613466619355594e-01,4.349062450243575961e-01,-6.785903553153000978e+00
4.809161762756269387e-01,4.812136659536110361e-01,-6.758280791207586624e+00
4.551384223145426011e-01,4.218103525487821304e-01,-6.731621103098988534e+00
4.758986316943893957e-01,4.331658287115183747e-01,-6.609600808040550390e+00
4.241015787674949356e-01,3.838882304714960059e-01,-6.653364294571180615e+00
4.471799991678000463e-01,4.163554772908148460e-01,-6.614535106062723102e+00
4.271809687512921894e-01,3.979801870527072682e-01,-6.449998942976034044e+00
4.311527421350954126e-01,4.200893765239264721e-01,-6.583394931138131234e+00
3.913511200157037684e-01,4.326788321865784326e-01,-6.466822008717278081e+00
4.736810249385628446e-01,5.459288934254215020e-01,-6.466025171948587058e+00
4.003415405610860067e-01,3.481340574941951815e-01,-6.410257802548192885e+00
5.105740573401229554e-01,3.863706353561145446e-01,-6.351777955230891948e+00
4.356108604918363381e-01,4.458527748295716964e-01,-6.342033002493302263e+00
3.481669590756888977e-01,4.576222416631409162e-01,-6.266530268926121749e+00
4.013067874750909092e-01,4.927227544398485870e-01,-6.309623328729862202e+00
5.003652680954356891e-01,3.892564721419157214e-01,-6.255258909615809770e+00
4.273157821568730474e-01,4.474258088511742781e-01,-6.170706488805438816e+00
4.737500509882212607e-01,4.960524434333279387e-01,-6.126232688312003738e+00
4.043021114920590797e-01,4.497047803698305812e-01,-6.207045999914698520e+00
4.098464242223253118e-01,4.063692700070745678e-01,-6.096245940165609056e+00
4.237612939455238092e-01,4.224645954735053999e-01,-6.107294122719992835e+00
4.048891165066061393e-01,5.560786697814632529e-01,-6.027880133628257475e+00
5.590429623397535908e-01,4.701260760299858510e-01,-6.001290014830170882e+00
4.785969964449604541e-01,3.992741766809527193e-01,-5.921033769451834239e+00
4.769507515708103496e-01,4.882725857099698419e-01,-5.915473443305192980e+00
3.883558994113078255e-01,4.235726740417319891e-01,-5.894231128280696730e+00
4.782703702552698055e-01,5.146547858837110523e-01,-5.849691569778271649e+00
4.301022015171884205e-01,3.588966312702795980e-01,-5.859651618914837989e+00
4.122314929267882344e-01,3.867238037159162478e-01,-5.763916157703140364e+00
4.069427830470103147e-01,4.444394001477006695e-01,-5.760100949542709792e+00
3.978629990950344197e-01,3.747028162638705862e-01,-5.784972772687662079e+00
4.530616079256659101e-01,4.746966236680413287e-01,-5.668106151417696026e+00
4.817271607021381685e-01,4.174829143106589813e-01,-5.656043301420743852e+00
3.633309342602628056e-01,4.184238991398024354e-01,-5.621903392547952016e+00
5.175616262515557731e-01,4.095768501232093239e-01,-5.557092005714684646e+00
5.403584722771778148e-01,4.484113588276483764e-01,-5.615603078461235853e+00
4.432462987843088231e-01,4.393961488191334697e-01,-5.610774252127303185e+00
4.494841210103392437e-01,4.824456414689493045e-01,-5.518315658899569875e+00
4.393584130470964411e-01,4.501512567566511303e-01,-5.488387668096621042e+00
3.764439827394065463e-01,4.287813026739780708e-01,-5.454366648053658118e+00
4.863342932192523671e-01,4.494083830757474307e-01,-5.420269378980859365e+00
5.427523893379955222e-01,4.539739861388474296e-01,-5.371356865195258123e+00
4.499020624817486325e-01,4.238839516172976385e-01,-5.336667617028350463e+00
5.037699008419012081e-01,4.428040085947191340e-01,-5.299398422604859604e+00
5.248743129909159144e-01,4.912295630892307141e-01,-5.344490011813655350e+00
4.903868257652197471e-01,4.623898217380786324e-01,-5.311076936067316900e+00
4.660770731031610992e-01,5.445539295878545349e-01,-5.254070002052394273e+00
4.790977440439960211e-01,4.369539405375867935e-01,-5.163220197987903326e+00
4.131765144197624973e-01,4.330153157227904503e-01,-5.157984255944388252e+00
5.290082489868910276e-01,4.308916777741418347e-01,-5.121144324941373505e+00
4.230519309857663779e-01,4.892982719409292858e-01,-5.142213606885219335e+00
4.417957038694988459e-01,4.475388891317571560e-01,-5.067395768295307690e+00
4.438352850682296680e-01,4.095719866676784116e-01,-5.066217233432983136e+00
4.485974864498942782e-01,3.664398017627241710e-01,-5.022005753325130328e+00
4.649239662489146885e-01,4.350632677863188191e-01,-4.953483952358162412e+00
4.096711239317655795e-01,5.001715500350842891e-01,-4.969364321787080208e+00
4.089603799621406299e-01,3.746635771001248782e-01,-4.923389510979474082e+00
5.165673605351746023e-01,4.570161660321129249e-01,-4.891215688749515955e+00
4.411651214124064913e-01,4.126300825039281306e-01,-4.909160947180206236e+00
4.199818427021203004e-01,5.134891122684954734e-01,-4.831760741380866975e+00
4.517431719431899695e-01,5.260387657077409962e-01,-4.802759391656458376e+00
4.740003810324767697e-01,4.195981458559043253e-01,-4.722990332431577620e+00
4.834775022287988167e-01,4.122443185963675094e-01,-4.679996549300394548e+00
4.820615826408710669e-01,4.688975023516431251e-01,-4.697452597159516685e+00
4.710527214956779507e-01,4.634099296088650677e-01,-4.669757886636245026e+00
4.393463098014812052e-01,4.542793207277477929e-01,-4.671555184719969667e+00
4.643365379940299631e-01,5.037921838164914901e-01,-4.728168755686046332e+00
4.077095494255916774e-01,4.334630248503816841e-01,-4.584945559191520914e+00
4.101361734340847054e-01,5.327607078003464558e-01,-4.564635511728083017e+00
4.214277340603456712e-01,3.943610133819935859e-01,-4.613984142854808290e+00
4.864023224526751177e-01,4.989407598385171561e-01,-4.531764905842162072e+00
4.574783913251684875e-01,4.218634261113558548e-01,-4.554513681397133418e+00
5.270104416452904283e-01,4.850894554470921438e-01,-4.444653262470099619e+00
4.760681612552449815e-01,4.448324329638456698e-01,-4.457343097783580177e+00
4.546954094369667909e-01,4.651051120462923461e-01,-4.368769581871659646e+00
4.743541070002827986e-01,4.311280490086757400e-01,-4.396277855739634255e+00
4.340610703649473989e-01,3.544671191648879893e-01,-4.415673022438429740e+00
5.116187438230040962e-01,4.775336170313693174e-01,-4.335915568570647416e+00
4.789756200779730633e-01,4.802863072450794801e-01,-4.381915533786063577e+00
3.882075978216915635e-01,4.696318426382809497e-01,-4.348386198839221173e+00
4.647647634220239965e-01,5.525037222551796301e-01,-4.319456194732327781e+00
4.361799487998608837e-01,5.084742976039520190e-01,-4.234497830235142146e+00
4.531125917338995612e-01,4.137873797741055681e-01,-4.190740544259921485e+00
4.553656414354195769e-01,4.472066948767811079e-01,-4.203091990902929176e+00
4.758757557662696702e-01,5.184965083713404255e-01,-4.168286675300496569e+00
4.391849248968904273e-01,4.092535762973958380e-01,-4.168280093407344289e+00
4.576562972622022496e-01,4.820485614511615946e-01,-4.032191732967728370e+00
4.216428468714865652e-01,4.123285184697698114e-01,-4.123506995822392440e+00
3.895316677691141316e-01,4.450199457953009086e-01,-4.176183157899746590e+00
4.767987423450260054e-01,4.132150720120074117e-01,-4.069280593163373538e+00
4.745963596365682657e-01,5.213231032981254787e-01,-4.029393703435584229e+00
4.452388413690838154e-01,4.486159579741488823e-01,-4.017030076602722488e+00
4.242561927507125796e-01,5.178514200576123105e-01,-3.958645339767597360e+00
4.772028952955006953e-01,4.699167614619846889e-01,-3.959929287518096253e+00
4.378981970426663595e-01,5.336571094091526746e-01,-4.039449769149976888e+00
4.233173317318990603e-01,4.364938823798625855e-01,-3.986539041763011326e+00
5.325280672931762549e-01,3.882977128610455297e-01,-3.922353457235100205e+00
4.820625345904979708e-01,5.061721044703848538e-01,-3.840890772110876039e+00
3.354437456535497852e-01,4.211458258241980723e-01,-3.839860742251079539e+00
5.182384631165126709e-01,5.175683878967072271e-01,-3.835371443587304086e+00
4.448040444683179495e-01,4.821607625924537732e-01,-3.770946917872221249e+00
5.880361829351196112e-01,4.550766713385810958e-01,-3.727635020438166080e+00
4.277980641267676298e-01,4.615855672916621133e-01,-3.774257525312614270e+00
4.012053153107090209e-01,4.425098115022922385e-01,-3.743941794937368339e+00
4.294087177555996893e-01,5.134307802214840288e-01,-3.680255660223396674e+00
4.917683755433149284e-01,4.541979661892083242e-01,-3.663307915963645467e+00
4.306614527384415858e-01,4.257335684900666051e-01,-3.667939869297190292e+00
5.051895539148876235e-01,4.998650398323873367e-01,-3.647958827914219881e+00
4.796773681274603129e-01,4.210316479255007405e-01,-3.651397733812881796e+00
4.800029405003400362e-01,4.648173635029415607e-01,-3.574112673003288609e+00
5.229382509418972758e-01,4.297288913900986218e-01,-3.543618934018936795e+00
3.815943633859708584e-01,4.830406001096982926e-01,-3.684952429255416995e+00
4.100912885446844069e-01,4.214141740293335103e-01,-3.518400640428957171e+00
4.044756699886679630e-01,4.800162230235917593e-01,-3.488003545847006670e+00
5.156880321297471204e-01,4.735220760849017108e-01,-3.455040459958179877e+00
4.378753365113016716e-01,4.640622262278122911e-01,-3.489250718053273470e+00
5.309504065864304456e-01,4.105021516467613485e-01,-3.467996440620328524e+00
5.428825680945765786e-01,5.166409600585299966e-01,-3.330829279166873214e+00
5.321616347144741965e-01,5.119209365132530998e-01,-3.464423090391908211e+00
4.409061784635548986e-01,4.997461481837972563e-01,-3.397411815360113607e+00
4.753386074814369144e-01,4.425488762697206147e-01,-3.407914620944685780e+00
5.220986380051574338e-01,4.726362967289854389e-01,-3.364961187090714567e+00
4.667114871801351095e-01,4.960833115685704953e-01,-3.370872188579282280e+00
4.946018200818164678e-01,4.515528244958886828e-01,-3.367785519013560602e+00
4.721235106337268173e-01,4.382089278010088962e-01,-3.264233998220091859e+00
4.370817267214556212e-01,4.684603831842598654e-01,-3.319126885470270683e+00
4.286608998430003203e-01,4.828026875102465199e-01,-3.232231005661502010e+00
4.174402236568900415e-01,4.709986677084020967e-01,-3.202312916560980049e+00
4.867847638248370412e-01,4.828132963924441912e-01,-3.136017629141725216e+00
4.931150469978582973e-01,4.524528177461953904e-01,-3.120842939219745649e+00
4.766536875434981835e-01,4.562005471655850575e-01,-3.187532639481404750e+00
4.891576097912708754e-01,4.539800239567913231e-01,-3.129407372618415728e+00
4.739261746292434685e-01,4.602903166240416288e-01,-3.151298154501807502e+00
4.865249347854401218e-01,5.396348776358349530e-01,-3.200674811154534893e+00
5.159998991016663261e-01,4.693902973922373656e-01,-3.114649778056715057e+00
4.557419503775975711e-01,4.952340704304206698e-01,-3.075749217375169042e+00
5.016215315093724980e-01,4.594923662768036765e-01,-3.040402326727940086e+00
4.746856231394914194e-01,4.185867127998059711e-01,-3.004226279723889004e+00
5.136639431906127040e-01,4.727222752550131468e-01,-3.010597137679131396e+00
4.737871716772767972e-01,3.987637622204100452e-01,-3.024263030834823951e+00
3.749460803888701177e-01,4.190642731184801018e-01,-3.003781583927615184e+00
4.153314827725803071e-01,4.873094298342369735e-01,-2.958649514265813352e+00
4.604249427714637299e-01,4.297203909356713813e-01,-2.933862900480351144e+00
4.775562064583454558e-01,4.547861961943854836e-01,-2.891616316342850546e+00
4.947973707224571638e-01,5.231618058914900837e-01,-2.907541394294300030e+00
4.623586002134214556e-01,5.243937180006896792e-01,-2.958157579895585698e+00
4.282628450854397695e-01,3.728717867026244970e-01,-2.814097102798628569e+00
4.399212132373298001e-01,4.253588468038287385e-01,-2.911680870807765942e+00
4.620552078073746904e-01,4.227674324524543503e-01,-2.883352310189247536e+00
4.556335745852388430e-01,4.779979403835073470e-01,-2.858020768078986418e+00
5.105832882480049184e-01,4.458670042392796629e-01,-2.806689372088309486e+00
4.606262520759308865e-01,4.332529340732504397e-01,-2.784723948679363126e+00
4.899247049147184008e-01,4.277670091885832360e-01,-2.704856875274705974e+00
4.769272478454753550e-01,4.562762536406660963e-01,-2.752607134295694369e+00
4.548134749377394925e-01,4.933993749545482199e-01,-2.734589456433329069e+00
4.134392478459037457e-01,4.596877258645350461e-01,-2.780742796367505321e+00
4.425671461795193662e-01,4.977297987320628003e-01,-2.721758275305933950e+00
4.414893965189700120e-01,4.626069236950093866e-01,-2.637840816519260834e+00
4.819932052522774013e-01,4.858999021089563941e-01,-2.724587052312987812e+00
4.836883379844553188e-01,4.720780233013824323e-01,-2.671821683709320716e+00
4.576253226626181281e-01,5.449067222269983191e-01,-2.639817108813390600e+00
5.389381985583548973e-01,4.982841485857397168e-01,-2.521594132753059103e+00
4.966056476454334123e-01,4.974132609472665112e-01,-2.634830619485326153e+00
4.125722746654763573e-01,5.455614883960212547e-01,-2.615293979490669329e+00
3.631266558231037167e-01,4.813335152668859473e-01,-2.552097582822721034e+00
4.533333909006571627e-01,4.572713418742094804e-01,-2.596290357241600066e+00
4.651322892502157136e-01,4.770500009137484398e-01,-2.534599261212926447e+00
5.390968483872762285e-01,5.068999107027823969e-01,-2.502350256554419339e+00
5.063445549142394642e-01,5.081767493976525607e-01,-2.515381443123053895e+00
4.079620443015127274e-01,5.352434335781798280e-01,-2.525346988974314755e+00
4.994440401484581682e-01,4.810269344979941075e-01,-2.541885200941750078e+00
5.110747487817444146e-01,4.799087220826097622e-01,-2.492793953879254953e+00
4.634124086810896270e-01,4.282166375101758016e-01,-2.368285800687009779e+00
4.227020726638613390e-01,3.841710879999185035e-01,-2.426161921245248543e+00
4.829270170089451919e-01,4.874519778269505443e-01,-2.415142018976182303e+00
5.731876761224334871e-01,4.251449815831059853e-01,-2.373077350370820238e+00
5.227863074699828916e-01,4.779288532023409641e-01,-2.369389717510605564e+00
4.673675356064188047e-01,4.761204074014228627e-01,-2.438000404225229900e+00
5.546909395418703204e-01,4.768739757649711475e-01,-2.344880422192973324e+00
4.776913789806351840e-01,4.266692632537128493e-01,-2.255668658783442471e+00
5.253038931925123611e-01,4.488577804853872699e-01,-2.371951601116065067e+00
4.719169999528141646e-01,5.098184708934971887e-01,-2.279814348469336949e+00
4.530283868468292230e-01,4.444851898225773423e-01,-2.281050754754893273e+00
4.738996834162353955e-01,4.856847774581424249e-01,-2.243696575246699965e+00
5.340162993241074352e-01,3.827853916380851707e-01,-2.280563828845796337e+00
4.448097716001179203e-01,5.039502384068168528e-01,-2.227772032914085543e+00
4.581036804639250781e-01,4.646480144205747953e-01,-2.187421000844282482e+00
5.253441527005943135e-01,4.993245891224455391e-01,-2.167755516995809817e+00
4.428176892202468906e-01,4.893514471488571993e-01,-2.164975264140781785e+00
4.967554054203317526e-01,4.149889042755666169e-01,-2.225523571831337311e+00
4.138131997406821472e-01,5.043904693447797127e-01,-2.207213436334267254e+00
4.861397196692783806e-01,4.808355895003451064e-01,-2.156066141823464122e+00
4.622556685821130884e-01,4.807285770518892609e-01,-2.140266815051313554e+00
4.572452486803577631e-01,4.732324645239022742e-01,-2.132061405217536620e+00
5.034744804485726810e-01,4.181043310986973793e-01,-2.060899036135275697e+00
4.694798434672343701e-01,3.909268395246420780e-01,-2.036762004632369116e+00
4.522698370468547502e-01,5.866989398648535525e-01,-2.025567950672656270e+00
4.644827960291720848e-01,4.747083925934662552e-01,-2.092102886641555859e+00
4.652372035736113132e-01,4.873119506883267782e-01,-2.048395535461680961e+00
4.865697738829835584e-01,4.859810826406411599e-01,-2.065004920861078119e+00
4.921074017346884211e-01,4.660021703920279590e-01,-2.046812519178860423e+00
4.707358182080619291e-01,5.045145733607693250e-01,-2.071877858038496445e+00
4.750614931636136240e-01,4.359048916398514106e-01,-1.978982719894687659e+00
5.104993999913230995e-01,4.795973262883193033e-01,-2.049475561229234799e+00
4.818238108265003872e-01,5.212123292866266411e-01,-2.040697898571736779e+00
5.112583668357583155e-01,4.645792659625659349e-01,-1.975372458666694309e+00
4.535220150213169488e-01,5.020915258117880642e-01,-2.006791201782841760e+00
4.432376707961890872e-01,5.330552695812005304e-01,-1.896848112277804255e+00
4.692339872086399022e-01,4.673724598538095409e-01,-1.973222326801814530e+00
4.579140178491120095e-01,4.262633880755719029e-01,-1.893753552808808527e+00
4.573653222362857318e-01,4.559759214708484221e-01,-1.902901058360872977e+00
4.492945207831536281e-01,5.195352228670062633e-01,-1.940930894174869747e+00
4.278162804573829026e-01,3.682222954599552733e-01,-1.914604332377854101e+00
4.901639968180760421e-01,4.612260115692436435e-01,-1.909387228974046780e+00
4.395976876339340311e-01,5.353996716136345535e-01,-2.009437598536751857e+00
5.328533062593820979e-01,4.084029379949741800e-01,-1.828003674976415027e+00
4.605095968097666081e-01,4.323064310405170807e-01,-1.770825798120190253e+00
4.986148108332612017e-01,4.760270357251180640e-01,-1.816725933184573316e+00
4.704796699585526154e-01,3.863955494890324860e-01,-1.831148008330151455e+00
5.092351262502230469e-01,4.532374053370405997e-01,-1.787199436119106588e+00
5.259803719148218315e-01,4.917894328143352367e-01,-1.855407898233677688e+00
4.908202304458145759e-01,4.468863451153517463e-01,-1.773711768846699233e+00
5.550461094116712069e-01,5.786571725016618206e-01,-1.798554274493297633e+00
4.708550027519331493e-01,4.550729586350625300e-01,-1.735058056364149115e+00
4.894495577731302061e-01,5.111729315155352227e-01,-1.748001761913975161e+00
5.542808281799243009e-01,5.142295692694600628e-01,-1.748284556509272614e+00
5.382079815464323458e-01,4.046189625637932052e-01,-1.733607808954249263e+00
5.240535824741834325e-01,4.504403644710591181e-01,-1.721713636149195370e+00
3.776682091966994115e-01,4.908644461151748239e-01,-1.723709968476453191e+00
4.816264013639688923e-01,5.439334146230273559e-01,-1.715085793839407513e+00
5.383187856128808235e-01,4.742548188359882455e-01,-1.691690449993249690e+00
4.329823170457566262e-01,5.336752691273597415e-01,-1.718540555015491966e+00
4.569392436410237290e-01,4.766529915730096656e-01,-1.628361760262738489e+00
5.197845257329052338e-01,5.154534227702110005e-01,-1.620980538671988214e+00
5.308485867951537873e-01,5.058281783834026601e-01,-1.712850777068235519e+00
5.320482448581971280e-01,4.878414184993269398e-01,-1.701049008423345388e+00
5.084878473556814216e-01,4.976934131146519835e-01,-1.564700089753701562e+00
4.799762698572426767e-01,3.943641720748309876e-01,-1.614371100421438721e+00
4.981136442617415949e-01,4.823170008170101775e-01,-1.537525302093409207e+00
4.520497564524305623e-01,4.574244929244039026e-01,-1.559604236408015376e+00
4.609811583944688484e-01,4.652233350618520946e-01,-1.521872892462631022e+00
4.795897307062893522e-01,5.183142235751797555e-01,-1.597886692400853681e+00
5.141941259176655565e-01,4.651896580027737316e-01,-1.520111816082952316e+00
4.801923841701798978e-01,4.029567948090211349e-01,-1.492349107791585805e+00
4.854051725104851500e-01,4.784679795088004894e-01,-1.559301855325233133e+00
5.705975414701235371e-01,4.604464397220883742e-01,-1.510898736831904010e+00
4.896946653303670405e-01,4.955106871322106366e-01,-1.436595165732579060e+00
4.963723626728170912e-01,4.506646153467828153e-01,-1.526200237334782939e+00
4.986818473404218688e-01,4.731472857043030333e-01,-1.519987942122900115e+00
4.684404233336988965e-01,4.526550117055676559e-01,-1.420203748901274654e+00
3.893297634143134123e-01,4.237574414654046717e-01,-1.488048538686627786e+00
5.351506915568758904e-01,4.931967015910874164e-01,-1.424691082556376998e+00
5.277250646729572114e-01,4.388737724308122146e-01,-1.392995708436627122e+00
5.363583137527000444e-01,4.891171310154203700e-01,-1.390441703695388220e+00
4.624978776075210907e-01,4.648642417038993946e-01,-1.356945109378588477e+00
5.236258167536328445e-01,4.580446672451976009e-01,-1.418395821605124008e+00
4.849407844065602435e-01,5.254730060660169899e-01,-1.376522360312743887e+00
4.742141806496557033e-01,4.716199210719279611e-01,-1.312463876900541893e+00
4.535069107496353946e-01,4.768304267148046338e-01,-1.360321799557181466e+00
5.099700980715146104e-01,5.510846827163711215e-01,-1.319493152153221827e+00
4.931868408898761325e-01,5.183445953307467269e-01,-1.357682028296526289e+00
4.370889293743798754e-01,4.679277877107095862e-01,-1.350727462947151736e+00
4.346375232984926451e-01,4.987906936619053155e-01,-1.296794617576466191e+00
4.707364627287539682e-01,5.401827893187953755e-01,-1.327689713380386660e+00
4.850346721534234407e-01,4.473209841980473334e-01,-1.283396834005552378e+00
5.042848490534983519e-01,5.314263060226714908e-01,-1.321290676708614109e+00
5.201721873826887776e-01,5.227052959214949501e-01,-1.303251227524076405e+00
4.765584652332318094e-01,4.775430651729615228e-01,-1.254879485537968353e+00
4.282212633842644722e-01,4.672062219501243452e-01,-1.293874523874591898e+00
5.348887192738585039e-01,4.496082996651972197e-01,-1.273760507402253106e+00
4.758444501560233353e-01,5.137738204533289776e-01,-1.198547852438840655e+00
4.782742816927963436e-01,4.930207555466222802e-01,-1.240065571414613821e+00
5.116777009216187944e-01,4.499048434400856333e-01,-1.291359547394807405e+00
4.012602773116819010e-01,4.430755712811130231e-01,-1.341718515490803787e+00
4.306215341508016770e-01,4.387209632546329452e-01,-1.230776744607836148e+00
4.460945838465162905e-01,4.692189453791005271e-01,-1.292252692062898722e+00
4.646620141523464809e-01,4.586889027855311496e-01,-1.168473650280397846e+00
5.162004720410169334e-01,5.387091473509268980e-01,-1.203674915820287072e+00
4.499578210664386124e-01,4.589551153651578175e-01,-1.235951883353637148e+00
5.639907512570530024e-01,4.467120885519310081e-01,-1.141463164536137720e+00
5.009750191691085819e-01,4.830273565068741171e-01,-1.136979387754020188e+00
4.393732103919108511e-01,4.331910462498124725e-01,-1.079776238197393434e+00
5.144807386257080895e-01,5.109711958286956568e-01,-1.138150050277423109e+00
5.119261684803169121e-01,4.941620116220413195e-01,-1.131623370306700016e+00
5.350477827424837685e-01,5.527279128309504630e-01,-1.115470802092053626e+00
4.763613914834395890e-01,4.706686919902364763e-01,-1.133374192458969754e+00
4.998385875019558111e-01,4.694713334418602613e-01,-1.008070834146397310e+00
5.265906351442385391e-01,4.714797617831718024e-01,-1.069219354269155264e+00
5.308161710275234313e-01,4.498124115678273638e-01,-9.819872651587425727e-01
4.802969389372911957e-01,4.930382831738267524e-01,-1.067457141487599515e+00
5.736652115203766389e-01,4.754262098880644438e-01,-1.152451713166607217e+00
5.358967696234323563e-01,4.406388778233963355e-01,-1.087072389981511789e+00
6.201481393784892271e-01,4.835370495370774346e-01,-1.110349665336627378e+00
4.022974689082861599e-01,6.336589775168107730e-01,-1.082033139195562876e+00
5.077195472805330345e-01,5.160516997839426079e-01,-1.030783209654788202e+00
5.059276805281612832e-01,4.603282456697644909e-01,-1.025141569727085589e+00
5.075023486549907759e-01,5.663178913144720772e-01,-1.083473443209704845e+00
4.538475419815372058e-01,5.501338646979210267e-01,-1.054154486312273598e+00
4.631898657750831982e-01,4.675043806866949758e-01,-1.090135580076742272e+00
5.188005932919134144e-01,3.719009896806465543e-01,-1.075359036657821621e+00
5.075418153062491999e-01,4.506230009229083566e-01,-9.690765608623589378e-01
4.456448888544671250e-01,5.400988267884132554e-01,-9.927398882579107076e-01
5.814892620150565739e-01,5.675814945562870362e-01,-9.670914556791749828e-01
4.475128269445770024e-01,5.183323355282454248e-01,-9.448292785570345798e-01
4.680638452349106249e-01,5.347962789022042696e-01,-1.041752370981608999e+00
5.298009496381610450e-01,4.160727874823614836e-01,-9.922294552517059163e-01
5.250725042307756718e-01,3.820236879207776770e-01,-9.437053160303806587e-01
5.447413578573595538e-01,4.613796485808637771e-01,-9.004452004067973192e-01
4.468496315043163913e-01,4.225301735465565312e-01,-9.703694173173217363e-01
5.278543429455679892e-01,5.333077395143799304e-01,-9.103543600458996465e-01
5.254043705681464838e-01,5.258198137635973213e-01,-9.391636752236387498e-01
5.025427772598284326e-01,5.207650295159443887e-01,-9.625550271188701990e-01
4.678374424574148205e-01,5.108997856424122297e-01,-9.174557154865428110e-01
4.951296400645158746e-01,4.754606510648818896e-01,-8.427982510813555317e-01
4.770162312713385200e-01,4.523332863485690636e-01,-8.852478848376201803e-01
4.810703865722354977e-01,4.427782534377148749e-01,-8.633209588943564494e-01
4.951596826414408903e-01,4.953307210428278817e-01,-9.078864106202533257e-01
4.953881660967696665e-01,4.883165981549067447e-01,-8.842638741043125084e-01
4.867395131981967493e-01,5.302868313089234009e-01,-7.731353573173985749e-01
5.126329275339276403e-01,4.359255620436047196e-01,-8.212462740823037732e-01
4.581231438331020978e-01,4.827264893400717849e-01,-8.217402111879908988e-01
4.792774163953745226e-01,5.319269258934551381e-01,-8.274729468427824974e-01
5.007524627923521932e-01,4.727408085918585745e-01,-8.236988012388363201e-01
4.174327751193855907e-01,5.675752202507513555e-01,-7.963184096397837308e-01
5.000522905187443357e-01,4.801335597618556772e-01,-8.175316036684585619e-01
5.350797757114333919e-01,4.674574074487292119e-01,-7.261413256639419611e-01
4.273228386231006648e-01,4.811613726061970686e-01,-8.366484591763230227e-01
4.868941118725760298e-01,3.948821361735325719e-01,-7.851931226044930323e-01
4.810851304656468264e-01,4.639781253213197121e-01,-8.567883342610449482e-01
5.139854201254944188e-01,5.244354043546480826e-01,-9.429881860591009524e-01
4.348202399755413672e-01,5.687146043491594360e-01,-7.707856593208629592e-01
5.095801701509742321e-01,5.144213213762526271e-01,-8.316959214927069910e-01
4.737423413972204345e-01,4.518088240001258971e-01,-7.598807556642382943e-01
4.484439516759926581e-01,4.896650189939841802e-01,-8.272093793874800705e-01
4.043697148951084230e-01,4.564050817983436592e-01,-7.381155434135531213e-01
4.505965248867654926e-01,4.572319065107464109e-01,-7.065956932361412424e-01
4.834818150475165832e-01,4.705621603718239676e-01,-8.004177374440318848e-01
5.046180874957465479e-01,5.655313239457591123e-01,-7.223793430317700937e-01
5.283514002604667859e-01,4.964612850982615955e-01,-6.986576069715512149e-01
4.895270700348813286e-01,4.790028924825640577e-01,-7.481280710378197529e-01
5.447605052667133796e-01,5.319058924079481665e-01,-6.675468771698744863e-01
5.017192455022608799e-01,4.774240967214507525e-01,-6.879946620806988156e-01
4.238823786097424273e-01,5.164431109774699769e-01,-7.848483175561792313e-01
4.948654779466720166e-01,4.589623156197887854e-01,-7.775897291200689621e-01
5.399723584021050016e-01,4.843868470307597374e-01,-6.560068355924599803e-01
4.849284825898785289e-01,5.027974565837174392e-01,-6.774129776758214261e-01
4.335964968961599775e-01,4.763893007936779722e-01,-7.123070937984746775e-01
5.830337418383514381e-01,5.326088317478026024e-01,-7.357932439063167296e-01
4.372362029387770188e-01,5.151166194173716351e-01,-6.668774459993134229e-01
4.940210421993224688e-01,4.850180051159589389e-01,-7.081005941316752539e-01
4.734430370436956137e-01,5.562105688784887425e-01,-6.690688142370300184e-01
4.919536858554785508e-01,4.621889803646278549e-01,-6.517012777772912546e-01
4.918753981362411487e-01,4.761346136063593359e-01,-6.442204870983009313e-01
5.706272238951234366e-01,4.972599844318315587e-01,-6.797763768329265766e-01
5.065026753535857296e-01,3.967722869533791274e-01,-6.098430368477714136e-01
4.970693779013815594e-01,4.939366089326840958e-01,-6.618820129341235203e-01
5.154383127900846739e-01,5.184493042989001266e-01,-6.486295687441243629e-01
4.612534940616122570e-01,4.913669073535172349e-01,-6.315900258907410914e-01
4.679565111369779484e-01,4.732858434405659565e-01,-6.057577505480254976e-01
4.561354732328016803e-01,4.949249004951978836e-01,-5.658005112079206311e-01
4.394112849943113130e-01,5.631357662217787441e-01,-6.011965720355468834e-01
3.965168444989446428e-01,4.093525086380124245e-01,-5.603262803844392126e-01
5.015243912996029119e-01,4.680387844037988687e-01,-5.456569546667978665e-01
4.868952771830388770e-01,4.284342554164524697e-01,-6.433331551279852789e-01
4.938843985509340229e-01,5.132271694099552750e-01,-5.440744053097205102e-01
4.260165741029232622e-01,4.165591301777726851e-01,-5.451097115614137456e-01
5.482562652488474075e-01,5.171963114567484920e-01,-5.534342000103360526e-01
4.870481204129872843e-01,5.015159683972127969e-01,-5.884206919959931170e-01
4.834316046569802072e-01,5.170063773846905741e-01,-5.667786500095561841e-01
5.393636381593942541e-01,4.957707980837939288e-01,-5.784949209892076283e-01
4.388974537117491526e-01,4.652231854935297561e-01,-4.757244372026425139e-01
4.567182813962684107e-01,4.320925598637505027e-01,-5.208142329034801676e-01
4.790496734650699917e-01,4.741538420838636858e-01,-5.031904539160151346e-01
5.678817276840032457e-01,5.696333470560241974e-01,-4.767463859671187687e-01
4.991654594486747420e-01,5.080330758655630108e-01,-4.992692656275315444e-01
4.694540556547546206e-01,4.518431751056830037e-01,-4.459726744822520850e-01
4.660386096849811199e-01,5.011188218552261597e-01,-5.360944595100632926e-01
4.814961415479697138e-01,4.771110605525654136e-01,-4.411095227712053535e-01
4.619199353622687743e-01,5.700173328684940977e-01,-5.030515120973777510e-01
5.406691764906971231e-01,5.254331621240345696e-01,-4.614801313662158511e-01
4.945470135505637965e-01,4.860267868525461332e-01,-4.665332406422135758e-01
4.820570080925834500e-01,5.068271821239450636e-01,-4.434978589669782978e-01
4.274762929155648261e-01,5.473405334898827634e-01,-4.739705862097389755e-01
5.018475787299646607e-01,5.213342026697712628e-01,-4.724491573483045603e-01
4.800642580417855965e-01,6.002035976070101420e-01,-4.346903498649211106e-01
4.571634991013582283e-01,4.551470586392680762e-01,-4.454913676456823679e-01
5.183246830243384284e-01,5.027148484109505988e-01,-4.978816095093046568e-01
4.927466168853814610e-01,4.427664791139427347e-01,-4.725436670376874093e-01
5.023577784070754060e-01,6.448703806217180867e-01,-3.880093334759070478e-01
3.829973647878074372e-01,5.012340473525196405e-01,-4.336759541640310966e-01
4.962939443221534574e-01,5.382113104789529867e-01,-3.870265364894679982e-01
4.392201449103671496e-01,4.940845399237759894e-01,-4.393206978298454524e-01
5.377075123282689662e-01,4.995600967669698855e-01,-5.301367290879422933e-01
4.903747834411125162e-01,5.886528820037033594e-01,-3.880834122988915391e-01
4.555704238739699541e-01,5.335436729393833177e-01,-4.600801881202856158e-01
4.444688065021036860e-01,5.161527678596617985e-01,-4.232265264512884428e-01
5.375584972967013542e-01,4.571593729156501196e-01,-4.267785723643414686e-01
4.538433807080898830e-01,4.624509945129956501e-01,-4.852212317113158146e-01
5.131411293133257834e-01,4.919941431400712273e-01,-4.016209269740519394e-01
4.368548887500308675e-01,5.026623921388132521e-01,-3.126504470296881943e-01
4.396142384761966837e-01,4.576040480779968722e-01,-3.964032833923313293e-01
5.165766929861635992e-01,4.268598346500467877e-01,-3.927350208023639433e-01
5.305135573487144152e-01,4.550329103098540440e-01,-4.355750106990415316e-01
4.868357773600094918e-01,4.367734994170549001e-01,-3.757798033129953752e-01
5.040433598308426966e-01,5.154465771419742826e-01,-4.065438888152536623e-01
4.669860710568647377e-01,5.554927029086355050e-01,-3.897867899510253364e-01
4.947782482005511628e-01,5.126607520621363490e-01,-4.192902995163539925e-01
4.936929170491005658e-01,5.391805779890779249e-01,-3.896805088231356518e-01
5.587272807330940783e-01,4.439453266386628183e-01,-4.212498904920149445e-01
5.292026066690403985e-01,5.320068228665596477e-01,-3.097841854455902766e-01
5.134865890216389062e-01,4.157876693204706209e-01,-3.872749377758984424e-01
4.260971637170019588e-01,4.834880085860401855e-01,-3.072371607479606470e-01
5.425174529806342516e-01,4.869506007446506857e-01,-3.252439396098326108e-01
4.827222547090918581e-01,5.638469054431543004e-01,-2.752816830087200239e-01
5.014567366002850024e-01,4.722913897234793934e-01,-3.455807174304255103e-01
4.039416657535848110e-01,5.736437374369178777e-01,-2.309792990595619655e-01
4.980752920770766812e-01,5.334188521966195529e-01,-3.368596364211070560e-01
4.751069019734939225e-01,4.836079351037587681e-01,-3.216113165131577190e-01
4.816484303379487963e-01,5.576472227241067170e-01,-3.238805702533029685e-01
5.089108134957126550e-01,4.952698193582725783e-01,-2.948574163608884691e-01
5.318631405059545125e-01,5.222577551553391206e-01,-3.462395642264958218e-01
4.457112994837463815e-01,5.211481477538455476e-01,-3.063269144389272336e-01
4.794111904041115646e-01,4.691244864755418353e-01,-2.998268736468569506e-01
4.573786371184426214e-01,4.765518270053938910e-01,-1.874925692936098010e-01
4.800607144206357479e-01,5.152818985708090826e-01,-1.670462557090337530e-01
4.423754283519016894e-01,4.682469069234989067e-01,-2.539489065282691804e-01
5.098670453771437794e-01,5.770203046944769598e-01,-2.212804875431357010e-01
4.021706553156316755e-01,5.383458502061384543e-01,-2.908224219991781268e-01
5.355931938260010128e-01,4.844988753065292419e-01,-3.272694959542772897e-01
5.305536763626869101e-01,4.599728416201995795e-01,-2.576871818872339959e-01
4.997531580704997478e-01,5.296714620475059254e-01,-2.600272527919719190e-01
4.601256927457919033e-01,5.330411862902590947e-01,-2.623455217359745850e-01
5.250579722992407827e-01,5.724694135258772132e-01,-2.327035541098331772e-01
4.834086962853640368e-01,5.075226258589838890e-01,-1.806058490306300945e-01
4.981750876066328160e-01,5.246376297100511232e-01,-2.174641878648866933e-01
5.369726815339322945e-01,5.443779092792369045e-01,-2.521818145055087501e-01
4.972608506047222487e-01,4.793993043424834566e-01,-1.788731250631255820e-01
5.174859154143680584e-01,5.278860208109269481e-01,-3.084043620255672025e-01
4.484716167010694976e-01,4.779569140662954241e-01,-2.917384256353224847e-01
5.304068243683811579e-01,4.689872970651449702e-01,-2.927434789397218018e-01
4.909980859617637527e-01,4.564991109158047511e-01,-3.026031857789359680e-01
4.726531227480637032e-01,5.082872360224350849e-01,-1.894302265308570876e-01
5.347030987667070745e-01,5.125932543331592761e-01,-2.710087676594677975e-01
5.187338407699567666e-01,4.333755382233621112e-01,-2.310397115649209798e-01
4.306886410900069850e-01,5.320645908656930212e-01,-2.065090955226401848e-01
4.669721795544487519e-01,4.635466371530641561e-01,-1.619970988845738924e-01
4.534855090802770716e-01,5.284870295862031941e-01,-1.607916825369936076e-01
4.628763474378662091e-01,5.392563641319948475e-01,-1.649973342002028498e-01
4.794300897386165050e-01,4.904710074397108377e-01,-1.260110799666350201e-01
4.739384100281558987e-01,5.733007513337838867e-01,-1.609425232372943548e-01
4.509664951193485538e-01,5.215918553269568436e-01,-1.776176526481464124e-01
4.473534283209550377e-01,5.432441836121824075e-01,-1.447301456967250988e-01
4.833801917435600060e-01,4.387524238213696415e-01,-2.381430921688372504e-01
4.748592398112677637e-01,5.026564131471743524e-01,-1.613436660926673427e-01
4.508887936035666510e-01,4.288008497996191881e-01,-1.314632949582802135e-01
4.651261169745674606e-01,4.532523296143355362e-01,-1.187731811517775127e-01
4.786913213811929135e-01,4.567961142959941490e-01,-1.519450927868503110e-01
4.978129853885425726e-01,4.979490600924783572e-01,-1.267962638748075521e-01
5.145928807687152329e-01,4.461515183541170937e-01,-2.315226992422889096e-01
5.575558845192140067e-01,4.639350539041317001e-01,-1.870357048648142728e-01
5.238706910882298118e-01,5.492568574391002434e-01,-1.434728267388005463e-01
4.810447417848102147e-01,4.666416583063012768e-01,-1.396523557133920734e-01
5.766792557499076377e-01,4.932853190739911464e-01,-1.652126554915736290e-01
4.702225307788723274e-01,4.948513937257248974e-01,-1.890863254628812606e-01
4.807146127868449081e-01,5.048893276192264468e-01,-1.093094447421367743e-01
5.075127044451933633e-01,4.888710758285901292e-01,-1.545704276875966010e-01
5.691958826475974620e-01,4.738895931682519658e-01,-9.102105339523956784e-02
4.923500908279731525e-01,4.752298451860552664e-01,-1.108474392475991832e-01
5.112894925413240532e-01,5.349082657588587475e-01,-5.122609016764358841e-02
4.883024024848044986e-01,4.418229079694392381e-01,-9.666636203945375150e-02
5.037466529039987817e-01,4.995812408863513077e-01,-1.138605767476347647e-01
5.267563503466231589e-01,5.060829645330748860e-01,-1.455994475082061368e-01
5.110921162157935349e-01,4.860586998152557348e-01,-8.438599398135343543e-02
3.948336296434283299e-01,4.857270092898041680e-01,-1.108025854963939072e-01
4.470652544804983308e-01,5.156346404302093456e-01,-3.701848102807626939e-02
5.030252508698779268e-01,4.654704363829118563e-01,-7.240877271770078394e-02
5.127383973204774348e-01,4.829098108599378381e-01,-7.790183676522090261e-02
4.414401957553296119e-01,5.705992689739383117e-01,-9.196900145050561359e-02
4.466468195848846134e-01,5.199235707677778429e-01,-1.295645026040312120e-01
4.660538263873248432e-01,5.552140094452036045e-01,-6.782644809314447576e-02
4.897210371352578862e-01,4.390226425884309891e-01,-9.136890501970144907e-02
5.042747470880349914e-01,4.684871936268530934e-01,-7.101684135735608638e-02
4.674926329407079750e-01,5.236342848230051139e-01,-6.171228001590169099e-02
5.620643682862703772e-01,5.372002981721561987e-01,-4.557378061701587713e-02
4.319226589852895870e-01,4.528043487868976813e-01,1.270232219640359764e-03
5.626075822536914517e-01,5.095649462852163136e-01,-5.615714054257208918e-03
5.200753971570629686e-01,5.487466455764161699e-01,-1.762581837817650196e-02
4.915368535165576813e-01,4.730403920733091128e-01,-3.203960352528666122e-02
5.008986921614715371e-01,5.171987800534973978e-01,-5.363852249953313112e-02
4.947734285756252848e-01,3.952538352106225727e-01,-3.417354826165241999e-02
4.846733372565176778e-01,4.548930535886427928e-01,2.526284918985662910e-03
5.288366856353114986e-01,4.786229617766403210e-01,1.953630814249904604e-02
4.876978879413418344e-01,4.669049565804894164e-01,-3.609094073072277586e-02
4.861695306323846610e-01,4.655366104491687751e-01,-7.765078607315621662e-02
5.296065961017309975e-01,4.946353574669221653e-01,-8.537982618795600387e-02
5.346738640819774790e-01,4.060617622794659987e-01,-1.610028430545394976e-02
5.745317087652780375e-01,5.082481839409803692e-01,-6.003250108639855698e-02
4.816916288683723568e-01,5.053154667041791503e-01,-3.686092715377791047e-03
4.969499306874265998e-01,4.813758542103272475e-01,-6.411334604990126529e-02
5.791120491032077933e-01,3.967519901099949009e-01,-6.430335630726870602e-03
5.186163468736294524e-01,4.993289179825004531e-01,-1.882887733564945001e-02
4.226411549290606806e-01,4.860679168715127951e-01,-1.477069674761426893e-02
5.101796463554791883e-01,5.483627151891985463e-01,-7.676496198496664258e-02
5.076781160602483745e-01,4.825541132648694109e-01,-4.395799505511613359e-02
4.837184908956786433e-01,5.148295411311164527e-01,-1.838653225159432233e-02
4.933588908061027900e-01,5.719200211086096219e-01,-3.909668615524530128e-02
4.971315933423539613e-01,4.527707912976623450e-01,-7.628688385783024238e-03
5.094140153882081856e-01,4.593520519680791003e-01,-5.430413214349220051e-03
5.126086836035871341e-01,5.375905430762634163e-01,-4.444051401542967877e-02
4.632516184637646695e-01,5.414471222954279073e-01,-6.566440282330718303e-02
5.212568895561446869e-01,4.847187886263323864e-01,5.423679766291183285e-02
5.039067836304182979e-01,5.292246374271041276e-01,-1.912645465607836631e-02
4.915343724446031848e-01,4.636934314961151937e-01,6.166393016823045609e-02
4.494191994136894630e-01,5.727852475710083491e-01,1.140903083401251412e-02
4.843296940486160329e-01,4.654399028669691241e-01,2.577769742796418365e-02
4.749131442070166353e-01,4.465901549573748075e-01,2.069217049887921503e-02
5.756435571343735402e-01,4.479113011406902767e-01,6.020588431628902393e-02
4.992711933030514748e-01,5.172054678453947840e-01,1.619674391560741930e-02
5.374583692074453856e-01,4.616107760566335871e-01,2.368990420054906121e-02
3.841123635627774480e-01,4.180973763183867820e-01,6.098108709998230348e-02
5.870392241771261732e-01,5.238244184462254038e-01,-6.129500676525692637e-02
5.125045513249056883e-01,5.724780755377059105e-01,-1.055138779579418463e-02
5.720030084502069068e-01,4.351421704131501200e-01,-1.232038508022685261e-02
4.813645947815897164e-01,4.942764506529879198e-01,4.344285079112097936e-02
5.334607696631311624e-01,5.315235110966515242e-01,-2.411664984909072176e-02
4.395333452495673865e-01,4.897627177897153627e-01,9.849842047196032124e-02
5.496942356434685317e-01,5.101975243597440812e-01,5.704721476773446515e-02
4.848819693069932324e-01,5.151154946551065317e-01,1.504495440579797609e-02
4.623878766070416702e-01,4.357472195594070952e-01,-4.552066937978474503e-02
4.399027238366521875e-01,4.600017486281662293e-01,5.544247498495805115e-02
4.523174543308693396e-01,4.504148427379763842e-01,5.498664654949445008e-02
4.575902719598028412e-01,4.602995637284125197e-01,1.698133549964424005e-01
4.327284955396528132e-01,4.692408295107918792e-01,3.006148714786562384e-02
5.021694555616397215e-01,4.243447910207080453e-01,1.154411255169636580e-01
4.359338011020983950e-01,4.817461885528681598e-01,9.289124144466670563e-02
5.265290085831972888e-01,4.774174567261478819e-01,5.805135742621838485e-02
5.241329431486503321e-01,5.164883399657211882e-01,6.449876554109260085e-02
5.266726279045668146e-01,5.386744567711596599e-01,4.617672918223997280e-02
5.046985359171274332e-01,4.696989668800160556e-01,1.026224862425192119e-01
4.633406046533100620e-01,4.667916522493028575e-01,1.445040901971111069e-01
4.610370534486890604e-01,4.962543352499348415e-01,5.265164592556306061e-02
5.335585770044265486e-01,4.835021749099535637e-01,1.148639406809321972e-01
4.573302615264758231e-01,4.747852667645947600e-01,7.691800336165999230e-02
4.530080058175402491e-01,4.757241474450666363e-01,1.053538851573257162e-01
5.348021942092573422e-01,4.846022312568769030e-01,3.712583902829501986e-02
5.069180985522493410e-01,5.795766471927102925e-01,4.919483044949934242e-02
4.580478546294048381e-01,5.525585549183109624e-01,1.206819839810494288e-01
4.955846636547889816e-01,5.301482508498958079e-01,1.002657680906752224e-01
4.701001300655602289e-01,5.310549015123718908e-01,1.141407348582817033e-01
4.992025225045814141e-01,4.943854031272587046e-01,5.629269771711133130e-02
4.786138527854392200e-01,4.909337423885047347e-01,8.061251942273131577e-02
5.000458816349730995e-01,5.294054283058530208e-01,2.352750750541517111e-02
5.072112563869382029e-01,5.194945797841866719e-01,6.091319775429136774e-02
5.092611778435360836e-01,5.119563813497555183e-01,3.082155598280088629e-02
5.355723950477806472e-01,5.414039459682929989e-01,1.118049280677285984e-01
5.575225463725890229e-01,4.511211863160310975e-01,1.250211736032696974e-01
5.192878846661256320e-01,4.546510538939733115e-01,1.605415799591732029e-01
4.710518721867414937e-01,4.739688109184279630e-01,3.080368727964506725e-02
5.535228761960150345e-01,5.114050196263342229e-01,1.463872552331887955e-01
5.102454254017574353e-01,5.414076967020281517e-01,1.052174020345807981e-01
5.032529297771186627e-01,4.798666341581153683e-01,1.510623307963674666e-01
4.950279004863510912e-01,4.477146291678964496e-01,2.115848683133142796e-02
3.508718212448047047e-01,5.505181554284600542e-01,8.752532504378368605e-02
4.482026471342632212e-01,4.967428841046307997e-01,9.123687173589634103e-02
4.299933234844000585e-01,5.110797103408537545e-01,1.394006846201484573e-01
4.807473968609084491e-01,4.908066630677174191e-01,1.730526494935607507e-01
4.162058970134437930e-01,4.809034848903157577e-01,8.044109207512575854e-02
5.548146738820483037e-01,4.619793429900027615e-01,1.467301506707250902e-01
4.665200469354499613e-01,5.062565066468358577e-01,1.662680794131288220e-01
5.058256763905690789e-01,5.070537096348700645e-01,1.117004604615138147e-01
4.438450013953934570e-01,4.687141021935281593e-01,3.842209485099375849e-02
4.693426400676226073e-01,4.501865679634607376e-01,7.504222649637991294e-02
4.608412126966772160e-01,5.140790012593418057e-01,1.831344128870668608e-01
4.868011334551417546e-01,5.883403010395134025e-01,1.485937201301959776e-01
4.768645657484206768e-01,5.174273429481021092e-01,1.594900789093991189e-01
4.915027730181562027e-01,5.015905648247936943e-01,1.628442770732873024e-01
4.987968652355668775e-01,5.046046017274212758e-01,1.501692725471942269e-01
4.271299091854390273e-01,4.524214003937401807e-01,1.573124715189237743e-01
5.472927952149974073e-01,5.135734699769750611e-01,1.547754572164172504e-01
4.692759167387347552e-01,4.199799042934223570e-01,1.161584725273646507e-01
5.442053864491828152e-01,4.095008223411129022e-01,1.989774691005316287e-01
5.519781941291939109e-01,5.068204927616601907e-01,1.346878132039616704e-01
4.540687620336437691e-01,5.015103118543242644e-01,1.856908574525800992e-01
5.572774833134394035e-01,5.208159285439084574e-01,1.465637091227285638e-01
5.584829906468159466e-01,4.798497209948335285e-01,6.305609002841204569e-02
4.933456594498873415e-01,5.070026050839248066e-01,1.835029848570890187e-01
4.530760476686422900e-01,4.957564398634801694e-01,1.913883095257356282e-01
5.449352596643297630e-01,4.406668859255263304e-01,1.924912878049439002e-01
5.036439889216095533e-01,5.132771627972717576e-01,2.051760379159695280e-01
5.135299238795623111e-01,5.096736373347831028e-01,7.658503697701242452e-02
6.002169085920128211e-01,4.926115290578267913e-01,9.202222618958373623e-02
4.652454620599786872e-01,4.724032732466472706e-01,1.979868064096158009e-01
4.392043729652014283e-01,4.606418761733501732e-01,2.133264010137517486e-01
5.215201600642087598e-01,4.423035405198948999e-01,2.010609567745006432e-01
5.092436123001991000e-01,5.122919846661276866e-01,1.547423141302897154e-01
5.938068451368819778e-01,4.541033141932457329e-01,2.335013897923056969e-01
5.423356696472874106e-01,4.505747862796057324e-01,1.599258050873186843e-01
4.904882626070248830e-01,4.523320802196150736e-01,1.093338092552088164e-01
4.723816406796076950e-01,5.012934183901623930e-01,1.587801969843763150e-01
5.802273228602086164e-01,4.707395587497574807e-01,2.327722919186542561e-01
4.852594980240806932e-01,5.141631629060454678e-01,2.321825839648193335e-01
4.955172669685781184e-01,4.512899244613514105e-01,2.121742364350989729e-01
4.662346504211270504e-01,5.065611495049914259e-01,1.544181784766291698e-01
5.393478284190152960e-01,5.163571294776498899e-01,1.353749129500954607e-01
4.677529714635023650e-01,5.015859321862357056e-01,1.688175396595527900e-01
4.619294536359524472e-01,5.052677537178106304e-01,1.845348887520475434e-01
5.200757428440698771e-01,5.475257605521132165e-01,2.435907252440037141e-01
5.435492532672101529e-01,5.091000313128883903e-01,1.464437382794106790e-01
5.046180106265492071e-01,5.253037141213831029e-01,2.782077763264084180e-01
4.920865722279519905e-01,4.993505969126835753e-01,1.563577722948373272e-01
4.236658055975262016e-01,5.197969434219424922e-01,2.006153725806528454e-01
4.835597346373348704e-01,4.771822935261290088e-01,2.631474338829337678e-01
4.804932620153069545e-01,4.969542974819703418e-01,2.541239940595110824e-01
4.191152039969111565e-01,5.429602365434362810e-01,2.455123507601847388e-01
5.312619781559639875e-01,5.027501238135340111e-01,2.345751687092058890e-01
4.590047708792781012e-01,4.755925681771895897e-01,1.625020410805264326e-01
5.657482536311043697e-01,5.029958364443534169e-01,2.142764982875998703e-01
4.432539518112976751e-01,5.469183350014874545e-01,1.908352320068728292e-01
4.257989899277128121e-01,4.754386711801495968e-01,2.218767447929377856e-01
4.876551069022329599e-01,5.634150408725882020e-01,2.022991953127192544e-01
5.367809921089000680e-01,5.458381910201575149e-01,2.509393257293041635e-01
4.895425681419398045e-01,4.272784693444460768e-01,2.605062145327390888e-01
5.002144306023000864e-01,5.230622258124002499e-01,2.544857595847803133e-01
4.479078400806369986e-01,5.419618996766245589e-01,2.237645732979548496e-01
5.034160636790430132e-01,4.493653931530526280e-01,1.566433143256299454e-01
4.146935660395879575e-01,5.043399545816931173e-01,2.560461952067994429e-01
5.000339135643072641e-01,4.652526515771353566e-01,2.153048220785373501e-01
4.324412874431139420e-01,4.499586435031034393e-01,2.240901501576505750e-01
4.653104555441978096e-01,5.656873734875866866e-01,1.756119369173621825e-01
5.244810602624077056e-01,5.610327229009161032e-01,2.046422902006088396e-01
4.961493320096235782e-01,5.100589289357896350e-01,2.573734987049476342e-01
5.262628236245215918e-01,4.716762160455747477e-01,3.116175515036334054e-01
4.956332769046602471e-01,5.353758125149754576e-01,2.256913060181485187e-01
4.403642302423251276e-01,5.505685074834529846e-01,2.880923726068644886e-01
5.441884261240275134e-01,5.001595375859795300e-01,2.703521192009711860e-01
4.882917733931784743e-01,4.615660141457397225e-01,2.325551522312469255e-01
5.289381141586846358e-01,5.475398772288611049e-01,2.544812319020242075e-01
5.274105775934900819e-01,4.794575958801087778e-01,3.143874693324490432e-01
5.299881812503977052e-01,5.408511550051872119e-01,2.465864298419559453e-01
5.284869300983868756e-01,5.088678114966209698e-01,2.338078363154584283e-01
5.270331988916284738e-01,5.115564861242158923e-01,2.283773623979683254e-01
4.828417992259068092e-01,4.664253266462587422e-01,2.011599033598583108e-01
5.209001874095845475e-01,6.043505985729309415e-01,2.173281434048271177e-01
4.711308890659701154e-01,4.813549805785091729e-01,2.929730294190003304e-01
4.632807510832676057e-01,4.763638835644218306e-01,2.132871268509135831e-01
5.722399149702880328e-01,5.712426984359452176e-01,2.472994165920407439e-01
5.318314148840787015e-01,5.798863672541820780e-01,3.000679789271530340e-01
5.003236193602559334e-01,5.269062838331574072e-01,2.820881821636767040e-01
4.993791410783484097e-01,5.049791415966974339e-01,3.190925456732329746e-01
4.508567813027112847e-01,4.864725469012822212e-01,2.486635221681487429e-01
4.490364251581177579e-01,4.348892085495647541e-01,2.467884564727616525e-01
4.487851645192212913e-01,4.895526204334368914e-01,2.904352057899161621e-01
4.982826173728933106e-01,4.318234640083706832e-01,2.185715261449991675e-01
5.719205014536253850e-01,4.281069014144233686e-01,3.259078018754715256e-01
4.389106619543616805e-01,4.911113609216670728e-01,2.994795889816821433e-01
4.639384167503194933e-01,4.794217158767415943e-01,2.415412964667609241e-01
4.085729370951068362e-01,4.301944215455793530e-01,2.979026135526492425e-01
5.364079067542550927e-01,5.524982112531220402e-01,3.040120881586176882e-01
5.488988182375853508e-01,5.533466342790354098e-01,2.432536964372319921e-01
5.059839164970421077e-01,4.909021498011573725e-01,2.657814137811453370e-01
4.211246947946220565e-01,5.065563384595158647e-01,2.540060837880462885e-01
5.116114847738151283e-01,5.148429643175532755e-01,2.771030988046979116e-01
4.894632346834802972e-01,5.482221282885363367e-01,2.623345972890353539e-01
5.132225654076085775e-01,4.775688353474538128e-01,2.310165651764987949e-01
4.892964112886168393e-01,5.179654837715520488e-01,3.108192300682216525e-01
4.161993898846538253e-01,4.865020238813754783e-01,2.648048341250135995e-01
4.712240580056460404e-01,4.322303308320975535e-01,2.264248808927462331e-01
5.067995835596500465e-01,5.332596802985984930e-01,2.952285393946738612e-01
4.508427354135574605e-01,5.414140302356066359e-01,2.238109865994832304e-01
5.547221282747584192e-01,4.752442347893923724e-01,2.568182546532893351e-01
4.697792802800715983e-01,4.536461844056869919e-01,2.304973092723886230e-01
5.336491503514861900e-01,5.330074108931193155e-01,2.541597638083290533e-01
5.575397361415711517e-01,4.887270330769390991e-01,2.753069142471212261e-01
5.200104478573828182e-01,5.316628517618774419e-01,3.311552813929085071e-01
4.967117938495403395e-01,4.816130231617057889e-01,3.149245736125202977e-01
4.890929769744243871e-01,5.484477988471343490e-01,2.858160200125610673e-01
5.138124932621250807e-01,5.271024369227742534e-01,1.822262367091189161e-01
5.767172136055414011e-01,5.562627895869820538e-01,2.814083372611122513e-01
4.940899482741344939e-01,5.013465464913490210e-01,2.480056981511736258e-01
5.112161375249306694e-01,5.243991252490375343e-01,3.081102687106435090e-01
5.008829024664367413e-01,4.866576113958862027e-01,2.426823545607680599e-01
4.515337509668727600e-01,4.956492932219897507e-01,2.947375996021027178e-01
4.598510865004744042e-01,4.676783691956649669e-01,3.117721738754771765e-01
4.726495284692318055e-01,4.481925061447822323e-01,3.316704143654845005e-01
4.713022846869448501e-01,4.804264547756759152e-01,2.802062502082298123e-01
4.918531823678785608e-01,4.976002333202113048e-01,3.444135621888919085e-01
5.065306381769191235e-01,5.530044115002101801e-01,3.203811961229709460e-01
4.978251384998482187e-01,4.539385005411463170e-01,2.808432926820219611e-01
4.984796948304502373e-01,5.415808593225093226e-01,3.044108467697063114e-01
4.442761739395384990e-01,5.535848679426178531e-01,3.008211721309761444e-01
4.521082986900709089e-01,4.769275147660192449e-01,2.794674443146171749e-01
4.232644512808294568e-01,5.261526483333516246e-01,3.190738377197661624e-01
4.582084604775925607e-01,4.215057307078570181e-01,3.063232065032059359e-01
5.158548672766208876e-01,5.216973454508325725e-01,3.379451455630990142e-01
4.833144097232368597e-01,4.822274619659768780e-01,2.782340530785977206e-01
5.175811226350960359e-01,5.803853466631266889e-01,3.463942740755915350e-01
5.296702704498842396e-01,4.638364263122590203e-01,3.132909467148586313e-01
4.610529874642912418e-01,5.084866246117496491e-01,3.023169690703825796e-01
4.909075401557788654e-01,5.692093483580605850e-01,3.236180429419299731e-01
5.233973453032890744e-01,4.867507298310702057e-01,3.552209164354967474e-01
4.606906956495055439e-01,5.040268105315021119e-01,3.674899732752626158e-01
4.426907738844240714e-01,5.927896563267918140e-01,2.554860085578967710e-01
5.483352829726987343e-01,4.956433863636653392e-01,2.943143142542345991e-01
5.290270905099987431e-01,5.138844104570789995e-01,2.836281416251995036e-01
3.551878477681289503e-01,4.284519090993647028e-01,2.127097256129971692e-01
4.634575695267391104e-01,5.306438046703169098e-01,3.138211472038338612e-01
4.430242812614040848e-01,5.004752193417574269e-01,3.198238526323882169e-01
4.820642864150652129e-01,5.179127492693316182e-01,3.671715609841323391e-01
4.795300623105812621e-01,5.270475080469334550e-01,2.910904638376867748e-01
5.476619982209743887e-01,5.554623590389169419e-01,3.305588605670151114e-01
4.926899995404702137e-01,4.640872204326357831e-01,3.301712220674763998e-01
4.862338059501689069e-01,4.878737102647801582e-01,2.983513632636666801e-01
4.644865355410053298e-01,5.599954546466779925e-01,3.686073497516677011e-01
4.410905924855902938e-01,5.134457236869063301e-01,3.527338151166821145e-01
5.141999244598386420e-01,4.944587329197506209e-01,3.841242827661971448e-01
4.561923817274721182e-01,4.797454515664626440e-01,3.551600407253653890e-01
4.842316545317786325e-01,5.378397183343789356e-01,2.921168425723828510e-01
5.127164595986831719e-01,5.260869531469473115e-01,2.928034799104340946e-01
5.291397047607833137e-01,5.015367128507383088e-01,2.981853335133579086e-01
5.072163617526906920e-01,5.031013422323112882e-01,2.937834773427003832e-01
4.718902011140656549e-01,4.604783654870117093e-01,3.685097510207741567e-01
5.365210630644237089e-01,5.047372457977347127e-01,2.867291268202435961e-01
5.435281865529313361e-01,4.643860004703522781e-01,3.162625652612641169e-01
5.034794803609309310e-01,5.101249793716794434e-01,2.981535477505127263e-01
4.818599735964594899e-01,5.069226400349771122e-01,3.710882902301842479e-01
4.744667992917154242e-01,4.984988930685126385e-01,3.519105030014381130e-01
5.010910762088243153e-01,4.397542952282283424e-01,3.334818730459860325e-01
5.296899838563609020e-01,5.441644348050864721e-01,3.902978071727637444e-01
4.529956605982544682e-01,4.800371552798463060e-01,3.165228625041746624e-01
5.257228297096704361e-01,4.159929059224703463e-01,3.150290202689897678e-01
5.557173429049357960e-01,5.443437129708504907e-01,3.559980100144989335e-01
4.955102929245707721e-01,4.866738834647102441e-01,3.446709749835809022e-01
5.642000671935970546e-01,5.037475218112451580e-01,3.684392327334725104e-01
5.902080494655036480e-01,5.190275184591373048e-01,4.304147230507014976e-01
3.636199961266588510e-01,5.173162566550846275e-01,3.176263465137857955e-01
5.042279340181591296e-01,5.444639657498987484e-01,3.208906526290346006e-01
5.843114970878945380e-01,5.191046609181747540e-01,3.623896850842847073e-01
5.496947123374961164e-01,5.240551505359637430e-01,3.311180413776180775e-01
4.373170920888739266e-01,5.045597525291369845e-01,2.872267659773218296e-01
4.341811212282986610e-01,5.051127458431955430e-01,3.681412118764402219e-01
5.284342871324222424e-01,4.695222315150051062e-01,3.512962550734916589e-01
4.497111423670466790e-01,5.044465465865286546e-01,3.395463587962826435e-01
5.209089811179841156e-01,4.768802850884296118e-01,3.377354498627120338e-01
4.873608775709149521e-01,5.424814515706494200e-01,2.798985540250483739e-01
4.936447442209506153e-01,5.020274394217907332e-01,3.357815145464587148e-01
5.059150268950197704e-01,4.812121725560010721e-01,3.833158924318971761e-01
4.705875426782529791e-01,4.709766163816258011e-01,4.278436501615993093e-01
4.993789009502697662e-01,5.090890404975912942e-01,3.675126752900629290e-01
4.855137659026027008e-01,4.997195863138828575e-01,3.541571190015867510e-01
4.932201268030920738e-01,4.762718954887975031e-01,4.083612039238508351e-01
4.596685649111755256e-01,5.026265448432140071e-01,4.135788028094065649e-01
5.714411715740679298e-01,4.725517108718234049e-01,3.446926738385309719e-01
4.903049260113477859e-01,5.219818681990819886e-01,3.709091155886449775e-01
4.852685853623402434e-01,4.878988259798108795e-01,3.764877407607591930e-01
5.347958917917359223e-01,5.333972609614286986e-01,4.165016354365866924e-01
4.322775419899262950e-01,5.275275573041383614e-01,3.340251806122070954e-01
5.161105399312063691e-01,5.412990297777143800e-01,3.769007111996494630e-01
4.681897333836047559e-01,4.961341682790576524e-01,3.549232661105239384e-01
5.073320332195270232e-01,5.281376050304480430e-01,3.487852494051732477e-01
4.810623826603470654e-01,4.229777267821990261e-01,4.024682653407894994e-01
5.352606290237856834e-01,4.868273111100751560e-01,3.994936325989331127e-01
5.226202624467747304e-01,4.786201430384265931e-01,4.318775170722742307e-01
4.669567809354384091e-01,5.358483259184552150e-01,3.503810192898021980e-01
4.489923773039778410e-01,4.852343020398316997e-01,3.921269957644374915e-01
5.007046596970639030e-01,4.804800963929191648e-01,3.782231910483519477e-01
4.911027165478235590e-01,4.842969975395658988e-01,3.875178013650333320e-01
4.198843562399586782e-01,4.330758986822188517e-01,3.246862265742676557e-01
5.444090680781811242e-01,5.334588808798053083e-01,3.612108180175153116e-01
5.141151389171633168e-01,5.087252395834099827e-01,3.606300924503852978e-01
4.816358849893391803e-01,5.403420620903670590e-01,3.313791776952391133e-01
4.680971067556780052e-01,5.064172793060068845e-01,3.625582335238722864e-01
5.158393747783884820e-01,5.532200893639132033e-01,4.028084082172067593e-01
4.789572023980516735e-01,5.543375182786608457e-01,4.062081831545157895e-01
4.334301101537748613e-01,4.989759047465850972e-01,3.959867804163574312e-01
5.327594736917902196e-01,5.149873469159873540e-01,3.890884466239117323e-01
5.344179674389422097e-01,5.080130355067844494e-01,4.375461721384247271e-01
4.883749506133268081e-01,4.686889486050271891e-01,4.089343430241777488e-01
5.142292447585050663e-01,4.447565734326164311e-01,3.929467874191909793e-01
5.424704955316609345e-01,5.077847862390127975e-01,3.184845810359079876e-01
5.584343107326830147e-01,5.253673445569981837e-01,4.407398690873666758e-01
5.497661797406375728e-01,5.230175007250059682e-01,4.256954906783610992e-01
4.962039089848937490e-01,5.754455025505794685e-01,4.188268485305568500e-01
5.680593329969213512e-01,4.712452120665814870e-01,3.218397972170644605e-01
4.664641662944082334e-01,4.930318821980655408e-01,4.294570960186556152e-01
5.226768969019774946e-01,5.315703107545134420e-01,4.309334809652020648e-01
5.523819506915089717e-01,5.362699053216686274e-01,3.061033539955249627e-01
5.590574555894094466e-01,5.233097036704884575e-01,3.464058995676883024e-01
4.502405815275559164e-01,4.852094113423687238e-01,2.856747813552460991e-01
4.890020687867626670e-01,4.955483138323192316e-01,3.315478278876101137e-01
4.909846567543855733e-01,5.283059831823624375e-01,3.589734791531195568e-01
4.755507182119257936e-01,5.167567414975885454e-01,3.475520080192677219e-01
4.786830781190793971e-01,4.808126225308355650e-01,4.060540532890066778e-01
4.733210425272801336e-01,4.187798392914419132e-01,3.265835058347823505e-01
5.109302395478784176e-01,4.872782259548996686e-01,4.006129482300131994e-01
4.890594881154147200e-01,5.268788274635481939e-01,4.147994985030561965e-01
5.552168089713508392e-01,4.455597429415714683e-01,4.112396007897485273e-01
5.813922020860988749e-01,4.897129098247809953e-01,3.831788197057419687e-01
4.851319757373104280e-01,5.152119537688181206e-01,3.560992256987577376e-01
5.622491751037725916e-01,5.093569297458037104e-01,4.071156437826745078e-01
5.162067358174551313e-01,5.051493152063456504e-01,4.064741278200371677e-01
5.430724042800446627e-01,4.105252538898663817e-01,3.348658562181854870e-01
4.707072180713248177e-01,5.322254645096454739e-01,3.665252798169096327e-01
4.256259255208276193e-01,4.469090314619815762e-01,3.574479746741061059e-01
4.880686983056383710e-01,5.173788552457234680e-01,3.675608583950999986e-01
5.016813317186217258e-01,4.968814445502189869e-01,3.455102779880603325e-01
5.935576302644731683e-01,4.808883270952934441e-01,3.967568237867067915e-01
4.945588808365924960e-01,5.149095322356299631e-01,3.080344375134211332e-01
5.480756004335737286e-01,5.484439105773805112e-01,4.266078055981440964e-01
4.840569282004716367e-01,5.928902346819265867e-01,4.273851259648264733e-01
5.118139488732389442e-01,5.825855816512449659e-01,4.002140988333676708e-01
4.776383144425369598e-01,4.545232273143324786e-01,4.072388465869031249e-01
5.061818875503997228e-01,4.650321312602315182e-01,4.626978950580623584e-01
4.264184465333527019e-01,4.644152481346928152e-01,3.930555613748581978e-01
4.796552822635825608e-01,5.848376760046223310e-01,4.073851141230297457e-01
5.180642043653607143e-01,5.225209820343831302e-01,4.583738149439068321e-01
5.242284023371099888e-01,4.514841478895049720e-01,4.497326091924932490e-01
4.846200953967542691e-01,4.541763672690312115e-01,3.834438415991014426e-01
5.934682889045086451e-01,5.011630931779565978e-01,4.207683953261344700e-01
4.540273754816101515e-01,5.159742149335799777e-01,4.206692498446198969e-01
5.561884436168383905e-01,4.255346806223138656e-01,3.757873052650835821e-01
4.591734532093126875e-01,4.850173002877432027e-01,4.081373580094094233e-01
5.068292562672306323e-01,4.579993513428607943e-01,3.913436119776627087e-01
5.145299396211214793e-01,4.770342859825439374e-01,4.272771893758263162e-01
5.251084443252818090e-01,4.835588288256045253e-01,4.185311470674624168e-01
4.349848002976288708e-01,4.274449764692668796e-01,3.789271837115338326e-01
5.809933328628276161e-01,4.376059807027034565e-01,3.526656111946802064e-01
4.923214495299093052e-01,4.831533660140057140e-01,3.945266703086248716e-01
5.860785760164013425e-01,4.286755452693573054e-01,3.547573982795656500e-01
5.064526331043155416e-01,5.036581598897875711e-01,4.898426312357269108e-01
4.530145453618313889e-01,5.136391252194859591e-01,4.568924180725071338e-01
5.598336853511159950e-01,4.787595048503194839e-01,4.319374897168116734e-01
4.833417319339313178e-01,5.842913287511213305e-01,4.187196458275390110e-01
5.029222156075665584e-01,4.957109995878862807e-01,4.540610144372747015e-01
5.102721897208205570e-01,4.999672527518988496e-01,4.357446698241659866e-01
4.898610761596506324e-01,5.433798242269445300e-01,4.186278640703916532e-01
5.171048114389956707e-01,4.770981256168885243e-01,4.606812316257075657e-01
4.928586392798489091e-01,4.571841366693928932e-01,4.938532498827088446e-01
5.532000243093244674e-01,4.808037024252855840e-01,4.257367888288743907e-01
4.735175835899050334e-01,4.473255954548995827e-01,4.220572644490632741e-01
5.808705643150554598e-01,4.973202595333193754e-01,4.297984650119718308e-01
4.585745765160775811e-01,4.840683305698588734e-01,4.608647623006589811e-01
4.522638232838635530e-01,5.069075816114625432e-01,4.126841995154673648e-01
5.114866416626367984e-01,4.732358439139730533e-01,4.402111720357375635e-01
6.123699454258256791e-01,4.566588384036772141e-01,4.066841516741308560e-01
5.739163191013242349e-01,5.962317976251878537e-01,4.424417035845870649e-01
5.127793461810215003e-01,5.295053546532830779e-01,4.436752128958239560e-01
3.621657918459559311e-01,5.374869001186014517e-01,4.822663271827903331e-01
4.642656190508140379e-01,4.788057260428814077e-01,3.691606492752064761e-01
4.679268900601870618e-01,4.862078315470277357e-01,3.896084779805181753e-01
5.354017558364985163e-01,4.771139848104168357e-01,4.729857139147852219e-01
5.309533756387454506e-01,5.390669513883490360e-01,4.592332704265035259e-01
5.073338612985726082e-01,5.415020960929913807e-01,4.129817479770242494e-01
4.520670341007744786e-01,5.295437380815086748e-01,4.263119203143910796e-01
5.974512106496908670e-01,5.157953928390560661e-01,4.471855375125447507e-01
5.189552378678093936e-01,4.468373402805519978e-01,3.754906866792922515e-01
5.165814027142816567e-01,5.186378047150473902e-01,4.661892132214684459e-01
5.652801447287089109e-01,4.155597227579279074e-01,4.470026863565340625e-01
5.127231067446608170e-01,4.565812393662054824e-01,4.659921613181087219e-01
5.031158007296009371e-01,4.674485916240957439e-01,4.036673967862278167e-01
4.848696599737388757e-01,5.189308206361156195e-01,3.984887516229027593e-01
4.412877801671636901e-01,4.344477568686324620e-01,4.825985309190537476e-01
4.529214349285035079e-01,4.693087175013896384e-01,3.516836138175430948e-01
5.029460754572006032e-01,5.266055439721600839e-01,5.153822617590073651e-01
5.494415169108544106e-01,4.904067569515597191e-01,4.229370674229562810e-01
5.415415494371649263e-01,4.731144557745993739e-01,4.507375201899783690e-01
4.556704539965627521e-01,4.232908817255577327e-01,4.276838453389867900e-01
5.209446599015554735e-01,4.048429066534143805e-01,4.244572436542588534e-01
5.081166979207697443e-01,4.448600787748774876e-01,3.683700556322472841e-01
4.988306407561658440e-01,4.356769282470622784e-01,4.304534335047429661e-01
5.275857778074521942e-01,4.649071106999697611e-01,4.445391528141545701e-01
5.032460838073962162e-01,5.003212919750023024e-01,3.683167124765872047e-01
5.109050537423824867e-01,4.798948050289507106e-01,4.324434645714080316e-01
4.552891879175517409e-01,4.668102326355061948e-01,3.510310808586380449e-01
4.832411162566206952e-01,5.286777589978083336e-01,4.202506133819025047e-01
5.224718076857275406e-01,5.136611170408914573e-01,3.527460541623065327e-01
5.213210659715088457e-01,5.036266718297113254e-01,4.529406335298496455e-01
5.327545160442026528e-01,5.726577678948348016e-01,4.805373681268002017e-01
5.438468416157341556e-01,4.516650721590139139e-01,4.481079091321198971e-01
5.367308295849768651e-01,6.014010531924172120e-01,4.919706242723815293e-01
4.501802425156384846e-01,5.130947978161912726e-01,3.642666435046487683e-01
4.980178889506682860e-01,4.583673542570531612e-01,4.467423941732001080e-01
4.974596101080031585e-01,5.048823534834163684e-01,3.883096701136576900e-01
5.591308116777744530e-01,5.272162260128802069e-01,4.541152563318328061e-01
4.967727104714824149e-01,4.804512681127824369e-01,3.954386869889280343e-01
4.737269166068934778e-01,5.154560380792284624e-01,4.299305912046420541e-01
4.365609304953723124e-01,5.637796628975917379e-01,3.326776031872088479e-01
4.827517022080288212e-01,4.411493933894183872e-01,3.882537567844000503e-01
5.660048091269582748e-01,5.174847318385474848e-01,4.566450967149225937e-01
5.290727959267162994e-01,5.451578211510097471e-01,4.160081526446065547e-01
4.713045596049912356e-01,4.314718323593388916e-01,4.536592300748727991e-01
5.647490825196658237e-01,5.016026537710147615e-01,4.877137020478799490e-01
5.298554508389642370e-01,5.836368984154903794e-01,4.324371480264830869e-01
5.626478896431684751e-01,5.078046921334155028e-01,4.229207111157698429e-01
5.209886779944686852e-01,4.818694884817130153e-01,4.454390780876738010e-01
4.414274852989529818e-01,4.692942901796389732e-01,4.562399090992473316e-01
5.031209758801636900e-01,5.048721303066980859e-01,4.051529202969108012e-01
5.767784554501027561e-01,5.249815544475430196e-01,4.574809467825282083e-01
4.662591825864383921e-01,4.908880427036497740e-01,4.485082845959734721e-01
4.108783724859822462e-01,4.556439038130898345e-01,4.498011309629944554e-01
5.139266331483103301e-01,5.095826836459292908e-01,3.782515878962162681e-01
4.901722231997308055e-01,4.435056092074546874e-01,4.045822135870446590e-01
4.337337668456255901e-01,5.903701227241827665e-01,5.483814250704707183e-01
4.964066561746232620e-01,4.915009408235237465e-01,3.783209728750943635e-01
5.758358114258318450e-01,5.766532071119367941e-01,4.358880915137456347e-01
4.935977787145986451e-01,5.095796587170264846e-01,3.783927116726633066e-01
5.399537746724769605e-01,4.842453136545240011e-01,4.232065766900401926e-01
5.055433926477026496e-01,5.132773961509694560e-01,4.136978120793497471e-01
5.420770641059275974e-01,5.024451085859183985e-01,5.013702277672265062e-01
4.658234341985318383e-01,4.618745957063165042e-01,4.917364493772256595e-01
4.833278068487495971e-01,5.025098451537094446e-01,4.423678810893225122e-01
4.251192501252998301e-01,5.407710591113034093e-01,4.297263445777654844e-01
5.370929337824661420e-01,4.757197257859355211e-01,4.358693947654762035e-01
5.268019263267704755e-01,4.903271952343399298e-01,4.696398541233938184e-01
5.954499694613685223e-01,5.190725691160075206e-01,4.612340987949727356e-01
4.572988731085851910e-01,4.797618197572258714e-01,4.804904810357262801e-01
5.104519399740258256e-01,5.827258879747858611e-01,4.120149094189972105e-01
4.629498148266174007e-01,4.929804212708859268e-01,4.420014586359409248e-01
4.761812251148631048e-01,5.299895742259798093e-01,4.034082668620247447e-01
4.948275624621454871e-01,4.729314335137748126e-01,4.301706473186836521e-01
4.458062721717275245e-01,5.286874494196796004e-01,4.588601256889049407e-01
5.133585200480482724e-01,5.016231908711534793e-01,4.809878783133094693e-01
4.786308934530179027e-01,4.988026766149166735e-01,4.511789425210235849e-01
4.868904476606693010e-01,3.857418379476931225e-01,4.277869346856952304e-01
5.086797908738900365e-01,4.677155784832824903e-01,4.452219886595875087e-01
5.545037905190138838e-01,4.863580647952017166e-01,5.078140597263931522e-01
5.449330358634195681e-01,4.881627185336372965e-01,4.345000527724269812e-01
4.778089930048070033e-01,4.856670532696165110e-01,4.611508559735904011e-01
5.344504732082463461e-01,5.041521928253348550e-01,4.630885595134743293e-01
5.509960269422183865e-01,4.902244754147950800e-01,5.186777032225788897e-01
4.957014479548350616e-01,5.108792719446756392e-01,4.751335538955061555e-01
5.448564849994317338e-01,5.178211058876491801e-01,3.880004396547797607e-01
5.830723556688903741e-01,4.716184760320730196e-01,4.309269968204387236e-01
4.486864324948384719e-01,4.638790495275422199e-01,3.745369411355394251e-01
5.059768202280496840e-01,4.881792732962813575e-01,4.579224553763578953e-01
4.368236506799540453e-01,4.948318029352772873e-01,4.907958805864413021e-01
4.451627880158917638e-01,4.798914627298917490e-01,3.898099885340668980e-01
4.339579343458863092e-01,5.057848169262684213e-01,4.349427478556415205e-01
5.390680263529084026e-01,4.965817659060933198e-01,5.260045260774647291e-01
4.761621308302316780e-01,5.364936402165928486e-01,4.604874484971540616e-01
3.953133993288603931e-01,4.682179241842751027e-01,3.755097336063973334e-01
5.520234604086953212e-01,4.820442790441222813e-01,3.767415996990200466e-01
4.362169225409628925e-01,5.281834961769198422e-01,4.276247327376043739e-01
4.306311940458985021e-01,4.863177897545007955e-01,3.138115459011932562e-01
4.720941494096959623e-01,4.129030815942100752e-01,4.164730852191178556e-01
4.678610434200100032e-01,4.614579687450984236e-01,3.740438238454283360e-01
4.850632255273604199e-01,5.279607092102230892e-01,4.225172499154981609e-01
4.996286227160233184e-01,5.035365039696653167e-01,3.863636853214862388e-01
5.367473433642415692e-01,5.259239198978153951e-01,4.083217883728620379e-01
5.426296113690416423e-01,5.790634923832104208e-01,4.482764951990405033e-01
5.258753124877058038e-01,5.128812120233585681e-01,5.100315836537034908e-01
4.156826962396344416e-01,5.129253753156061135e-01,4.735202196448865530e-01
5.332706859729148263e-01,5.554989519668753761e-01,4.932081872177772053e-01
4.599673713920108820e-01,4.986367688257187236e-01,4.716590535487324987e-01
4.543987210180290282e-01,5.155376305297817430e-01,4.311761770640533675e-01
5.091997531388917642e-01,4.143468339999629713e-01,5.284947333959975069e-01
4.498918645698886665e-01,5.118035296387845046e-01,4.073327487952110859e-01
5.258516995169520980e-01,5.449248112863633864e-01,4.760782601757970189e-01
5.275584196853622121e-01,4.717155653807714732e-01,3.833307345172484726e-01
4.655150343921013456e-01,4.230050514039309095e-01,4.047438439326837001e-01
5.600893396901754917e-01,5.151747351908975148e-01,4.939156198198599856e-01
4.983945901918363508e-01,4.761013982124185362e-01,4.564932188369811294e-01
4.892741238214226573e-01,4.798175227702037859e-01,4.701132419183229882e-01
4.507201554305986235e-01,5.055364399784995078e-01,3.841734352030235500e-01
4.575806062532641327e-01,4.838076135516172216e-01,4.482140846413114055e-01
5.320488192148040696e-01,4.730951725104811101e-01,4.158534170468760616e-01
5.248231686535563822e-01,4.457925135446181852e-01,5.379540542133336434e-01
4.804891075308265758e-01,5.639928690865247951e-01,4.128736314275333052e-01
4.865646200719349612e-01,6.218224811273777020e-01,4.339677836694311730e-01
5.043567044796716248e-01,4.907855717363917569e-01,4.578426813064094825e-01
4.833510705498730853e-01,5.709961714227752561e-01,4.444307755652489589e-01
5.813251779150554466e-01,4.697789342557993075e-01,4.366863447392476116e-01
4.686095566417248781e-01,4.923479596072614650e-01,4.355525010919571449e-01
4.750494683105731530e-01,5.559499002327995543e-01,4.938539095577712534e-01
4.453196775122336137e-01,4.803238045834985481e-01,4.127335441668494309e-01
4.913529947631194439e-01,4.534745939757651167e-01,4.859823056741484626e-01
5.559626393577367098e-01,5.504596354934772062e-01,4.458246232523171426e-01
5.091707111729800728e-01,5.848164558052879602e-01,4.442234386120796907e-01
4.755375655173108007e-01,5.565758944777341455e-01,4.889244591718270305e-01
4.677970704182354833e-01,4.363979216019274743e-01,4.854904985883176094e-01
4.199916697305684510e-01,4.972418619103528559e-01,3.779695233541606192e-01
4.741515343182174935e-01,5.460623725582945953e-01,4.600852444819843456e-01
4.372187299228090795e-01,5.156941033037765187e-01,4.857916914393473617e-01
5.188450331518085212e-01,4.477622357851389623e-01,3.649228781439904923e-01
4.872401540187871194e-01,5.214712741193906487e-01,5.755042506034716565e-01
4.585076600785756851e-01,5.432454578309926507e-01,4.405478659322442092e-01
4.565161843815676024e-01,5.414435932715785382e-01,4.757550571572364828e-01
4.927298438482234366e-01,4.213414668012485653e-01,4.728587252070928226e-01
4.764387991169401482e-01,5.270282723571184658e-01,4.626825611708151320e-01
4.571869578132784495e-01,5.383881033125306192e-01,4.792230022683200419e-01
4.945600049111869567e-01,4.499998136982533703e-01,4.585776604647121002e-01
4.668236471864826709e-01,4.823843773874493257e-01,3.953382586664214160e-01
4.503440125931169602e-01,4.862202721397840821e-01,4.601701478727354688e-01
4.475434428832319456e-01,4.972360197951944949e-01,5.111031620913205620e-01
6.392832702977125914e-01,5.082977875420202629e-01,5.426061945921124563e-01
4.879961529554970867e-01,4.772959134590160080e-01,5.263653588964811725e-01
6.253661876785351348e-01,5.050691745162115831e-01,4.516175675362401609e-01
4.856554952622803567e-01,4.762463481000897003e-01,4.103178438409588735e-01
5.159345185203091377e-01,6.007903562322500779e-01,4.484830338676349393e-01
5.981425355625404894e-01,5.068920141326241913e-01,4.805472198280177909e-01
4.827213716266676724e-01,5.023026388387986652e-01,4.532578240224357513e-01
4.821370205573508039e-01,4.607755533109827994e-01,4.446012272315024161e-01
5.243932858558114640e-01,4.908558808152274633e-01,3.895787513947276959e-01
5.460466855029603161e-01,4.426312753700894498e-01,4.762956897843342308e-01
5.475406273519265454e-01,4.583806648161783404e-01,4.892342644281505448e-01
5.218458279559929913e-01,5.537848939548779548e-01,4.237067422513238202e-01
4.687644940067284827e-01,5.338335536318993269e-01,4.748323248435371013e-01
4.920725002177668284e-01,5.408578319576882176e-01,5.210574692584325485e-01
4.289306833938285046e-01,6.009230022657111592e-01,3.991848034913695886e-01
5.020086806813223168e-01,5.637137755817759333e-01,4.730069955520452285e-01
4.241015584081557765e-01,4.909585031358389973e-01,4.450409389230931545e-01
5.117929644789774857e-01,5.413009321170969557e-01,4.459294541568167292e-01
4.803330649016768206e-01,5.181012910643657543e-01,5.795629005290103830e-01
5.880480155204104165e-01,4.678218558272801419e-01,4.843164756672517779e-01
5.223024836803461524e-01,5.445401484864133002e-01,4.068691671057669823e-01
5.132246856812048286e-01,5.381662251734946611e-01,4.427049454948480123e-01
5.332632335735314477e-01,5.657904598501751758e-01,4.625946867737490975e-01
4.973003168822021092e-01,5.292135853213596475e-01,4.628889900613376018e-01
4.690850774236548504e-01,4.800207996272765065e-01,4.730401212711380921e-01
4.691836188474453606e-01,5.395961290364189589e-01,4.515465557026491772e-01
4.812083353680816633e-01,4.575963744096563923e-01,4.841883556668193367e-01
5.440277113000696607e-01,4.683828494993290126e-01,4.601324142379901727e-01
4.784500957959474943e-01,5.057748303481026664e-01,4.745584996151049895e-01
4.757332769554996621e-01,5.192350664634659552e-01,5.354187420465497116e-01
5.016733862379226805e-01,4.605557399400290741e-01,4.162433557783327132e-01
4.639868490054019357e-01,5.422671303060300207e-01,4.490623155355967788e-01
4.531168533964812228e-01,4.668960818366209020e-01,4.468695469040717128e-01
4.881185644267032608e-01,4.766511286481953658e-01,4.851562525238992674e-01
5.568617256386533265e-01,5.112860108466719122e-01,4.691127922932138428e-01
5.318301455197251837e-01,5.407057139760513831e-01,4.815886593118576808e-01
5.023744697235036361e-01,4.809466080287398415e-01,4.266062111270996771e-01
5.130911427250939294e-01,5.365038045146270917e-01,4.132959033045146002e-01
4.841219200239096909e-01,5.156832223329024245e-01,5.239355593023602431e-01
4.792544931170032996e-01,4.583233027428524342e-01,4.940760231989937412e-01
5.273973154512981987e-01,5.177045853220471061e-01,5.100193653112208292e-01
5.132064434125370722e-01,5.406849441731312877e-01,4.231544553934661335e-01
5.415204343801959253e-01,5.071658931456016761e-01,4.263728499720456644e-01
5.291315550472879270e-01,5.160364219108881656e-01,4.401884105811231240e-01
4.519089911896866929e-01,4.812208590464358560e-01,4.277155350215638974e-01
5.268662334366333022e-01,5.214203668939115799e-01,4.828702544029824240e-01
5.604398967341438498e-01,4.961645011673240235e-01,3.981500545868152385e-01
5.121009188716564298e-01,4.501168839836257596e-01,3.973599859204081652e-01
4.524297651527219855e-01,4.583957367471345745e-01,4.931042463541166487e-01
4.402211322678016292e-01,5.774101598352056053e-01,4.828128926577243685e-01
5.338613672777582364e-01,5.648703697372772226e-01,4.541715503358872974e-01
4.979204392388956735e-01,5.101680243690133176e-01,3.137770997389732197e-01
5.051098996234109073e-01,5.428962334176564708e-01,4.460677732632225556e-01
5.043997604450479733e-01,5.123729007011968983e-01,4.911365829253034887e-01
5.246600118574703542e-01,5.061840685944420937e-01,4.343075790174724116e-01
4.536944255537253556e-01,4.489828095292345833e-01,4.698469399454728856e-01
5.056029126071168722e-01,6.126533280498935863e-01,4.038627032792548310e-01
5.291447388014474118e-01,4.784306357005723154e-01,4.855684831178888050e-01
4.357278255570635195e-01,4.778355544161587698e-01,4.579466970718665819e-01
4.418421699843778638e-01,4.934685915914037713e-01,4.784108529925976683e-01
4.921810908711010679e-01,4.967602485509569066e-01,4.646470618082583215e-01
4.796224949010491345e-01,4.988789422944404084e-01,4.950057632110600458e-01
5.419536427854224625e-01,6.494032889509058215e-01,4.920527244408381962e-01
5.187603526518393959e-01,4.453912090147351122e-01,4.790533737528665514e-01
4.344253525966266793e-01,4.979995755409227232e-01,4.884556817078593571e-01
4.620919650750866525e-01,4.684930187350931918e-01,4.024340908826986585e-01
5.187144734564689275e-01,5.384806364924610289e-01,4.456856763102268748e-01
5.597656151944220282e-01,3.874169932681277295e-01,5.171323587421716717e-01
4.829222645600857455e-01,4.377384785272364631e-01,4.635073963792806229e-01
5.358797750627377621e-01,5.386767012689529510e-01,5.282420456985367219e-01
5.458566240153593929e-01,4.478785951436514701e-01,4.305147588452069018e-01
5.211713459474726085e-01,4.827593302151443888e-01,5.010982516019982791e-01
4.975551008842046263e-01,5.630449153291792186e-01,4.655418722436110435e-01
5.433224634905517991e-01,4.268965014919353651e-01,5.223761222370508772e-01
4.883723648512111604e-01,5.208365370052955301e-01,4.977841080192303980e-01
4.036887464755308796e-01,5.126518936946895533e-01,4.785341494592084133e-01
4.647752613879885808e-01,4.614080867047860024e-01,5.202958505314615456e-01
4.964130252949626176e-01,5.971880502933265555e-01,3.849812257325161968e-01
4.721071987062481212e-01,4.838980186716452248e-01,5.716083659845717646e-01
4.955136425908222009e-01,4.928061918320856827e-01,5.265259440944086711e-01
4.796400348735264663e-01,5.045804644601673550e-01,5.429439229482022622e-01
5.046284344256976029e-01,4.832444547939370727e-01,4.614291804679057640e-01
5.164846408375449727e-01,4.631220029815798500e-01,4.677399964766540963e-01
5.056036406337046651e-01,4.941216322671336814e-01,4.177261380831887583e-01
5.125844952126260567e-01,5.617456951416728295e-01,4.527889733677036843e-01
4.903958618335236830e-01,5.322954510532078576e-01,4.941462919177729285e-01
5.617571030608681237e-01,5.077561617387175152e-01,4.369125500070071277e-01
5.231050736317071070e-01,4.990963701236089678e-01,5.285340328414677158e-01
5.545845201891747012e-01,5.182483747267113694e-01,4.635963256522861453e-01
5.150393032486040301e-01,5.472886942976248337e-01,4.162658396079034206e-01
4.465666735780490226e-01,5.358324722478550184e-01,3.991734294124471005e-01
4.826029263221754406e-01,4.931737656854803808e-01,4.669038266579633722e-01
5.892750424265613685e-01,4.683043544996590701e-01,4.611094615158498056e-01
4.900138219970827103e-01,4.937503242485000166e-01,5.011656421710134479e-01
5.162958913870910882e-01,4.504395443329538562e-01,4.309123219193555232e-01
5.199292616756128194e-01,4.892934514456699913e-01,4.681625775344310236e-01
4.205561471608633139e-01,4.818121101662302119e-01,4.529186488465825611e-01
5.032411966469598763e-01,4.123931591811405561e-01,4.928850156874259869e-01
5.233767767053257858e-01,4.536926118397811014e-01,4.249639205738907632e-01
5.626650180254659794e-01,4.418577909403965109e-01,3.764758504121549776e-01
5.098976790058111774e-01,4.752433368754087062e-01,4.560727386322736554e-01
5.319604377752563673e-01,4.465841029209274282e-01,4.716678485657250230e-01
5.185361781168024153e-01,4.723489091578235710e-01,4.824100033352131112e-01
4.887250906679707074e-01,4.617778678508099310e-01,5.273064095725851219e-01
5.699581092510951352e-01,5.309518313147457702e-01,4.730564441162956602e-01
5.461693182479019359e-01,5.052893742774448027e-01,4.698895657325641295e-01
4.518680441842823914e-01,5.120505216346378230e-01,4.942006141484648341e-01
5.520016097583863024e-01,4.343879196477555826e-01,4.490143370695239833e-01
4.637741236251050059e-01,5.590007427810556040e-01,4.507059156413213974e-01
4.886897470063375493e-01,5.005478194457549934e-01,5.080401695137313212e-01
4.968862177481291886e-01,5.211502961329487205e-01,5.209786105719140803e-01
4.951288814535271254e-01,4.989620432823476670e-01,3.748484259901416205e-01
4.702210182553906992e-01,4.749658259602432264e-01,5.166113999584746042e-01
4.839243494511989430e-01,4.961458289078510275e-01,5.185864631209872178e-01
5.149921482641324211e-01,4.926259256670443842e-01,4.115179724119398808e-01
5.473069969089631170e-01,4.104737080710533781e-01,4.696776693428811322e-01
4.881011358603206118e-01,5.052335020052654002e-01,5.105866713452982264e-01
5.016196264666308302e-01,4.869310423964667289e-01,4.138046739741727542e-01
5.173015423551815539e-01,5.779301945675854313e-01,4.808942985667521985e-01
4.714541947673722699e-01,5.497314237022374872e-01,5.729535025759958655e-01
4.348077141436677007e-01,4.315386428671884045e-01,5.232535753002095502e-01
5.218234680841441486e-01,4.891532409425555228e-01,4.595399890942688526e-01
5.544505074639509701e-01,5.282720334801888074e-01,4.915615052157217280e-01
4.731788334052919320e-01,5.486710839985131649e-01,5.143474047585874231e-01
5.249601503575493933e-01,5.616320023869768585e-01,5.030232192752571718e-01
4.450399798679696706e-01,4.782355331927903297e-01,5.166409547226553656e-01
4.644848970054060167e-01,5.131700684554282299e-01,4.656211343097385602e-01
5.483195971732020002e-01,4.759374210050167919e-01,4.492659906692753613e-01
5.739407741690658593e-01,5.105459449634696112e-01,5.436737451260670317e-01
5.630238379787285696e-01,5.041227749061256702e-01,4.770727125900059984e-01
4.986971764850864353e-01,4.460265073607805886e-01,5.293777325712786253e-01
4.370895258024666830e-01,5.185008094340571860e-01,5.510523197514148874e-01
4.980353136421792892e-01,4.545942440021432662e-01,4.725887411618457379e-01
5.230849216443413940e-01,5.094433035411088939e-01,4.444487337430362839e-01
5.499637012086212584e-01,5.636185692161713723e-01,5.194092010561777162e-01
5.068012296663941818e-01,5.663481537778364272e-01,5.643122448296734595e-01
4.891149716774513267e-01,4.579315427933677851e-01,4.294765759886181034e-01
5.224492143592693871e-01,4.928876356578290596e-01,5.077148550275583094e-01
4.932550352438775931e-01,5.337300782730105553e-01,5.081600709026721230e-01
4.879938506712416246e-01,5.203288984490097580e-01,4.401227352755663902e-01
4.654999626501793442e-01,4.981046708419583635e-01,5.251078325779346967e-01
5.132824157053178515e-01,5.199947542601801587e-01,4.911262726168299508e-01
4.453548359901067233e-01,5.478445376023446389e-01,4.565818949478598898e-01
4.884720860718958502e-01,5.100667658181831099e-01,5.311029640126829765e-01
5.180380729909791482e-01,4.588019722170636472e-01,4.638781915044655757e-01
5.902155401680735380e-01,4.685986685272397478e-01,4.878170494444610816e-01
4.967732879703620208e-01,5.208461794940962841e-01,4.376392790626966733e-01
5.798341667005812994e-01,4.828768960146875844e-01,4.944576468067856112e-01
4.810443084583191919e-01,4.749392575390116722e-01,4.721634732931778156e-01
