ref_gyro_x (deg/s),ref_gyro_y (deg/s),ref_gyro_z (deg/s)
0.000000000000000000e+00,0.000000000000000000e+00,-2.864788975654116165e-01
0.000000000000000000e+00,0.000000000000000000e+00,-5.729577951308232331e-01
0.000000000000000000e+00,0.000000000000000000e+00,-8.594366926962347941e-01
0.000000000000000000e+00,0.000000000000000000e+00,-1.145915590261646466e+00
0.000000000000000000e+00,0.000000000000000000e+00,-1.432394487827058249e+00
0.000000000000000000e+00,0.000000000000000000e+00,-1.718873385392469810e+00
0.000000000000000000e+00,0.000000000000000000e+00,-2.005352282957881371e+00
0.000000000000000000e+00,0.000000000000000000e+00,-2.291831180523292932e+00
0.000000000000000000e+00,0.000000000000000000e+00,-2.578310078088704493e+00
0.000000000000000000e+00,0.000000000000000000e+00,-2.864788975654116054e+00
0.000000000000000000e+00,0.000000000000000000e+00,-3.151267873219527171e+00
0.000000000000000000e+00,0.000000000000000000e+00,-3.437746770784938732e+00
0.000000000000000000e+00,0.000000000000000000e+00,-3.724225668350350293e+00
0.000000000000000000e+00,0.000000000000000000e+00,-4.010704565915761854e+00
0.000000000000000000e+00,0.000000000000000000e+00,-4.297183463481173860e+00
0.000000000000000000e+00,0.000000000000000000e+00,-4.583662361046585865e+00
0.000000000000000000e+00,0.000000000000000000e+00,-4.870141258611997870e+00
0.000000000000000000e+00,0.000000000000000000e+00,-5.156620156177409875e+00
0.000000000000000000e+00,0.000000000000000000e+00,-5.443099053742821880e+00
0.000000000000000000e+00,0.000000000000000000e+00,-5.729577951308232997e+00
0.000000000000000000e+00,0.000000000000000000e+00,-6.016056848873645002e+00
0.000000000000000000e+00,0.000000000000000000e+00,-6.302535746439057007e+00
0.000000000000000000e+00,0.000000000000000000e+00,-6.589014644004469012e+00
0.000000000000000000e+00,0.000000000000000000e+00,-6.875493541569881017e+00
0.000000000000000000e+00,0.000000000000000000e+00,-7.161972439135292134e+00
0.000000000000000000e+00,0.000000000000000000e+00,-7.448451336700704140e+00
0.000000000000000000e+00,0.000000000000000000e+00,-7.734930234266115257e+00
0.000000000000000000e+00,0.000000000000000000e+00,-8.021409131831527262e+00
0.000000000000000000e+00,0.000000000000000000e+00,-8.307888029396940155e+00
0.000000000000000000e+00,0.000000000000000000e+00,-8.594366926962351272e+00
0.000000000000000000e+00,0.000000000000000000e+00,-8.880845824527762389e+00
0.000000000000000000e+00,0.000000000000000000e+00,-9.167324722093175282e+00
0.000000000000000000e+00,0.000000000000000000e+00,-9.453803619658586399e+00
0.000000000000000000e+00,0.000000000000000000e+00,-9.740282517223999292e+00
0.000000000000000000e+00,0.000000000000000000e+00,-1.002676141478941041e+01
0.000000000000000000e+00,0.000000000000000000e+00,-1.031324031235482330e+01
0.000000000000000000e+00,0.000000000000000000e+00,-1.059971920992023442e+01
0.000000000000000000e+00,0.000000000000000000e+00,-1.088619810748564554e+01
0.000000000000000000e+00,0.000000000000000000e+00,-1.117267700505105843e+01
0.000000000000000000e+00,0.000000000000000000e+00,-1.145915590261646955e+01
0.000000000000000000e+00,0.000000000000000000e+00,-1.174563480018188244e+01
0.000000000000000000e+00,0.000000000000000000e+00,-1.203211369774729356e+01
0.000000000000000000e+00,0.000000000000000000e+00,-1.231859259531270645e+01
0.000000000000000000e+00,0.000000000000000000e+00,-1.260507149287811757e+01
0.000000000000000000e+00,0.000000000000000000e+00,-1.289155039044352868e+01
0.000000000000000000e+00,0.000000000000000000e+00,-1.317802928800894158e+01
0.000000000000000000e+00,0.000000000000000000e+00,-1.346450818557435269e+01
0.000000000000000000e+00,0.000000000000000000e+00,-1.375098708313976559e+01
0.000000000000000000e+00,0.000000000000000000e+00,-1.403746598070517670e+01
0.000000000000000000e+00,0.000000000000000000e+00,-1.432394487827058782e+01
0.000000000000000000e+00,0.000000000000000000e+00,-1.461042377583599894e+01
0.000000000000000000e+00,0.000000000000000000e+00,-1.489690267340141006e+01
0.000000000000000000e+00,0.000000000000000000e+00,-1.518338157096682295e+01
0.000000000000000000e+00,0.000000000000000000e+00,-1.546986046853223407e+01
0.000000000000000000e+00,0.000000000000000000e+00,-1.575633936609764696e+01
0.000000000000000000e+00,0.000000000000000000e+00,-1.604281826366305808e+01
0.000000000000000000e+00,0.000000000000000000e+00,-1.632929716122847097e+01
0.000000000000000000e+00,0.000000000000000000e+00,-1.661577605879388031e+01
0.000000000000000000e+00,0.000000000000000000e+00,-1.690225495635929320e+01
0.000000000000000000e+00,0.000000000000000000e+00,-1.718873385392470610e+01
0.000000000000000000e+00,0.000000000000000000e+00,-1.747521275149011899e+01
0.000000000000000000e+00,0.000000000000000000e+00,-1.776169164905552833e+01
0.000000000000000000e+00,0.000000000000000000e+00,-1.804817054662094122e+01
0.000000000000000000e+00,0.000000000000000000e+00,-1.833464944418635412e+01
0.000000000000000000e+00,0.000000000000000000e+00,-1.862112834175176346e+01
0.000000000000000000e+00,0.000000000000000000e+00,-1.890760723931717635e+01
0.000000000000000000e+00,0.000000000000000000e+00,-1.919408613688258924e+01
0.000000000000000000e+00,0.000000000000000000e+00,-1.948056503444800214e+01
0.000000000000000000e+00,0.000000000000000000e+00,-1.976704393201341148e+01
0.000000000000000000e+00,0.000000000000000000e+00,-2.005352282957882437e+01
0.000000000000000000e+00,0.000000000000000000e+00,-2.034000172714423726e+01
0.000000000000000000e+00,0.000000000000000000e+00,-2.062648062470964661e+01
0.000000000000000000e+00,0.000000000000000000e+00,-2.091295952227505950e+01
0.000000000000000000e+00,0.000000000000000000e+00,-2.119943841984047239e+01
0.000000000000000000e+00,0.000000000000000000e+00,-2.148591731740588529e+01
0.000000000000000000e+00,0.000000000000000000e+00,-2.177239621497129463e+01
0.000000000000000000e+00,0.000000000000000000e+00,-2.205887511253670752e+01
0.000000000000000000e+00,0.000000000000000000e+00,-2.234535401010212041e+01
0.000000000000000000e+00,0.000000000000000000e+00,-2.263183290766752975e+01
0.000000000000000000e+00,0.000000000000000000e+00,-2.291831180523294265e+01
0.000000000000000000e+00,0.000000000000000000e+00,-2.320479070279835554e+01
0.000000000000000000e+00,0.000000000000000000e+00,-2.349126960036376843e+01
0.000000000000000000e+00,0.000000000000000000e+00,-2.377774849792917777e+01
0.000000000000000000e+00,0.000000000000000000e+00,-2.406422739549459067e+01
0.000000000000000000e+00,0.000000000000000000e+00,-2.435070629306000356e+01
0.000000000000000000e+00,0.000000000000000000e+00,-2.463718519062541290e+01
0.000000000000000000e+00,0.000000000000000000e+00,-2.492366408819082579e+01
0.000000000000000000e+00,0.000000000000000000e+00,-2.521014298575623869e+01
0.000000000000000000e+00,0.000000000000000000e+00,-2.549662188332165158e+01
0.000000000000000000e+00,0.000000000000000000e+00,-2.578310078088706092e+01
0.000000000000000000e+00,0.000000000000000000e+00,-2.606957967845247381e+01
0.000000000000000000e+00,0.000000000000000000e+00,-2.635605857601788671e+01
0.000000000000000000e+00,0.000000000000000000e+00,-2.664253747358329605e+01
0.000000000000000000e+00,0.000000000000000000e+00,-2.692901637114870894e+01
0.000000000000000000e+00,0.000000000000000000e+00,-2.721549526871412183e+01
0.000000000000000000e+00,0.000000000000000000e+00,-2.750197416627953473e+01
0.000000000000000000e+00,0.000000000000000000e+00,-2.778845306384494407e+01
0.000000000000000000e+00,0.000000000000000000e+00,-2.807493196141035696e+01
0.000000000000000000e+00,0.000000000000000000e+00,-2.836141085897576986e+01
0.000000000000000000e+00,0.000000000000000000e+00,-2.864788975654117920e+01
0.000000000000000000e+00,0.000000000000000000e+00,-2.893436865410659209e+01
0.000000000000000000e+00,0.000000000000000000e+00,-2.922084755167200498e+01
0.000000000000000000e+00,0.000000000000000000e+00,-2.950732644923741788e+01
0.000000000000000000e+00,0.000000000000000000e+00,-2.979380534680282722e+01
0.000000000000000000e+00,0.000000000000000000e+00,-3.008028424436824011e+01
0.000000000000000000e+00,0.000000000000000000e+00,-3.036676314193365300e+01
0.000000000000000000e+00,0.000000000000000000e+00,-3.065324203949906234e+01
0.000000000000000000e+00,0.000000000000000000e+00,-3.093972093706447524e+01
0.000000000000000000e+00,0.000000000000000000e+00,-3.122619983462988813e+01
0.000000000000000000e+00,0.000000000000000000e+00,-3.151267873219529747e+01
0.000000000000000000e+00,0.000000000000000000e+00,-3.179915762976071036e+01
0.000000000000000000e+00,0.000000000000000000e+00,-3.208563652732612326e+01
0.000000000000000000e+00,0.000000000000000000e+00,-3.237211542489153260e+01
0.000000000000000000e+00,0.000000000000000000e+00,-3.265859432245694904e+01
0.000000000000000000e+00,0.000000000000000000e+00,-3.294507322002235838e+01
0.000000000000000000e+00,0.000000000000000000e+00,-3.319515877463948073e+01
0.000000000000000000e+00,0.000000000000000000e+00,-3.340363819440756288e+01
0.000000000000000000e+00,0.000000000000000000e+00,-3.357456785310163383e+01
0.000000000000000000e+00,0.000000000000000000e+00,-3.371161726199975561e+01
0.000000000000000000e+00,0.000000000000000000e+00,-3.381810592137705385e+01
0.000000000000000000e+00,0.000000000000000000e+00,-3.389703666185594244e+01
0.000000000000000000e+00,0.000000000000000000e+00,-3.395112580995601093e+01
0.000000000000000000e+00,0.000000000000000000e+00,-3.398283048034109299e+01
0.000000000000000000e+00,0.000000000000000000e+00,-3.399437326844749663e+01
0.000000000000000000e+00,0.000000000000000000e+00,-3.398776459110903403e+01
0.000000000000000000e+00,0.000000000000000000e+00,-3.396482289920886899e+01
0.000000000000000000e+00,0.000000000000000000e+00,-3.392719296504910886e+01
0.000000000000000000e+00,0.000000000000000000e+00,-3.387636242782280505e+01
0.000000000000000000e+00,0.000000000000000000e+00,-3.381367676310522086e+01
0.000000000000000000e+00,0.000000000000000000e+00,-3.374035282647783873e+01
0.000000000000000000e+00,0.000000000000000000e+00,-3.365749110709995762e+01
0.000000000000000000e+00,0.000000000000000000e+00,-3.356608681410631334e+01
0.000000000000000000e+00,0.000000000000000000e+00,-3.346703990700498110e+01
0.000000000000000000e+00,0.000000000000000000e+00,-3.336116417066028106e+01
0.000000000000000000e+00,0.000000000000000000e+00,-3.324919542586471977e+01
0.000000000000000000e+00,0.000000000000000000e+00,-3.313179895783577678e+01
0.000000000000000000e+00,0.000000000000000000e+00,-3.300957623713081546e+01
0.000000000000000000e+00,0.000000000000000000e+00,-3.288307100037778241e+01
0.000000000000000000e+00,0.000000000000000000e+00,-3.275277475179986908e+01
0.000000000000000000e+00,0.000000000000000000e+00,-3.261913174070383548e+01
0.000000000000000000e+00,0.000000000000000000e+00,-3.248254346484706900e+01
0.000000000000000000e+00,0.000000000000000000e+00,-3.234337274484354907e+01
0.000000000000000000e+00,0.000000000000000000e+00,-3.220194741046795883e+01
0.000000000000000000e+00,0.000000000000000000e+00,-3.205856363582469726e+01
0.000000000000000000e+00,0.000000000000000000e+00,-3.191348895682784104e+01
0.000000000000000000e+00,0.000000000000000000e+00,-3.176696500125225953e+01
0.000000000000000000e+00,0.000000000000000000e+00,-3.161920995873361306e+01
0.000000000000000000e+00,0.000000000000000000e+00,-3.147042081548746140e+01
0.000000000000000000e+00,0.000000000000000000e+00,-3.132077537615818130e+01
0.000000000000000000e+00,0.000000000000000000e+00,-3.117043409307375512e+01
0.000000000000000000e+00,0.000000000000000000e+00,-3.101954172125123321e+01
0.000000000000000000e+00,0.000000000000000000e+00,-3.086822881575033506e+01
0.000000000000000000e+00,0.000000000000000000e+00,-3.071661308639165355e+01
0.000000000000000000e+00,0.000000000000000000e+00,-3.056480062342564352e+01
0.000000000000000000e+00,0.000000000000000000e+00,-3.041288700644452447e+01
0.000000000000000000e+00,0.000000000000000000e+00,-3.026095830765828865e+01
0.000000000000000000e+00,0.000000000000000000e+00,-3.010909199959685267e+01
0.000000000000000000e+00,0.000000000000000000e+00,-2.995735777634175889e+01
0.000000000000000000e+00,0.000000000000000000e+00,-2.980581829652400216e+01
0.000000000000000000e+00,0.000000000000000000e+00,-2.965452985553976362e+01
0.000000000000000000e+00,0.000000000000000000e+00,-2.950354299372617817e+01
0.000000000000000000e+00,0.000000000000000000e+00,-2.935290304659708838e+01
0.000000000000000000e+00,0.000000000000000000e+00,-2.920265064265760913e+01
0.000000000000000000e+00,0.000000000000000000e+00,-2.905282215379074628e+01
0.000000000000000000e+00,0.000000000000000000e+00,-2.890345010273367876e+01
0.000000000000000000e+00,0.000000000000000000e+00,-2.875456353173094826e+01
0.000000000000000000e+00,0.000000000000000000e+00,-2.860618833606262257e+01
0.000000000000000000e+00,0.000000000000000000e+00,-2.845834756579310110e+01
0.000000000000000000e+00,0.000000000000000000e+00,-2.831106169876763090e+01
0.000000000000000000e+00,0.000000000000000000e+00,-2.816434888759533095e+01
0.000000000000000000e+00,0.000000000000000000e+00,-2.801822518309645815e+01
0.000000000000000000e+00,0.000000000000000000e+00,-2.787270473645592617e+01
0.000000000000000000e+00,0.000000000000000000e+00,-2.772779998211122177e+01
0.000000000000000000e+00,0.000000000000000000e+00,-2.758352180320992986e+01
0.000000000000000000e+00,0.000000000000000000e+00,-2.743987968129716037e+01
0.000000000000000000e+00,0.000000000000000000e+00,-2.729688183173501770e+01
0.000000000000000000e+00,0.000000000000000000e+00,-2.715453532621322452e+01
0.000000000000000000e+00,0.000000000000000000e+00,-2.701284620358050503e+01
0.000000000000000000e+00,0.000000000000000000e+00,-2.687181957010926681e+01
0.000000000000000000e+00,0.000000000000000000e+00,-2.673145969020009716e+01
0.000000000000000000e+00,0.000000000000000000e+00,-2.659177006843674818e+01
0.000000000000000000e+00,0.000000000000000000e+00,-2.645275352381551315e+01
0.000000000000000000e+00,0.000000000000000000e+00,-2.631441225689449226e+01
0.000000000000000000e+00,0.000000000000000000e+00,-2.617674791053713079e+01
0.000000000000000000e+00,0.000000000000000000e+00,-2.603976162486023327e+01
0.000000000000000000e+00,0.000000000000000000e+00,-2.590345408693859497e+01
0.000000000000000000e+00,0.000000000000000000e+00,-2.576782557576564869e+01
0.000000000000000000e+00,0.000000000000000000e+00,-2.563287600292212076e+01
0.000000000000000000e+00,0.000000000000000000e+00,-2.549860494936147859e+01
0.000000000000000000e+00,0.000000000000000000e+00,-2.536501169868222405e+01
0.000000000000000000e+00,0.000000000000000000e+00,-2.523209526722154905e+01
0.000000000000000000e+00,0.000000000000000000e+00,-2.509985443127333582e+01
0.000000000000000000e+00,0.000000000000000000e+00,-2.496828775170430248e+01
0.000000000000000000e+00,0.000000000000000000e+00,-2.483739359621632303e+01
0.000000000000000000e+00,0.000000000000000000e+00,-2.470717015947903406e+01
0.000000000000000000e+00,0.000000000000000000e+00,-2.457761548133573370e+01
0.000000000000000000e+00,0.000000000000000000e+00,-2.444872746326609914e+01
0.000000000000000000e+00,0.000000000000000000e+00,-2.432050388327179036e+01
0.000000000000000000e+00,0.000000000000000000e+00,-2.419294240933527718e+01
0.000000000000000000e+00,0.000000000000000000e+00,-2.406604061158774854e+01
0.000000000000000000e+00,0.000000000000000000e+00,-2.393979597330917741e+01
0.000000000000000000e+00,0.000000000000000000e+00,-2.381420590087180855e+01
0.000000000000000000e+00,0.000000000000000000e+00,-2.368926773272774255e+01
0.000000000000000000e+00,0.000000000000000000e+00,-2.356497874753171828e+01
0.000000000000000000e+00,0.000000000000000000e+00,-2.344133617148152737e+01
0.000000000000000000e+00,0.000000000000000000e+00,-2.331833718495061802e+01
0.000000000000000000e+00,0.000000000000000000e+00,-2.319597892848032217e+01
0.000000000000000000e+00,0.000000000000000000e+00,-2.307425850819281621e+01
0.000000000000000000e+00,0.000000000000000000e+00,-2.295317300067996769e+01
0.000000000000000000e+00,0.000000000000000000e+00,-2.283271945741806164e+01
0.000000000000000000e+00,0.000000000000000000e+00,-2.271289490875363626e+01
0.000000000000000000e+00,0.000000000000000000e+00,-2.259369636750127697e+01
0.000000000000000000e+00,0.000000000000000000e+00,-2.247512083219040591e+01
0.000000000000000000e+00,0.000000000000000000e+00,-2.235716528999452279e+01
0.000000000000000000e+00,0.000000000000000000e+00,-2.223982671937323374e+01
0.000000000000000000e+00,0.000000000000000000e+00,-2.212310209245438486e+01
0.000000000000000000e+00,0.000000000000000000e+00,-2.200698837718119449e+01
0.000000000000000000e+00,0.000000000000000000e+00,-2.189148253924673071e+01
0.000000000000000000e+00,0.000000000000000000e+00,-2.177658154383609102e+01
0.000000000000000000e+00,0.000000000000000000e+00,-2.166228235719459860e+01
0.000000000000000000e+00,0.000000000000000000e+00,-2.154858194803865601e+01
0.000000000000000000e+00,0.000000000000000000e+00,-2.143547728882429126e+01
0.000000000000000000e+00,0.000000000000000000e+00,-2.132296535688695016e+01
0.000000000000000000e+00,0.000000000000000000e+00,-2.121104313546489806e+01
0.000000000000000000e+00,0.000000000000000000e+00,-2.109970761461731925e+01
0.000000000000000000e+00,0.000000000000000000e+00,-2.098895579204719297e+01
0.000000000000000000e+00,0.000000000000000000e+00,-2.087878467383805159e+01
0.000000000000000000e+00,0.000000000000000000e+00,-2.076919127511290597e+01
0.000000000000000000e+00,0.000000000000000000e+00,-2.066017262062272053e+01
0.000000000000000000e+00,0.000000000000000000e+00,-2.055172574527123786e+01
0.000000000000000000e+00,0.000000000000000000e+00,-2.044384769458227069e+01
0.000000000000000000e+00,0.000000000000000000e+00,-2.033653552511491114e+01
0.000000000000000000e+00,0.000000000000000000e+00,-2.022978630483172680e+01
0.000000000000000000e+00,0.000000000000000000e+00,-2.012359711342444868e+01
0.000000000000000000e+00,0.000000000000000000e+00,-2.001796504260118326e+01
0.000000000000000000e+00,0.000000000000000000e+00,-1.991288719633894644e+01
0.000000000000000000e+00,0.000000000000000000e+00,-1.980836069110476316e+01
0.000000000000000000e+00,0.000000000000000000e+00,-1.970438265604844474e+01
0.000000000000000000e+00,0.000000000000000000e+00,-1.960095023316973695e+01
0.000000000000000000e+00,0.000000000000000000e+00,-1.949806057746230792e+01
0.000000000000000000e+00,0.000000000000000000e+00,-1.939571085703689590e+01
0.000000000000000000e+00,0.000000000000000000e+00,-1.929389825322550678e+01
0.000000000000000000e+00,0.000000000000000000e+00,-1.919261996066864029e+01
0.000000000000000000e+00,0.000000000000000000e+00,-1.909187318738712946e+01
0.000000000000000000e+00,0.000000000000000000e+00,-1.899165515484007116e+01
0.000000000000000000e+00,0.000000000000000000e+00,-1.889196309797030437e+01
0.000000000000000000e+00,0.000000000000000000e+00,-1.879279426523852692e+01
0.000000000000000000e+00,0.000000000000000000e+00,-1.869414591864731179e+01
0.000000000000000000e+00,0.000000000000000000e+00,-1.859601533375589000e+01
0.000000000000000000e+00,0.000000000000000000e+00,-1.849839979968673376e+01
0.000000000000000000e+00,0.000000000000000000e+00,-1.840129661912464698e+01
0.000000000000000000e+00,0.000000000000000000e+00,-1.830470310830920866e+01
0.000000000000000000e+00,0.000000000000000000e+00,-1.820861659702115887e+01
0.000000000000000000e+00,0.000000000000000000e+00,-1.811303442856340240e+01
0.000000000000000000e+00,0.000000000000000000e+00,-1.801795395973714164e+01
0.000000000000000000e+00,0.000000000000000000e+00,-1.792337256081363606e+01
0.000000000000000000e+00,0.000000000000000000e+00,-1.782928761550207852e+01
0.000000000000000000e+00,0.000000000000000000e+00,-1.773569652091392257e+01
0.000000000000000000e+00,0.000000000000000000e+00,-1.764259668752412580e+01
0.000000000000000000e+00,0.000000000000000000e+00,-1.754998553912954762e+01
0.000000000000000000e+00,0.000000000000000000e+00,-1.745786051280486362e+01
0.000000000000000000e+00,0.000000000000000000e+00,-1.736621905885624528e+01
0.000000000000000000e+00,0.000000000000000000e+00,-1.727505864077306086e+01
0.000000000000000000e+00,0.000000000000000000e+00,-1.718437673517780695e+01
0.000000000000000000e+00,0.000000000000000000e+00,-1.709417083177449115e+01
0.000000000000000000e+00,0.000000000000000000e+00,-1.700443843329561844e+01
0.000000000000000000e+00,0.000000000000000000e+00,-1.691517705544798389e+01
0.000000000000000000e+00,0.000000000000000000e+00,-1.682638422685738888e+01
0.000000000000000000e+00,0.000000000000000000e+00,-1.673805748901242652e+01
0.000000000000000000e+00,0.000000000000000000e+00,-1.665019439620745345e+01
0.000000000000000000e+00,0.000000000000000000e+00,-1.656279251548487252e+01
0.000000000000000000e+00,0.000000000000000000e+00,-1.647584942657680784e+01
0.000000000000000000e+00,0.000000000000000000e+00,-1.638936272184626119e+01
0.000000000000000000e+00,0.000000000000000000e+00,-1.630333000622784567e+01
0.000000000000000000e+00,0.000000000000000000e+00,-1.621774889716816048e+01
0.000000000000000000e+00,0.000000000000000000e+00,-1.613261702456586022e+01
0.000000000000000000e+00,0.000000000000000000e+00,-1.604793203071150387e+01
0.000000000000000000e+00,0.000000000000000000e+00,-1.596369157022722973e+01
0.000000000000000000e+00,0.000000000000000000e+00,-1.587989331000626869e+01
0.000000000000000000e+00,0.000000000000000000e+00,-1.579653492915239887e+01
0.000000000000000000e+00,0.000000000000000000e+00,-1.571361411891934168e+01
0.000000000000000000e+00,0.000000000000000000e+00,-1.563112858265012939e+01
0.000000000000000000e+00,0.000000000000000000e+00,-1.554907603571651720e+01
0.000000000000000000e+00,0.000000000000000000e+00,-1.546745420545840410e+01
0.000000000000000000e+00,0.000000000000000000e+00,-1.538626083112337462e+01
0.000000000000000000e+00,0.000000000000000000e+00,-1.530549366380628662e+01
0.000000000000000000e+00,0.000000000000000000e+00,-1.522515046638900316e+01
0.000000000000000000e+00,0.000000000000000000e+00,-1.514522901348025385e+01
0.000000000000000000e+00,0.000000000000000000e+00,-1.506572709135564203e+01
0.000000000000000000e+00,0.000000000000000000e+00,-1.498664249789781167e+01
0.000000000000000000e+00,0.000000000000000000e+00,-1.490797304253681688e+01
0.000000000000000000e+00,0.000000000000000000e+00,-1.482971654619064950e+01
0.000000000000000000e+00,0.000000000000000000e+00,-1.475187084120600645e+01
0.000000000000000000e+00,0.000000000000000000e+00,-1.467443377129922411e+01
0.000000000000000000e+00,0.000000000000000000e+00,-1.459740319149747023e+01
0.000000000000000000e+00,0.000000000000000000e+00,-1.452077696808014373e+01
0.000000000000000000e+00,0.000000000000000000e+00,-1.444455297852050890e+01
0.000000000000000000e+00,0.000000000000000000e+00,-1.436872911142757836e+01
0.000000000000000000e+00,0.000000000000000000e+00,-1.429330326648822691e+01
0.000000000000000000e+00,0.000000000000000000e+00,-1.421827335440956652e+01
0.000000000000000000e+00,0.000000000000000000e+00,-1.414363729686156645e+01
0.000000000000000000e+00,0.000000000000000000e+00,-1.406939302641993628e+01
0.000000000000000000e+00,0.000000000000000000e+00,-1.399553848650925936e+01
0.000000000000000000e+00,0.000000000000000000e+00,-1.392207163134639458e+01
0.000000000000000000e+00,0.000000000000000000e+00,-1.384899042588414453e+01
0.000000000000000000e+00,0.000000000000000000e+00,-1.377629284575517410e+01
0.000000000000000000e+00,0.000000000000000000e+00,-1.370397687721622582e+01
0.000000000000000000e+00,0.000000000000000000e+00,-1.363204051709256248e+01
0.000000000000000000e+00,0.000000000000000000e+00,-1.356048177272271893e+01
0.000000000000000000e+00,0.000000000000000000e+00,-1.348929866190349891e+01
0.000000000000000000e+00,0.000000000000000000e+00,-1.341848921283524909e+01
0.000000000000000000e+00,0.000000000000000000e+00,-1.334805146406740484e+01
0.000000000000000000e+00,0.000000000000000000e+00,-1.327798346444431310e+01
0.000000000000000000e+00,0.000000000000000000e+00,-1.320828327305130756e+01
0.000000000000000000e+00,0.000000000000000000e+00,-1.313894895916107863e+01
0.000000000000000000e+00,0.000000000000000000e+00,-1.306997860218028862e+01
0.000000000000000000e+00,0.000000000000000000e+00,-1.300137029159648883e+01
0.000000000000000000e+00,0.000000000000000000e+00,-1.293312212692527119e+01
0.000000000000000000e+00,0.000000000000000000e+00,-1.286523221765771297e+01
0.000000000000000000e+00,0.000000000000000000e+00,-1.279769868320808079e+01
0.000000000000000000e+00,0.000000000000000000e+00,-1.273051965286180831e+01
0.000000000000000000e+00,0.000000000000000000e+00,-1.266369326572373133e+01
0.000000000000000000e+00,0.000000000000000000e+00,-1.259721767066660014e+01
0.000000000000000000e+00,0.000000000000000000e+00,-1.253109102627984939e+01
0.000000000000000000e+00,0.000000000000000000e+00,-1.246531150081863260e+01
0.000000000000000000e+00,0.000000000000000000e+00,-1.239987727215312852e+01
0.000000000000000000e+00,0.000000000000000000e+00,-1.233478652771809969e+01
0.000000000000000000e+00,0.000000000000000000e+00,-1.227003746446271393e+01
0.000000000000000000e+00,0.000000000000000000e+00,-1.220562828880063400e+01
0.000000000000000000e+00,0.000000000000000000e+00,-1.214155721656036135e+01
0.000000000000000000e+00,0.000000000000000000e+00,-1.207782247293583744e+01
0.000000000000000000e+00,0.000000000000000000e+00,-1.201442229243729720e+01
0.000000000000000000e+00,0.000000000000000000e+00,-1.195135491884239265e+01
0.000000000000000000e+00,0.000000000000000000e+00,-1.188861860514755620e+01
0.000000000000000000e+00,0.000000000000000000e+00,-1.182621161351963224e+01
0.000000000000000000e+00,0.000000000000000000e+00,-1.176413221524773967e+01
0.000000000000000000e+00,0.000000000000000000e+00,-1.170237869069541148e+01
0.000000000000000000e+00,0.000000000000000000e+00,-1.164094932925296888e+01
0.000000000000000000e+00,0.000000000000000000e+00,-1.157984242929014407e+01
0.000000000000000000e+00,0.000000000000000000e+00,-1.151905629810895704e+01
0.000000000000000000e+00,0.000000000000000000e+00,-1.145858925189683397e+01
0.000000000000000000e+00,0.000000000000000000e+00,-1.139843961567997432e+01
0.000000000000000000e+00,0.000000000000000000e+00,-1.133860572327696126e+01
0.000000000000000000e+00,0.000000000000000000e+00,-1.127908591725261189e+01
0.000000000000000000e+00,0.000000000000000000e+00,-1.121987854887206915e+01
0.000000000000000000e+00,0.000000000000000000e+00,-1.116098197805514580e+01
0.000000000000000000e+00,0.000000000000000000e+00,-1.110239457333088886e+01
0.000000000000000000e+00,0.000000000000000000e+00,-1.104411471179239079e+01
0.000000000000000000e+00,0.000000000000000000e+00,-1.098614077905184772e+01
0.000000000000000000e+00,0.000000000000000000e+00,-1.092847116919583250e+01
0.000000000000000000e+00,0.000000000000000000e+00,-1.087110428474082013e+01
0.000000000000000000e+00,0.000000000000000000e+00,-1.081403853658893865e+01
0.000000000000000000e+00,0.000000000000000000e+00,-1.075727234398394927e+01
0.000000000000000000e+00,0.000000000000000000e+00,-1.070080413446746803e+01
0.000000000000000000e+00,0.000000000000000000e+00,-1.064463234383540069e+01
0.000000000000000000e+00,0.000000000000000000e+00,-1.058875541609462267e+01
0.000000000000000000e+00,0.000000000000000000e+00,-1.053317180341987402e+01
0.000000000000000000e+00,0.000000000000000000e+00,-1.047787996611089234e+01
0.000000000000000000e+00,0.000000000000000000e+00,-1.042287837254975358e+01
0.000000000000000000e+00,0.000000000000000000e+00,-1.036816549915845265e+01
0.000000000000000000e+00,0.000000000000000000e+00,-1.031373983035670250e+01
0.000000000000000000e+00,0.000000000000000000e+00,-1.025959985851995171e+01
0.000000000000000000e+00,0.000000000000000000e+00,-1.020574408393761345e+01
0.000000000000000000e+00,0.000000000000000000e+00,-1.015217101477153960e+01
0.000000000000000000e+00,0.000000000000000000e+00,-1.009887916701468669e+01
0.000000000000000000e+00,0.000000000000000000e+00,-1.004586706445001454e+01
0.000000000000000000e+00,0.000000000000000000e+00,-9.993133238609583913e+00
0.000000000000000000e+00,0.000000000000000000e+00,-9.940676228733892117e+00
0.000000000000000000e+00,0.000000000000000000e+00,-9.888494581731402278e+00
0.000000000000000000e+00,0.000000000000000000e+00,-9.836586852138294645e+00
0.000000000000000000e+00,0.000000000000000000e+00,-9.784951602078429289e+00
0.000000000000000000e+00,0.000000000000000000e+00,-9.733587401223511293e+00
0.000000000000000000e+00,0.000000000000000000e+00,-9.682492826753474446e+00
0.000000000000000000e+00,0.000000000000000000e+00,-9.631666463317062110e+00
0.000000000000000000e+00,0.000000000000000000e+00,-9.581106902992635455e+00
0.000000000000000000e+00,0.000000000000000000e+00,-9.530812745249152229e+00
0.000000000000000000e+00,0.000000000000000000e+00,-9.480782596907394222e+00
0.000000000000000000e+00,0.000000000000000000e+00,-9.431015072101358143e+00
0.000000000000000000e+00,0.000000000000000000e+00,-9.381508792239873884e+00
0.000000000000000000e+00,0.000000000000000000e+00,-9.332262385968418172e+00
0.000000000000000000e+00,0.000000000000000000e+00,-9.283274489131125407e+00
0.000000000000000000e+00,0.000000000000000000e+00,-9.234543744732993886e+00
0.000000000000000000e+00,0.000000000000000000e+00,-9.186068802902310537e+00
0.000000000000000000e+00,0.000000000000000000e+00,-9.137848320853244388e+00
0.000000000000000000e+00,0.000000000000000000e+00,-9.089880962848658541e+00
0.000000000000000000e+00,0.000000000000000000e+00,-9.042165400163106881e+00
0.000000000000000000e+00,0.000000000000000000e+00,-8.994700311046029739e+00
0.000000000000000000e+00,0.000000000000000000e+00,-8.947484380685136074e+00
0.000000000000000000e+00,0.000000000000000000e+00,-8.900516301169989930e+00
0.000000000000000000e+00,0.000000000000000000e+00,-8.853794771455774537e+00
0.000000000000000000e+00,0.000000000000000000e+00,-8.807318497327251805e+00
0.000000000000000000e+00,0.000000000000000000e+00,-8.761086191362917219e+00
0.000000000000000000e+00,0.000000000000000000e+00,-8.715096572899335925e+00
0.000000000000000000e+00,0.000000000000000000e+00,-8.669348367995663551e+00
0.000000000000000000e+00,0.000000000000000000e+00,-8.623840309398358883e+00
0.000000000000000000e+00,0.000000000000000000e+00,-8.578571136506084827e+00
0.000000000000000000e+00,0.000000000000000000e+00,-8.533539595334787009e+00
0.000000000000000000e+00,0.000000000000000000e+00,-8.488744438482950017e+00
0.000000000000000000e+00,0.000000000000000000e+00,-8.444184425097057911e+00
0.000000000000000000e+00,0.000000000000000000e+00,-8.399858320837205738e+00
0.000000000000000000e+00,0.000000000000000000e+00,-8.355764897842918870e+00
0.000000000000000000e+00,0.000000000000000000e+00,-8.311902934699139323e+00
0.000000000000000000e+00,0.000000000000000000e+00,-8.268271216402387935e+00
0.000000000000000000e+00,0.000000000000000000e+00,-8.224868534327109515e+00
0.000000000000000000e+00,0.000000000000000000e+00,-8.181693686192197390e+00
0.000000000000000000e+00,0.000000000000000000e+00,-8.138745476027679615e+00
0.000000000000000000e+00,0.000000000000000000e+00,-8.096022714141600574e+00
0.000000000000000000e+00,0.000000000000000000e+00,-8.053524217087058901e+00
0.000000000000000000e+00,0.000000000000000000e+00,-8.011248807629426594e+00
0.000000000000000000e+00,0.000000000000000000e+00,-7.969195314713744871e+00
0.000000000000000000e+00,0.000000000000000000e+00,-7.927362573432272796e+00
0.000000000000000000e+00,0.000000000000000000e+00,-7.885749424992233081e+00
0.000000000000000000e+00,0.000000000000000000e+00,-7.844354716683700879e+00
0.000000000000000000e+00,0.000000000000000000e+00,-7.803177301847679992e+00
0.000000000000000000e+00,0.000000000000000000e+00,-7.762216039844337168e+00
0.000000000000000000e+00,0.000000000000000000e+00,-7.721469796021406928e+00
0.000000000000000000e+00,0.000000000000000000e+00,-7.680937441682758937e+00
0.000000000000000000e+00,0.000000000000000000e+00,-7.640617854057134117e+00
0.000000000000000000e+00,0.000000000000000000e+00,-7.600509916267042421e+00
0.000000000000000000e+00,0.000000000000000000e+00,-7.560612517297826685e+00
0.000000000000000000e+00,0.000000000000000000e+00,-7.520924551966883698e+00
0.000000000000000000e+00,0.000000000000000000e+00,-7.481444920893052242e+00
0.000000000000000000e+00,0.000000000000000000e+00,-7.442172530466155678e+00
0.000000000000000000e+00,0.000000000000000000e+00,-7.403106292816715950e+00
0.000000000000000000e+00,0.000000000000000000e+00,-7.364245125785811474e+00
0.000000000000000000e+00,0.000000000000000000e+00,-7.325587952895104671e+00
0.000000000000000000e+00,0.000000000000000000e+00,-7.287133703317021372e+00
0.000000000000000000e+00,0.000000000000000000e+00,-7.248881311845087438e+00
0.000000000000000000e+00,0.000000000000000000e+00,-7.210829718864424365e+00
0.000000000000000000e+00,0.000000000000000000e+00,-7.172977870322395866e+00
0.000000000000000000e+00,0.000000000000000000e+00,-7.135324717699409014e+00
0.000000000000000000e+00,0.000000000000000000e+00,-7.097869217979870804e+00
0.000000000000000000e+00,0.000000000000000000e+00,-7.060610333623296597e+00
0.000000000000000000e+00,0.000000000000000000e+00,-7.023547032535568668e+00
0.000000000000000000e+00,0.000000000000000000e+00,-6.986678288040344853e+00
0.000000000000000000e+00,0.000000000000000000e+00,-6.950003078850622629e+00
0.000000000000000000e+00,0.000000000000000000e+00,-6.913520389040447967e+00
0.000000000000000000e+00,0.000000000000000000e+00,-6.877229208016769846e+00
0.000000000000000000e+00,0.000000000000000000e+00,-6.841128530491451976e+00
0.000000000000000000e+00,0.000000000000000000e+00,-6.805217356453419519e+00
0.000000000000000000e+00,0.000000000000000000e+00,-6.769494691140963916e+00
0.000000000000000000e+00,0.000000000000000000e+00,-6.733959545014182702e+00
0.000000000000000000e+00,0.000000000000000000e+00,-6.698610933727572991e+00
0.000000000000000000e+00,0.000000000000000000e+00,-6.663447878102759958e+00
0.000000000000000000e+00,0.000000000000000000e+00,-6.628469404101377194e+00
0.000000000000000000e+00,0.000000000000000000e+00,-6.593674542798082072e+00
0.000000000000000000e+00,0.000000000000000000e+00,-6.559062330353716774e+00
0.000000000000000000e+00,0.000000000000000000e+00,-6.524631807988611421e+00
0.000000000000000000e+00,0.000000000000000000e+00,-6.490382021956021319e+00
0.000000000000000000e+00,0.000000000000000000e+00,-6.456312023515713427e+00
0.000000000000000000e+00,0.000000000000000000e+00,-6.422420868907678049e+00
0.000000000000000000e+00,0.000000000000000000e+00,-6.388707619325992404e+00
0.000000000000000000e+00,0.000000000000000000e+00,-6.355171340892812104e+00
0.000000000000000000e+00,0.000000000000000000e+00,-6.321811104632503842e+00
0.000000000000000000e+00,0.000000000000000000e+00,-6.288625986445909533e+00
0.000000000000000000e+00,0.000000000000000000e+00,-6.255615067084752567e+00
0.000000000000000000e+00,0.000000000000000000e+00,-6.222777432126168407e+00
0.000000000000000000e+00,0.000000000000000000e+00,-6.190112171947379061e+00
0.000000000000000000e+00,0.000000000000000000e+00,-6.157618381700495469e+00
0.000000000000000000e+00,0.000000000000000000e+00,-6.125295161287448664e+00
0.000000000000000000e+00,0.000000000000000000e+00,-6.093141615335063044e+00
0.000000000000000000e+00,0.000000000000000000e+00,-6.061156853170248660e+00
0.000000000000000000e+00,0.000000000000000000e+00,-6.029339988795330285e+00
0.000000000000000000e+00,0.000000000000000000e+00,-5.997690140863505270e+00
0.000000000000000000e+00,0.000000000000000000e+00,-5.966206432654431957e+00
0.000000000000000000e+00,0.000000000000000000e+00,-5.934887992049937999e+00
0.000000000000000000e+00,0.000000000000000000e+00,-5.903733951509868128e+00
0.000000000000000000e+00,0.000000000000000000e+00,-5.872743448048050929e+00
0.000000000000000000e+00,0.000000000000000000e+00,-5.841915623208390862e+00
0.000000000000000000e+00,0.000000000000000000e+00,-5.811249623041093493e+00
0.000000000000000000e+00,0.000000000000000000e+00,-5.780744598079005314e+00
0.000000000000000000e+00,0.000000000000000000e+00,-5.750399703314087674e+00
0.000000000000000000e+00,0.000000000000000000e+00,-5.720214098174003503e+00
0.000000000000000000e+00,0.000000000000000000e+00,-5.690186946498841714e+00
0.000000000000000000e+00,0.000000000000000000e+00,-5.660317416517946398e+00
0.000000000000000000e+00,0.000000000000000000e+00,-5.630604680826881925e+00
0.000000000000000000e+00,0.000000000000000000e+00,-5.601047916364510826e+00
0.000000000000000000e+00,0.000000000000000000e+00,-5.571646304390193372e+00
0.000000000000000000e+00,0.000000000000000000e+00,-5.542399030461113263e+00
0.000000000000000000e+00,0.000000000000000000e+00,-5.513305284409709905e+00
0.000000000000000000e+00,0.000000000000000000e+00,-5.484364260321242135e+00
0.000000000000000000e+00,0.000000000000000000e+00,-5.455575156511461188e+00
0.000000000000000000e+00,0.000000000000000000e+00,-5.426937175504401800e+00
0.000000000000000000e+00,0.000000000000000000e+00,-5.398449524010295875e+00
0.000000000000000000e+00,0.000000000000000000e+00,-5.370111412903596282e+00
0.000000000000000000e+00,0.000000000000000000e+00,-5.341922057201114349e+00
0.000000000000000000e+00,0.000000000000000000e+00,-5.313880676040279916e+00
0.000000000000000000e+00,0.000000000000000000e+00,-5.285986492657509750e+00
0.000000000000000000e+00,0.000000000000000000e+00,-5.258238734366686984e+00
0.000000000000000000e+00,0.000000000000000000e+00,-5.230636632537764008e+00
0.000000000000000000e+00,0.000000000000000000e+00,-5.203179422575463953e+00
0.000000000000000000e+00,0.000000000000000000e+00,-5.175866343898106514e+00
0.000000000000000000e+00,0.000000000000000000e+00,-5.148696639916536810e+00
0.000000000000000000e+00,0.000000000000000000e+00,-5.121669558013165258e+00
0.000000000000000000e+00,0.000000000000000000e+00,-5.094784349521123801e+00
0.000000000000000000e+00,0.000000000000000000e+00,-5.068040269703526057e+00
0.000000000000000000e+00,0.000000000000000000e+00,-5.041436577732835822e+00
0.000000000000000000e+00,0.000000000000000000e+00,-5.014972536670348369e+00
0.000000000000000000e+00,0.000000000000000000e+00,-4.988647413445774781e+00
0.000000000000000000e+00,0.000000000000000000e+00,-4.962460478836935529e+00
0.000000000000000000e+00,0.000000000000000000e+00,-4.936411007449560628e+00
0.000000000000000000e+00,0.000000000000000000e+00,-4.910498277697199043e+00
0.000000000000000000e+00,0.000000000000000000e+00,-4.884721571781224903e+00
0.000000000000000000e+00,0.000000000000000000e+00,-4.859080175670958290e+00
0.000000000000000000e+00,0.000000000000000000e+00,-4.833573379083881960e+00
0.000000000000000000e+00,0.000000000000000000e+00,-4.808200475465971735e+00
0.000000000000000000e+00,0.000000000000000000e+00,-4.782960761972120167e+00
0.000000000000000000e+00,0.000000000000000000e+00,-4.757853539446666780e+00
0.000000000000000000e+00,0.000000000000000000e+00,-4.732878112404036663e+00
0.000000000000000000e+00,0.000000000000000000e+00,-4.708033789009467007e+00
0.000000000000000000e+00,0.000000000000000000e+00,-4.683319881059849976e+00
0.000000000000000000e+00,0.000000000000000000e+00,-4.658735703964664410e+00
0.000000000000000000e+00,0.000000000000000000e+00,-4.634280576727014989e+00
0.000000000000000000e+00,0.000000000000000000e+00,-4.609953821924766437e+00
0.000000000000000000e+00,0.000000000000000000e+00,-4.585754765691781643e+00
0.000000000000000000e+00,0.000000000000000000e+00,-4.561682737699249479e+00
0.000000000000000000e+00,0.000000000000000000e+00,-4.537737071137120992e+00
0.000000000000000000e+00,0.000000000000000000e+00,-4.513917102695636174e+00
0.000000000000000000e+00,0.000000000000000000e+00,-4.490222172546951995e+00
0.000000000000000000e+00,0.000000000000000000e+00,-4.466651624326863690e+00
0.000000000000000000e+00,0.000000000000000000e+00,-4.443204805116619305e+00
0.000000000000000000e+00,0.000000000000000000e+00,-4.419881065424841715e+00
0.000000000000000000e+00,0.000000000000000000e+00,-4.396679759169529689e+00
0.000000000000000000e+00,0.000000000000000000e+00,-4.373600243660163756e+00
0.000000000000000000e+00,0.000000000000000000e+00,-4.350641879579905336e+00
0.000000000000000000e+00,0.000000000000000000e+00,-4.327804030967882021e+00
0.000000000000000000e+00,0.000000000000000000e+00,-4.305086065201576773e+00
0.000000000000000000e+00,0.000000000000000000e+00,-4.282487352979301498e+00
0.000000000000000000e+00,0.000000000000000000e+00,-4.260007268302763883e+00
0.000000000000000000e+00,0.000000000000000000e+00,-4.237645188459728374e+00
0.000000000000000000e+00,0.000000000000000000e+00,-4.215400494006766863e+00
0.000000000000000000e+00,0.000000000000000000e+00,-4.193272568752098195e+00
0.000000000000000000e+00,0.000000000000000000e+00,-4.171260799738520042e+00
0.000000000000000000e+00,0.000000000000000000e+00,-4.149364577226430484e+00
0.000000000000000000e+00,0.000000000000000000e+00,-4.127583294676936632e+00
0.000000000000000000e+00,0.000000000000000000e+00,-4.105916348735054733e+00
0.000000000000000000e+00,0.000000000000000000e+00,-4.084363139212992877e+00
0.000000000000000000e+00,0.000000000000000000e+00,-4.062923069073529625e+00
0.000000000000000000e+00,0.000000000000000000e+00,-4.041595544413477015e+00
0.000000000000000000e+00,0.000000000000000000e+00,-4.020379974447222615e+00
0.000000000000000000e+00,0.000000000000000000e+00,-3.999275771490370168e+00
0.000000000000000000e+00,0.000000000000000000e+00,-3.978282350943457502e+00
0.000000000000000000e+00,0.000000000000000000e+00,-3.957399131275764592e+00
0.000000000000000000e+00,0.000000000000000000e+00,-3.936625534009203342e+00
0.000000000000000000e+00,0.000000000000000000e+00,-3.915960983702293507e+00
0.000000000000000000e+00,0.000000000000000000e+00,-3.895404907934223449e+00
0.000000000000000000e+00,0.000000000000000000e+00,-3.874956737288993480e+00
0.000000000000000000e+00,0.000000000000000000e+00,-3.854615905339641380e+00
0.000000000000000000e+00,0.000000000000000000e+00,-3.834381848632555378e+00
0.000000000000000000e+00,0.000000000000000000e+00,-3.814254006671861319e+00
0.000000000000000000e+00,0.000000000000000000e+00,-3.794231821903900848e+00
0.000000000000000000e+00,0.000000000000000000e+00,-3.774314739701784660e+00
0.000000000000000000e+00,0.000000000000000000e+00,-3.754502208350029235e+00
0.000000000000000000e+00,0.000000000000000000e+00,-3.734793679029273950e+00
0.000000000000000000e+00,0.000000000000000000e+00,-3.715188605801079902e+00
0.000000000000000000e+00,0.000000000000000000e+00,-3.695686445592804237e+00
0.000000000000000000e+00,0.000000000000000000e+00,-3.676286658182559730e+00
0.000000000000000000e+00,0.000000000000000000e+00,-3.656988706184248095e+00
0.000000000000000000e+00,0.000000000000000000e+00,-3.637792055032675886e+00
0.000000000000000000e+00,0.000000000000000000e+00,-3.618696172968745017e+00
0.000000000000000000e+00,0.000000000000000000e+00,-3.599700531024721428e+00
0.000000000000000000e+00,0.000000000000000000e+00,-3.580804603009588138e+00
0.000000000000000000e+00,0.000000000000000000e+00,-3.562007865494463577e+00
0.000000000000000000e+00,0.000000000000000000e+00,-3.543309797798104288e+00
0.000000000000000000e+00,0.000000000000000000e+00,-3.524709881972481362e+00
0.000000000000000000e+00,0.000000000000000000e+00,-3.506207602788435018e+00
0.000000000000000000e+00,0.000000000000000000e+00,-3.487802447721398913e+00
0.000000000000000000e+00,0.000000000000000000e+00,-3.469493906937205718e+00
0.000000000000000000e+00,0.000000000000000000e+00,-3.451281473277962863e+00
0.000000000000000000e+00,0.000000000000000000e+00,-3.433164642248005105e+00
0.000000000000000000e+00,0.000000000000000000e+00,-3.415142911999919040e+00
0.000000000000000000e+00,0.000000000000000000e+00,-3.397215783320641780e+00
0.000000000000000000e+00,0.000000000000000000e+00,-3.379382759617631127e+00
0.000000000000000000e+00,0.000000000000000000e+00,-3.361643346905112573e+00
0.000000000000000000e+00,0.000000000000000000e+00,-3.343997053790393359e+00
0.000000000000000000e+00,0.000000000000000000e+00,-3.326443391460251142e+00
0.000000000000000000e+00,0.000000000000000000e+00,-3.308981873667392826e+00
0.000000000000000000e+00,0.000000000000000000e+00,-3.291612016716986222e+00
0.000000000000000000e+00,0.000000000000000000e+00,-3.274333339453261882e+00
0.000000000000000000e+00,0.000000000000000000e+00,-3.257145363246183312e+00
0.000000000000000000e+00,0.000000000000000000e+00,-3.240047611978189135e+00
0.000000000000000000e+00,0.000000000000000000e+00,-3.223039612031005419e+00
0.000000000000000000e+00,0.000000000000000000e+00,-3.206120892272524170e+00
0.000000000000000000e+00,0.000000000000000000e+00,-3.189290984043755106e+00
0.000000000000000000e+00,0.000000000000000000e+00,-3.172549421145840931e+00
0.000000000000000000e+00,0.000000000000000000e+00,-3.155895739827145441e+00
0.000000000000000000e+00,0.000000000000000000e+00,-3.139329478770406023e+00
0.000000000000000000e+00,0.000000000000000000e+00,-3.122850179079955435e+00
0.000000000000000000e+00,0.000000000000000000e+00,-3.106457384269010191e+00
0.000000000000000000e+00,0.000000000000000000e+00,-3.090150640247024239e+00
0.000000000000000000e+00,0.000000000000000000e+00,-3.073929495307114124e+00
0.000000000000000000e+00,0.000000000000000000e+00,-3.057793500113541008e+00
0.000000000000000000e+00,0.000000000000000000e+00,-3.041742207689268174e+00
0.000000000000000000e+00,0.000000000000000000e+00,-3.025775173403578489e+00
0.000000000000000000e+00,0.000000000000000000e+00,-3.009891954959756255e+00
0.000000000000000000e+00,0.000000000000000000e+00,-2.994092112382836568e+00
0.000000000000000000e+00,0.000000000000000000e+00,-2.978375208007417729e+00
0.000000000000000000e+00,0.000000000000000000e+00,-2.962740806465536725e+00
0.000000000000000000e+00,0.000000000000000000e+00,-2.947188474674610870e+00
0.000000000000000000e+00,0.000000000000000000e+00,-2.931717781825440738e+00
0.000000000000000000e+00,0.000000000000000000e+00,-2.916328299370274824e+00
0.000000000000000000e+00,0.000000000000000000e+00,-2.901019601010940363e+00
0.000000000000000000e+00,0.000000000000000000e+00,-2.885791262687033676e+00
0.000000000000000000e+00,0.000000000000000000e+00,-2.870642862564174447e+00
0.000000000000000000e+00,0.000000000000000000e+00,-2.855573981022319074e+00
0.000000000000000000e+00,0.000000000000000000e+00,-2.840584200644138413e+00
0.000000000000000000e+00,0.000000000000000000e+00,-2.825673106203453688e+00
0.000000000000000000e+00,0.000000000000000000e+00,-2.810840284653735921e+00
0.000000000000000000e+00,0.000000000000000000e+00,-2.796085325116663522e+00
0.000000000000000000e+00,0.000000000000000000e+00,-2.781407818870739845e+00
0.000000000000000000e+00,0.000000000000000000e+00,-2.766807359339973349e+00
0.000000000000000000e+00,0.000000000000000000e+00,-2.752283542082613721e+00
0.000000000000000000e+00,0.000000000000000000e+00,-2.737835964779948394e+00
0.000000000000000000e+00,0.000000000000000000e+00,-2.723464227225159462e+00
0.000000000000000000e+00,0.000000000000000000e+00,-2.709167931312237432e+00
0.000000000000000000e+00,0.000000000000000000e+00,-2.694946681024951829e+00
0.000000000000000000e+00,0.000000000000000000e+00,-2.680800082425881747e+00
0.000000000000000000e+00,0.000000000000000000e+00,-2.666727743645506798e+00
0.000000000000000000e+00,0.000000000000000000e+00,-2.652729274871346021e+00
0.000000000000000000e+00,0.000000000000000000e+00,-2.638804288337165627e+00
0.000000000000000000e+00,0.000000000000000000e+00,-2.624952398312234703e+00
0.000000000000000000e+00,0.000000000000000000e+00,-2.611173221090640872e+00
0.000000000000000000e+00,0.000000000000000000e+00,-2.597466374980661019e+00
0.000000000000000000e+00,0.000000000000000000e+00,-2.583831480294188410e+00
0.000000000000000000e+00,0.000000000000000000e+00,-2.570268159336216218e+00
0.000000000000000000e+00,0.000000000000000000e+00,-2.556776036394372564e+00
0.000000000000000000e+00,0.000000000000000000e+00,-2.543354737728515946e+00
0.000000000000000000e+00,0.000000000000000000e+00,-2.530003891560380858e+00
0.000000000000000000e+00,0.000000000000000000e+00,-2.516723128063279358e+00
0.000000000000000000e+00,0.000000000000000000e+00,-2.503512079351855935e+00
0.000000000000000000e+00,0.000000000000000000e+00,-2.490370379471899209e+00
0.000000000000000000e+00,0.000000000000000000e+00,-2.477297664390202492e+00
0.000000000000000000e+00,0.000000000000000000e+00,-2.464293571984479847e+00
0.000000000000000000e+00,0.000000000000000000e+00,-2.451357742033337672e+00
0.000000000000000000e+00,0.000000000000000000e+00,-2.438489816206292904e+00
0.000000000000000000e+00,0.000000000000000000e+00,-2.425689438053849400e+00
0.000000000000000000e+00,0.000000000000000000e+00,-2.412956252997623618e+00
0.000000000000000000e+00,0.000000000000000000e+00,-2.400289908320521359e+00
0.000000000000000000e+00,0.000000000000000000e+00,-2.387690053156970027e+00
0.000000000000000000e+00,0.000000000000000000e+00,-2.375156338483194407e+00
0.000000000000000000e+00,0.000000000000000000e+00,-2.362688417107555505e+00
0.000000000000000000e+00,0.000000000000000000e+00,-2.350285943660926691e+00
0.000000000000000000e+00,0.000000000000000000e+00,-2.337948574587129791e+00
0.000000000000000000e+00,0.000000000000000000e+00,-2.325675968133418703e+00
0.000000000000000000e+00,0.000000000000000000e+00,-2.313467784341012745e+00
0.000000000000000000e+00,0.000000000000000000e+00,-2.301323685035675748e+00
0.000000000000000000e+00,0.000000000000000000e+00,-2.289243333818355541e+00
0.000000000000000000e+00,0.000000000000000000e+00,-2.277226396055858082e+00
0.000000000000000000e+00,0.000000000000000000e+00,-2.265272538871582420e+00
0.000000000000000000e+00,0.000000000000000000e+00,-2.253381431136298296e+00
0.000000000000000000e+00,0.000000000000000000e+00,-2.241552743458975261e+00
0.000000000000000000e+00,0.000000000000000000e+00,-2.229786148177653970e+00
0.000000000000000000e+00,0.000000000000000000e+00,-2.218081319350376113e+00
0.000000000000000000e+00,0.000000000000000000e+00,-2.206437932746150743e+00
0.000000000000000000e+00,0.000000000000000000e+00,-2.194855665835975689e+00
0.000000000000000000e+00,0.000000000000000000e+00,-2.183334197783899810e+00
0.000000000000000000e+00,0.000000000000000000e+00,-2.171873209438139440e+00
0.000000000000000000e+00,0.000000000000000000e+00,-2.160472383322236567e+00
0.000000000000000000e+00,0.000000000000000000e+00,-2.149131403626262760e+00
0.000000000000000000e+00,0.000000000000000000e+00,-2.137849956198072832e+00
0.000000000000000000e+00,0.000000000000000000e+00,-2.126627728534602912e+00
0.000000000000000000e+00,0.000000000000000000e+00,-2.115464409773212928e+00
0.000000000000000000e+00,0.000000000000000000e+00,-2.104359690683075268e+00
0.000000000000000000e+00,0.000000000000000000e+00,-2.093313263656609635e+00
0.000000000000000000e+00,0.000000000000000000e+00,-2.082324822700961864e+00
0.000000000000000000e+00,0.000000000000000000e+00,-2.071394063429528476e+00
0.000000000000000000e+00,0.000000000000000000e+00,-2.060520683053523872e+00
0.000000000000000000e+00,0.000000000000000000e+00,-2.049704380373592372e+00
0.000000000000000000e+00,0.000000000000000000e+00,-2.038944855771467335e+00
0.000000000000000000e+00,0.000000000000000000e+00,-2.028241811201668909e+00
0.000000000000000000e+00,0.000000000000000000e+00,-2.017594950183249747e+00
0.000000000000000000e+00,0.000000000000000000e+00,-2.007003977791580684e+00
0.000000000000000000e+00,0.000000000000000000e+00,-1.996468600650182612e+00
0.000000000000000000e+00,0.000000000000000000e+00,-1.985988526922598751e+00
0.000000000000000000e+00,0.000000000000000000e+00,-1.975563466304312010e+00
0.000000000000000000e+00,0.000000000000000000e+00,-1.965193130014701861e+00
0.000000000000000000e+00,0.000000000000000000e+00,-1.954877230789045628e+00
0.000000000000000000e+00,0.000000000000000000e+00,-1.944615482870559964e+00
0.000000000000000000e+00,0.000000000000000000e+00,-1.934407602002487625e+00
0.000000000000000000e+00,0.000000000000000000e+00,-1.924253305420221105e+00
0.000000000000000000e+00,0.000000000000000000e+00,-1.914152311843471344e+00
0.000000000000000000e+00,0.000000000000000000e+00,-1.904104341468474848e+00
0.000000000000000000e+00,0.000000000000000000e+00,-1.894109115960243450e+00
0.000000000000000000e+00,0.000000000000000000e+00,-1.884166358444855138e+00
0.000000000000000000e+00,0.000000000000000000e+00,-1.874275793501783305e+00
0.000000000000000000e+00,0.000000000000000000e+00,-1.864437147156267516e+00
0.000000000000000000e+00,0.000000000000000000e+00,-1.854650146871724692e+00
0.000000000000000000e+00,0.000000000000000000e+00,-1.844914521542200703e+00
0.000000000000000000e+00,0.000000000000000000e+00,-1.835230001484857709e+00
0.000000000000000000e+00,0.000000000000000000e+00,-1.825596318432506582e+00
0.000000000000000000e+00,0.000000000000000000e+00,-1.816013205526174401e+00
0.000000000000000000e+00,0.000000000000000000e+00,-1.806480397307712149e+00
0.000000000000000000e+00,0.000000000000000000e+00,-1.796997629712442368e+00
0.000000000000000000e+00,0.000000000000000000e+00,-1.787564640061843235e+00
0.000000000000000000e+00,0.000000000000000000e+00,-1.778181167056273271e+00
0.000000000000000000e+00,0.000000000000000000e+00,-1.768846950767731796e+00
0.000000000000000000e+00,0.000000000000000000e+00,-1.759561732632661357e+00
0.000000000000000000e+00,0.000000000000000000e+00,-1.750325255444781236e+00
0.000000000000000000e+00,0.000000000000000000e+00,-1.741137263347966480e+00
0.000000000000000000e+00,0.000000000000000000e+00,-1.731997501829159125e+00
0.000000000000000000e+00,0.000000000000000000e+00,-1.722905717711317841e+00
0.000000000000000000e+00,0.000000000000000000e+00,-1.713861659146405092e+00
0.000000000000000000e+00,0.000000000000000000e+00,-1.704865075608410274e+00
0.000000000000000000e+00,0.000000000000000000e+00,-1.695915717886410601e+00
0.000000000000000000e+00,0.000000000000000000e+00,-1.687013338077667735e+00
0.000000000000000000e+00,0.000000000000000000e+00,-1.678157689580760614e+00
0.000000000000000000e+00,0.000000000000000000e+00,-1.669348527088753809e+00
0.000000000000000000e+00,0.000000000000000000e+00,-1.660585606582403173e+00
0.000000000000000000e+00,0.000000000000000000e+00,-1.651868685323396591e+00
0.000000000000000000e+00,0.000000000000000000e+00,-1.643197521847628906e+00
0.000000000000000000e+00,0.000000000000000000e+00,-1.634571875958513942e+00
0.000000000000000000e+00,0.000000000000000000e+00,-1.625991508720331380e+00
0.000000000000000000e+00,0.000000000000000000e+00,-1.617456182451607161e+00
0.000000000000000000e+00,0.000000000000000000e+00,-1.608965660718529866e+00
0.000000000000000000e+00,0.000000000000000000e+00,-1.600519708328400847e+00
0.000000000000000000e+00,0.000000000000000000e+00,-1.592118091323120987e+00
0.000000000000000000e+00,0.000000000000000000e+00,-1.583760576972707224e+00
0.000000000000000000e+00,0.000000000000000000e+00,-1.575446933768848368e+00
0.000000000000000000e+00,0.000000000000000000e+00,-1.567176931418490904e+00
0.000000000000000000e+00,0.000000000000000000e+00,-1.558950340837459869e+00
0.000000000000000000e+00,0.000000000000000000e+00,-1.550766934144113041e+00
0.000000000000000000e+00,0.000000000000000000e+00,-1.542626484653029095e+00
0.000000000000000000e+00,0.000000000000000000e+00,-1.534528766868726635e+00
0.000000000000000000e+00,0.000000000000000000e+00,-1.526473556479419846e+00
0.000000000000000000e+00,0.000000000000000000e+00,-1.518460630350803919e+00
0.000000000000000000e+00,0.000000000000000000e+00,-1.510489766519874433e+00
0.000000000000000000e+00,0.000000000000000000e+00,-1.502560744188777830e+00
0.000000000000000000e+00,0.000000000000000000e+00,-1.494673343718696534e+00
0.000000000000000000e+00,0.000000000000000000e+00,-1.486827346623764257e+00
0.000000000000000000e+00,0.000000000000000000e+00,-1.479022535565013285e+00
0.000000000000000000e+00,0.000000000000000000e+00,-1.471258694344354856e+00
0.000000000000000000e+00,0.000000000000000000e+00,-1.463535607898589719e+00
0.000000000000000000e+00,0.000000000000000000e+00,-1.455853062293452238e+00
0.000000000000000000e+00,0.000000000000000000e+00,-1.448210844717681578e+00
0.000000000000000000e+00,0.000000000000000000e+00,-1.440608743477129083e+00
0.000000000000000000e+00,0.000000000000000000e+00,-1.433046547988892971e+00
0.000000000000000000e+00,0.000000000000000000e+00,-1.425524048775486108e+00
0.000000000000000000e+00,0.000000000000000000e+00,-1.418041037459032649e+00
0.000000000000000000e+00,0.000000000000000000e+00,-1.410597306755494662e+00
0.000000000000000000e+00,0.000000000000000000e+00,-1.403192650468932490e+00
0.000000000000000000e+00,0.000000000000000000e+00,-1.395826863485792435e+00
0.000000000000000000e+00,0.000000000000000000e+00,-1.388499741769223750e+00
0.000000000000000000e+00,0.000000000000000000e+00,-1.381211082353427599e+00
0.000000000000000000e+00,0.000000000000000000e+00,-1.373960683338034006e+00
0.000000000000000000e+00,0.000000000000000000e+00,-1.366748343882510763e+00
0.000000000000000000e+00,0.000000000000000000e+00,-1.359573864200598781e+00
0.000000000000000000e+00,0.000000000000000000e+00,-1.352437045554777395e+00
0.000000000000000000e+00,0.000000000000000000e+00,-1.345337690250760998e+00
0.000000000000000000e+00,0.000000000000000000e+00,-1.338275601632020750e+00
0.000000000000000000e+00,0.000000000000000000e+00,-1.331250584074338494e+00
0.000000000000000000e+00,0.000000000000000000e+00,-1.324262442980387533e+00
0.000000000000000000e+00,0.000000000000000000e+00,-1.317310984774341165e+00
0.000000000000000000e+00,0.000000000000000000e+00,-1.310396016896511862e+00
0.000000000000000000e+00,0.000000000000000000e+00,-1.303517347798017312e+00
0.000000000000000000e+00,0.000000000000000000e+00,-1.296674786935473112e+00
0.000000000000000000e+00,0.000000000000000000e+00,-1.289868144765715874e+00
0.000000000000000000e+00,0.000000000000000000e+00,-1.283097232740551652e+00
0.000000000000000000e+00,0.000000000000000000e+00,-1.276361863301533894e+00
0.000000000000000000e+00,0.000000000000000000e+00,-1.269661849874766713e+00
0.000000000000000000e+00,0.000000000000000000e+00,-1.262997006865738792e+00
0.000000000000000000e+00,0.000000000000000000e+00,-1.256367149654180615e+00
0.000000000000000000e+00,0.000000000000000000e+00,-1.249772094588950999e+00
0.000000000000000000e+00,0.000000000000000000e+00,-1.243211658982950052e+00
0.000000000000000000e+00,0.000000000000000000e+00,-1.236685661108057444e+00
0.000000000000000000e+00,0.000000000000000000e+00,-1.230193920190099988e+00
0.000000000000000000e+00,0.000000000000000000e+00,-1.223736256403843647e+00
0.000000000000000000e+00,0.000000000000000000e+00,-1.217312490868010855e+00
0.000000000000000000e+00,0.000000000000000000e+00,-1.210922445640327361e+00
0.000000000000000000e+00,0.000000000000000000e+00,-1.204565943712591736e+00
0.000000000000000000e+00,0.000000000000000000e+00,-1.198242809005773291e+00
0.000000000000000000e+00,0.000000000000000000e+00,-1.191952866365134200e+00
0.000000000000000000e+00,0.000000000000000000e+00,-1.185695941555376498e+00
0.000000000000000000e+00,0.000000000000000000e+00,-1.179471861255816822e+00
0.000000000000000000e+00,0.000000000000000000e+00,-1.173280453055585149e+00
0.000000000000000000e+00,0.000000000000000000e+00,-1.167121545448848829e+00
0.000000000000000000e+00,0.000000000000000000e+00,-1.160994967830061508e+00
0.000000000000000000e+00,0.000000000000000000e+00,-1.154900550489238009e+00
0.000000000000000000e+00,0.000000000000000000e+00,-1.148838124607251876e+00
0.000000000000000000e+00,0.000000000000000000e+00,-1.142807522251160890e+00
0.000000000000000000e+00,0.000000000000000000e+00,-1.136808576369553681e+00
0.000000000000000000e+00,0.000000000000000000e+00,-1.130841120787922316e+00
0.000000000000000000e+00,0.000000000000000000e+00,-1.124904990204060207e+00
0.000000000000000000e+00,0.000000000000000000e+00,-1.119000020183482214e+00
0.000000000000000000e+00,0.000000000000000000e+00,-1.113126047154870513e+00
0.000000000000000000e+00,0.000000000000000000e+00,-1.107282908405542665e+00
0.000000000000000000e+00,0.000000000000000000e+00,-1.101470442076944556e+00
0.000000000000000000e+00,0.000000000000000000e+00,-1.095688487160168201e+00
0.000000000000000000e+00,0.000000000000000000e+00,-1.089936883491489539e+00
0.000000000000000000e+00,0.000000000000000000e+00,-1.084215471747933091e+00
0.000000000000000000e+00,0.000000000000000000e+00,-1.078524093442858378e+00
0.000000000000000000e+00,0.000000000000000000e+00,-1.072862590921569437e+00
0.000000000000000000e+00,0.000000000000000000e+00,-1.067230807356948308e+00
0.000000000000000000e+00,0.000000000000000000e+00,-1.061628586745110736e+00
0.000000000000000000e+00,0.000000000000000000e+00,-1.056055773901084516e+00
0.000000000000000000e+00,0.000000000000000000e+00,-1.050512214454510262e+00
0.000000000000000000e+00,0.000000000000000000e+00,-1.044997754845365945e+00
0.000000000000000000e+00,0.000000000000000000e+00,-1.039512242319713842e+00
0.000000000000000000e+00,0.000000000000000000e+00,-1.034055524925467040e+00
0.000000000000000000e+00,0.000000000000000000e+00,-1.028627451508181911e+00
0.000000000000000000e+00,0.000000000000000000e+00,-1.023227871706871017e+00
0.000000000000000000e+00,0.000000000000000000e+00,-1.017856635949837552e+00
0.000000000000000000e+00,0.000000000000000000e+00,-1.012513595450532877e+00
0.000000000000000000e+00,0.000000000000000000e+00,-1.007198602203433824e+00
0.000000000000000000e+00,0.000000000000000000e+00,-1.001911508979942633e+00
0.000000000000000000e+00,0.000000000000000000e+00,-9.966521693243107771e-01
0.000000000000000000e+00,0.000000000000000000e+00,-9.914204375495798693e-01
0.000000000000000000e+00,0.000000000000000000e+00,-9.862161687335470051e-01
0.000000000000000000e+00,0.000000000000000000e+00,-9.810392187147504162e-01
0.000000000000000000e+00,0.000000000000000000e+00,-9.758894440884759991e-01
0.000000000000000000e+00,0.000000000000000000e+00,-9.707667022027846038e-01
0.000000000000000000e+00,0.000000000000000000e+00,-9.656708511545606388e-01
0.000000000000000000e+00,0.000000000000000000e+00,-9.606017497855818821e-01
0.000000000000000000e+00,0.000000000000000000e+00,-9.555592576786084980e-01
0.000000000000000000e+00,0.000000000000000000e+00,-9.505432351534930380e-01
0.000000000000000000e+00,0.000000000000000000e+00,-9.455535432633123127e-01
0.000000000000000000e+00,0.000000000000000000e+00,-9.405900437905178046e-01
0.000000000000000000e+00,0.000000000000000000e+00,-9.356525992431076189e-01
0.000000000000000000e+00,0.000000000000000000e+00,-9.307410728508167530e-01
0.000000000000000000e+00,0.000000000000000000e+00,-9.258553285613295714e-01
0.000000000000000000e+00,0.000000000000000000e+00,-9.209952310365107087e-01
0.000000000000000000e+00,0.000000000000000000e+00,-9.161606456486556249e-01
0.000000000000000000e+00,0.000000000000000000e+00,-9.113514384767618104e-01
0.000000000000000000e+00,0.000000000000000000e+00,-9.065674763028188643e-01
0.000000000000000000e+00,0.000000000000000000e+00,-9.018086266081191127e-01
0.000000000000000000e+00,0.000000000000000000e+00,-8.970747575695853238e-01
0.000000000000000000e+00,0.000000000000000000e+00,-8.923657380561198504e-01
0.000000000000000000e+00,0.000000000000000000e+00,-8.876814376249732019e-01
0.000000000000000000e+00,0.000000000000000000e+00,-8.830217265181287134e-01
0.000000000000000000e+00,0.000000000000000000e+00,-8.783864756587095313e-01
0.000000000000000000e+00,0.000000000000000000e+00,-8.737755566474032509e-01
0.000000000000000000e+00,0.000000000000000000e+00,-8.691888417589039850e-01
0.000000000000000000e+00,0.000000000000000000e+00,-8.646262039383755260e-01
0.000000000000000000e+00,0.000000000000000000e+00,-8.600875167979304958e-01
0.000000000000000000e+00,0.000000000000000000e+00,-8.555726546131311450e-01
0.000000000000000000e+00,0.000000000000000000e+00,-8.510814923195053616e-01
0.000000000000000000e+00,0.000000000000000000e+00,-8.466139055090825538e-01
0.000000000000000000e+00,0.000000000000000000e+00,-8.421697704269476281e-01
0.000000000000000000e+00,0.000000000000000000e+00,-8.377489639678130651e-01
0.000000000000000000e+00,0.000000000000000000e+00,-8.333513636726077589e-01
0.000000000000000000e+00,0.000000000000000000e+00,-8.289768477250865075e-01
0.000000000000000000e+00,0.000000000000000000e+00,-8.246252949484548234e-01
0.000000000000000000e+00,0.000000000000000000e+00,-8.202965848020118411e-01
0.000000000000000000e+00,0.000000000000000000e+00,-8.159905973778119881e-01
0.000000000000000000e+00,0.000000000000000000e+00,-8.117072133973435299e-01
0.000000000000000000e+00,0.000000000000000000e+00,-8.074463142082234368e-01
0.000000000000000000e+00,0.000000000000000000e+00,-8.032077817809110121e-01
0.000000000000000000e+00,0.000000000000000000e+00,-7.989914987054393958e-01
0.000000000000000000e+00,0.000000000000000000e+00,-7.947973481881619451e-01
0.000000000000000000e+00,0.000000000000000000e+00,-7.906252140485179325e-01
0.000000000000000000e+00,0.000000000000000000e+00,-7.864749807158142314e-01
0.000000000000000000e+00,0.000000000000000000e+00,-7.823465332260230998e-01
0.000000000000000000e+00,0.000000000000000000e+00,-7.782397572185978385e-01
0.000000000000000000e+00,0.000000000000000000e+00,-7.741545389333061022e-01
0.000000000000000000e+00,0.000000000000000000e+00,-7.700907652070770881e-01
0.000000000000000000e+00,0.000000000000000000e+00,-7.660483234708677092e-01
0.000000000000000000e+00,0.000000000000000000e+00,-7.620271017465438668e-01
0.000000000000000000e+00,0.000000000000000000e+00,-7.580269886437794868e-01
0.000000000000000000e+00,0.000000000000000000e+00,-7.540478733569696557e-01
0.000000000000000000e+00,0.000000000000000000e+00,-7.500896456621622965e-01
0.000000000000000000e+00,0.000000000000000000e+00,-7.461521959140042792e-01
0.000000000000000000e+00,0.000000000000000000e+00,-7.422354150427055153e-01
0.000000000000000000e+00,0.000000000000000000e+00,-7.383391945510153764e-01
0.000000000000000000e+00,0.000000000000000000e+00,-7.344634265112187643e-01
0.000000000000000000e+00,0.000000000000000000e+00,-7.306080035621460578e-01
0.000000000000000000e+00,0.000000000000000000e+00,-7.267728189061992694e-01
0.000000000000000000e+00,0.000000000000000000e+00,-7.229577663063943005e-01
0.000000000000000000e+00,0.000000000000000000e+00,-7.191627400834167405e-01
0.000000000000000000e+00,0.000000000000000000e+00,-7.153876351126952082e-01
0.000000000000000000e+00,0.000000000000000000e+00,-7.116323468214892367e-01
0.000000000000000000e+00,0.000000000000000000e+00,-7.078967711859927014e-01
0.000000000000000000e+00,0.000000000000000000e+00,-7.041808047284527916e-01
0.000000000000000000e+00,0.000000000000000000e+00,-7.004843445143026370e-01
0.000000000000000000e+00,0.000000000000000000e+00,-6.968072881493099224e-01
0.000000000000000000e+00,0.000000000000000000e+00,-6.931495337767419329e-01
0.000000000000000000e+00,0.000000000000000000e+00,-6.895109800745424788e-01
0.000000000000000000e+00,0.000000000000000000e+00,-6.858915262525254741e-01
0.000000000000000000e+00,0.000000000000000000e+00,-6.822910720495839465e-01
0.000000000000000000e+00,0.000000000000000000e+00,-6.787095177309113714e-01
0.000000000000000000e+00,0.000000000000000000e+00,-6.751467640852404362e-01
0.000000000000000000e+00,0.000000000000000000e+00,-6.716027124220940170e-01
0.000000000000000000e+00,0.000000000000000000e+00,-6.680772645690512546e-01
0.000000000000000000e+00,0.000000000000000000e+00,-6.645703228690283959e-01
0.000000000000000000e+00,0.000000000000000000e+00,-6.610817901775729588e-01
0.000000000000000000e+00,0.000000000000000000e+00,-6.576115698601742166e-01
0.000000000000000000e+00,0.000000000000000000e+00,-6.541595657895853400e-01
0.000000000000000000e+00,0.000000000000000000e+00,-6.507256823431606385e-01
0.000000000000000000e+00,0.000000000000000000e+00,-6.473098244002066792e-01
0.000000000000000000e+00,0.000000000000000000e+00,-6.439118973393481715e-01
0.000000000000000000e+00,0.000000000000000000e+00,-6.405318070359057314e-01
0.000000000000000000e+00,0.000000000000000000e+00,-6.371694598592895220e-01
0.000000000000000000e+00,0.000000000000000000e+00,-6.338247626704055504e-01
0.000000000000000000e+00,0.000000000000000000e+00,-6.304976228190747323e-01
0.000000000000000000e+00,0.000000000000000000e+00,-6.271879481414679436e-01
0.000000000000000000e+00,0.000000000000000000e+00,-6.238956469575507313e-01
0.000000000000000000e+00,0.000000000000000000e+00,-6.206206280685461207e-01
0.000000000000000000e+00,0.000000000000000000e+00,-6.173628007544077478e-01
0.000000000000000000e+00,0.000000000000000000e+00,-6.141220747713063144e-01
0.000000000000000000e+00,0.000000000000000000e+00,-6.108983603491292547e-01
0.000000000000000000e+00,0.000000000000000000e+00,-6.076915681889956122e-01
0.000000000000000000e+00,0.000000000000000000e+00,-6.045016094607809087e-01
0.000000000000000000e+00,0.000000000000000000e+00,-6.013283958006572227e-01
0.000000000000000000e+00,0.000000000000000000e+00,-5.981718393086453700e-01
0.000000000000000000e+00,0.000000000000000000e+00,-5.950318525461800734e-01
0.000000000000000000e+00,0.000000000000000000e+00,-5.919083485336877892e-01
0.000000000000000000e+00,0.000000000000000000e+00,-5.888012407481783006e-01
0.000000000000000000e+00,0.000000000000000000e+00,-5.857104431208455253e-01
0.000000000000000000e+00,0.000000000000000000e+00,-5.826358700346853103e-01
0.000000000000000000e+00,0.000000000000000000e+00,-5.795774363221238845e-01
0.000000000000000000e+00,0.000000000000000000e+00,-5.765350572626574133e-01
0.000000000000000000e+00,0.000000000000000000e+00,-5.735086485805060974e-01
0.000000000000000000e+00,0.000000000000000000e+00,-5.704981264422799292e-01
0.000000000000000000e+00,0.000000000000000000e+00,-5.675034074546552176e-01
0.000000000000000000e+00,0.000000000000000000e+00,-5.645244086620654356e-01
0.000000000000000000e+00,0.000000000000000000e+00,-5.615610475444033911e-01
0.000000000000000000e+00,0.000000000000000000e+00,-5.586132420147356115e-01
0.000000000000000000e+00,0.000000000000000000e+00,-5.556809104170274960e-01
0.000000000000000000e+00,0.000000000000000000e+00,-5.527639715238819029e-01
0.000000000000000000e+00,0.000000000000000000e+00,-5.498623445342889493e-01
0.000000000000000000e+00,0.000000000000000000e+00,-5.469759490713882455e-01
0.000000000000000000e+00,0.000000000000000000e+00,-5.441047051802416767e-01
0.000000000000000000e+00,0.000000000000000000e+00,-5.412485333256196185e-01
0.000000000000000000e+00,0.000000000000000000e+00,-5.384073543897970326e-01
0.000000000000000000e+00,0.000000000000000000e+00,-5.355810896703619983e-01
0.000000000000000000e+00,0.000000000000000000e+00,-5.327696608780351228e-01
0.000000000000000000e+00,0.000000000000000000e+00,-5.299729901345016092e-01
0.000000000000000000e+00,0.000000000000000000e+00,-5.271909999702543148e-01
0.000000000000000000e+00,0.000000000000000000e+00,-5.244236133224468022e-01
0.000000000000000000e+00,0.000000000000000000e+00,-5.216707535327590461e-01
0.000000000000000000e+00,0.000000000000000000e+00,-5.189323443452736884e-01
0.000000000000000000e+00,0.000000000000000000e+00,-5.162083099043641710e-01
0.000000000000000000e+00,0.000000000000000000e+00,-5.134985747525934174e-01
0.000000000000000000e+00,0.000000000000000000e+00,-5.108030638286235048e-01
0.000000000000000000e+00,0.000000000000000000e+00,-5.081217024651359937e-01
0.000000000000000000e+00,0.000000000000000000e+00,-5.054544163867644713e-01
0.000000000000000000e+00,0.000000000000000000e+00,-5.028011317080366416e-01
0.000000000000000000e+00,0.000000000000000000e+00,-5.001617749313274075e-01
0.000000000000000000e+00,0.000000000000000000e+00,-4.975362729448232213e-01
0.000000000000000000e+00,0.000000000000000000e+00,-4.949245530204967602e-01
0.000000000000000000e+00,0.000000000000000000e+00,-4.923265428120924270e-01
0.000000000000000000e+00,0.000000000000000000e+00,-4.897421703531228410e-01
0.000000000000000000e+00,0.000000000000000000e+00,-4.871713640548733237e-01
0.000000000000000000e+00,0.000000000000000000e+00,-4.846140527044216495e-01
0.000000000000000000e+00,0.000000000000000000e+00,-4.820701654626627919e-01
0.000000000000000000e+00,0.000000000000000000e+00,-4.795396318623486032e-01
0.000000000000000000e+00,0.000000000000000000e+00,-4.770223818061349874e-01
0.000000000000000000e+00,0.000000000000000000e+00,-4.745183455646398984e-01
0.000000000000000000e+00,0.000000000000000000e+00,-4.720274537745118848e-01
0.000000000000000000e+00,0.000000000000000000e+00,-4.695496374365092929e-01
0.000000000000000000e+00,0.000000000000000000e+00,-4.670848279135889625e-01
0.000000000000000000e+00,0.000000000000000000e+00,-4.646329569290035266e-01
0.000000000000000000e+00,0.000000000000000000e+00,-4.621939565644121450e-01
0.000000000000000000e+00,0.000000000000000000e+00,-4.597677592579978989e-01
0.000000000000000000e+00,0.000000000000000000e+00,-4.573542978025960659e-01
0.000000000000000000e+00,0.000000000000000000e+00,-4.549535053438331644e-01
0.000000000000000000e+00,0.000000000000000000e+00,-4.525653153782745464e-01
0.000000000000000000e+00,0.000000000000000000e+00,-4.501896617515829813e-01
0.000000000000000000e+00,0.000000000000000000e+00,-4.478264786566850120e-01
0.000000000000000000e+00,0.000000000000000000e+00,-4.454757006319484125e-01
0.000000000000000000e+00,0.000000000000000000e+00,-4.431372625593696379e-01
0.000000000000000000e+00,0.000000000000000000e+00,-4.408110996627690459e-01
0.000000000000000000e+00,0.000000000000000000e+00,-4.384971475059971646e-01
0.000000000000000000e+00,0.000000000000000000e+00,-4.361953419911491769e-01
0.000000000000000000e+00,0.000000000000000000e+00,-4.339056193567905617e-01
0.000000000000000000e+00,0.000000000000000000e+00,-4.316279161761897298e-01
0.000000000000000000e+00,0.000000000000000000e+00,-4.293621693555605412e-01
0.000000000000000000e+00,0.000000000000000000e+00,-4.271083161323162014e-01
0.000000000000000000e+00,0.000000000000000000e+00,-4.248662940733303195e-01
0.000000000000000000e+00,0.000000000000000000e+00,-4.226360410732061257e-01
0.000000000000000000e+00,0.000000000000000000e+00,-4.204174953525579017e-01
0.000000000000000000e+00,0.000000000000000000e+00,-4.182105954562980732e-01
0.000000000000000000e+00,0.000000000000000000e+00,-4.160152802519359039e-01
0.000000000000000000e+00,0.000000000000000000e+00,-4.138314889278839059e-01
0.000000000000000000e+00,0.000000000000000000e+00,-4.116591609917731320e-01
0.000000000000000000e+00,0.000000000000000000e+00,-4.094982362687776822e-01
0.000000000000000000e+00,0.000000000000000000e+00,-4.073486548999473711e-01
0.000000000000000000e+00,0.000000000000000000e+00,-4.052103573405499426e-01
0.000000000000000000e+00,0.000000000000000000e+00,-4.030832843584220004e-01
0.000000000000000000e+00,0.000000000000000000e+00,-4.009673770323278208e-01
0.000000000000000000e+00,0.000000000000000000e+00,-3.988625767503271580e-01
0.000000000000000000e+00,0.000000000000000000e+00,-3.967688252081515987e-01
0.000000000000000000e+00,0.000000000000000000e+00,-3.946860644075894098e-01
0.000000000000000000e+00,0.000000000000000000e+00,-3.926142366548793783e-01
0.000000000000000000e+00,0.000000000000000000e+00,-3.905532845591126456e-01
0.000000000000000000e+00,0.000000000000000000e+00,-3.885031510306433122e-01
0.000000000000000000e+00,0.000000000000000000e+00,-3.864637792795055371e-01
0.000000000000000000e+00,0.000000000000000000e+00,-3.844351128138415175e-01
0.000000000000000000e+00,0.000000000000000000e+00,-3.824170954383367405e-01
0.000000000000000000e+00,0.000000000000000000e+00,-3.804096712526630064e-01
0.000000000000000000e+00,0.000000000000000000e+00,-3.784127846499302228e-01
0.000000000000000000e+00,0.000000000000000000e+00,-3.764263803151454701e-01
0.000000000000000000e+00,0.000000000000000000e+00,-3.744504032236813940e-01
0.000000000000000000e+00,0.000000000000000000e+00,-3.724847986397517574e-01
0.000000000000000000e+00,0.000000000000000000e+00,-3.705295121148948767e-01
0.000000000000000000e+00,0.000000000000000000e+00,-3.685844894864664933e-01
0.000000000000000000e+00,0.000000000000000000e+00,-3.666496768761378089e-01
0.000000000000000000e+00,0.000000000000000000e+00,-3.647250206884036228e-01
0.000000000000000000e+00,0.000000000000000000e+00,-3.628104676090983527e-01
0.000000000000000000e+00,0.000000000000000000e+00,-3.609059646039189384e-01
0.000000000000000000e+00,0.000000000000000000e+00,-3.590114589169552395e-01
0.000000000000000000e+00,0.000000000000000000e+00,-3.571268980692292039e-01
0.000000000000000000e+00,0.000000000000000000e+00,-3.552522298572412529e-01
0.000000000000000000e+00,0.000000000000000000e+00,-3.533874023515232166e-01
0.000000000000000000e+00,0.000000000000000000e+00,-3.515323638952013163e-01
0.000000000000000000e+00,0.000000000000000000e+00,-3.496870631025640885e-01
0.000000000000000000e+00,0.000000000000000000e+00,-3.478514488576393560e-01
0.000000000000000000e+00,0.000000000000000000e+00,-3.460254703127784159e-01
0.000000000000000000e+00,0.000000000000000000e+00,-3.442090768872474449e-01
0.000000000000000000e+00,0.000000000000000000e+00,-3.424022182658261193e-01
0.000000000000000000e+00,0.000000000000000000e+00,-3.406048443974142859e-01
0.000000000000000000e+00,0.000000000000000000e+00,-3.388169054936447933e-01
0.000000000000000000e+00,0.000000000000000000e+00,-3.370383520275051503e-01
0.000000000000000000e+00,0.000000000000000000e+00,-3.352691347319660120e-01
0.000000000000000000e+00,0.000000000000000000e+00,-3.335092045986146614e-01
0.000000000000000000e+00,0.000000000000000000e+00,-3.317585128762992608e-01
0.000000000000000000e+00,0.000000000000000000e+00,-3.300170110697770443e-01
0.000000000000000000e+00,0.000000000000000000e+00,-3.282846509383718359e-01
0.000000000000000000e+00,0.000000000000000000e+00,-3.265613844946378408e-01
0.000000000000000000e+00,0.000000000000000000e+00,-3.248471640030297092e-01
0.000000000000000000e+00,0.000000000000000000e+00,-3.231419419785807601e-01
0.000000000000000000e+00,0.000000000000000000e+00,-3.214456711855873672e-01
0.000000000000000000e+00,0.000000000000000000e+00,-3.197583046363008386e-01
0.000000000000000000e+00,0.000000000000000000e+00,-3.180797955896246809e-01
0.000000000000000000e+00,0.000000000000000000e+00,-3.164100975498213564e-01
0.000000000000000000e+00,0.000000000000000000e+00,-3.147491642652231469e-01
0.000000000000000000e+00,0.000000000000000000e+00,-3.130969497269522339e-01
0.000000000000000000e+00,0.000000000000000000e+00,-3.114534081676447741e-01
0.000000000000000000e+00,0.000000000000000000e+00,-3.098184940601841353e-01
0.000000000000000000e+00,0.000000000000000000e+00,-3.081921621164394609e-01
0.000000000000000000e+00,0.000000000000000000e+00,-3.065743672860107849e-01
0.000000000000000000e+00,0.000000000000000000e+00,-3.049650647549818627e-01
0.000000000000000000e+00,0.000000000000000000e+00,-3.033642099446780538e-01
0.000000000000000000e+00,0.000000000000000000e+00,-3.017717585104323086e-01
0.000000000000000000e+00,0.000000000000000000e+00,-3.001876663403560408e-01
0.000000000000000000e+00,0.000000000000000000e+00,-2.986118895541170493e-01
0.000000000000000000e+00,0.000000000000000000e+00,-2.970443845017246565e-01
0.000000000000000000e+00,0.000000000000000000e+00,-2.954851077623205091e-01
0.000000000000000000e+00,0.000000000000000000e+00,-2.939340161429758735e-01
0.000000000000000000e+00,0.000000000000000000e+00,-2.923910666774939271e-01
0.000000000000000000e+00,0.000000000000000000e+00,-2.908562166252212644e-01
0.000000000000000000e+00,0.000000000000000000e+00,-2.893294234698630119e-01
0.000000000000000000e+00,0.000000000000000000e+00,-2.878106449183059912e-01
0.000000000000000000e+00,0.000000000000000000e+00,-2.862998388994452137e-01
0.000000000000000000e+00,0.000000000000000000e+00,-2.847969635630207552e-01
0.000000000000000000e+00,0.000000000000000000e+00,-2.833019772784572954e-01
0.000000000000000000e+00,0.000000000000000000e+00,-2.818148386337107625e-01
0.000000000000000000e+00,0.000000000000000000e+00,-2.803355064341221392e-01
0.000000000000000000e+00,0.000000000000000000e+00,-2.788639397012753207e-01
0.000000000000000000e+00,0.000000000000000000e+00,-2.774000976718624667e-01
0.000000000000000000e+00,0.000000000000000000e+00,-2.759439397965546270e-01
0.000000000000000000e+00,0.000000000000000000e+00,-2.744954257388795282e-01
0.000000000000000000e+00,0.000000000000000000e+00,-2.730545153741024134e-01
0.000000000000000000e+00,0.000000000000000000e+00,-2.716211687881157077e-01
0.000000000000000000e+00,0.000000000000000000e+00,-2.701953462763333480e-01
0.000000000000000000e+00,0.000000000000000000e+00,-2.687770083425913836e-01
0.000000000000000000e+00,0.000000000000000000e+00,-2.673661156980526310e-01
0.000000000000000000e+00,0.000000000000000000e+00,-2.659626292601190434e-01
0.000000000000000000e+00,0.000000000000000000e+00,-2.645665101513484108e-01
0.000000000000000000e+00,0.000000000000000000e+00,-2.631777196983791645e-01
0.000000000000000000e+00,0.000000000000000000e+00,-2.617962194308577906e-01
0.000000000000000000e+00,0.000000000000000000e+00,-2.604219710803732935e-01
0.000000000000000000e+00,0.000000000000000000e+00,-2.590549365793971548e-01
0.000000000000000000e+00,0.000000000000000000e+00,-2.576950780602287883e-01
0.000000000000000000e+00,0.000000000000000000e+00,-2.563423578539473779e-01
0.000000000000000000e+00,0.000000000000000000e+00,-2.549967384893668809e-01
0.000000000000000000e+00,0.000000000000000000e+00,-2.536581826919997451e-01
0.000000000000000000e+00,0.000000000000000000e+00,-2.523266533830231251e-01
0.000000000000000000e+00,0.000000000000000000e+00,-2.510021136782527029e-01
0.000000000000000000e+00,0.000000000000000000e+00,-2.496845268871200618e-01
0.000000000000000000e+00,0.000000000000000000e+00,-2.483738565116574148e-01
0.000000000000000000e+00,0.000000000000000000e+00,-2.470700662454849428e-01
0.000000000000000000e+00,0.000000000000000000e+00,-2.457731199728071247e-01
0.000000000000000000e+00,0.000000000000000000e+00,-2.444829817674104011e-01
0.000000000000000000e+00,0.000000000000000000e+00,-2.431996158916694961e-01
0.000000000000000000e+00,0.000000000000000000e+00,-2.419229867955567104e-01
0.000000000000000000e+00,0.000000000000000000e+00,-2.406530591156572640e-01
0.000000000000000000e+00,0.000000000000000000e+00,-2.393897976741898304e-01
0.000000000000000000e+00,0.000000000000000000e+00,-2.381331674780322594e-01
0.000000000000000000e+00,0.000000000000000000e+00,-2.368831337177513541e-01
0.000000000000000000e+00,0.000000000000000000e+00,-2.356396617666398630e-01
0.000000000000000000e+00,0.000000000000000000e+00,-2.344027171797562759e-01
0.000000000000000000e+00,0.000000000000000000e+00,-2.331722656929708926e-01
0.000000000000000000e+00,0.000000000000000000e+00,-2.319482732220176924e-01
0.000000000000000000e+00,0.000000000000000000e+00,-2.307307058615488127e-01
0.000000000000000000e+00,0.000000000000000000e+00,-2.295195298841962994e-01
0.000000000000000000e+00,0.000000000000000000e+00,-2.283147117396366610e-01
0.000000000000000000e+00,0.000000000000000000e+00,-2.271162180536634434e-01
0.000000000000000000e+00,0.000000000000000000e+00,-2.259240156272605826e-01
0.000000000000000000e+00,0.000000000000000000e+00,-2.247380714356846110e-01
0.000000000000000000e+00,0.000000000000000000e+00,-2.235583526275483068e-01
0.000000000000000000e+00,0.000000000000000000e+00,-2.223848265239118938e-01
0.000000000000000000e+00,0.000000000000000000e+00,-2.212174606173770430e-01
0.000000000000000000e+00,0.000000000000000000e+00,-2.200562225711870101e-01
0.000000000000000000e+00,0.000000000000000000e+00,-2.189010802183306292e-01
0.000000000000000000e+00,0.000000000000000000e+00,-2.177520015606506376e-01
0.000000000000000000e+00,0.000000000000000000e+00,-2.166089547679581895e-01
0.000000000000000000e+00,0.000000000000000000e+00,-2.154719081771509781e-01
0.000000000000000000e+00,0.000000000000000000e+00,-2.143408302913361596e-01
0.000000000000000000e+00,0.000000000000000000e+00,-2.132156897789568850e-01
0.000000000000000000e+00,0.000000000000000000e+00,-2.120964554729261320e-01
0.000000000000000000e+00,0.000000000000000000e+00,-2.109830963697619244e-01
0.000000000000000000e+00,0.000000000000000000e+00,-2.098755816287294351e-01
0.000000000000000000e+00,0.000000000000000000e+00,-2.087738805709856982e-01
0.000000000000000000e+00,0.000000000000000000e+00,-2.076779626787307320e-01
0.000000000000000000e+00,0.000000000000000000e+00,-2.065877975943617995e-01
0.000000000000000000e+00,0.000000000000000000e+00,-2.055033551196323860e-01
0.000000000000000000e+00,0.000000000000000000e+00,-2.044246052148160908e-01
0.000000000000000000e+00,0.000000000000000000e+00,-2.033515179978737375e-01
0.000000000000000000e+00,0.000000000000000000e+00,-2.022840637436269240e-01
0.000000000000000000e+00,0.000000000000000000e+00,-2.012222128829328771e-01
0.000000000000000000e+00,0.000000000000000000e+00,-2.001659360018670508e-01
0.000000000000000000e+00,0.000000000000000000e+00,-1.991152038409071123e-01
0.000000000000000000e+00,0.000000000000000000e+00,-1.980699872941225903e-01
0.000000000000000000e+00,0.000000000000000000e+00,-1.970302574083692415e-01
0.000000000000000000e+00,0.000000000000000000e+00,-1.959959853824870535e-01
0.000000000000000000e+00,0.000000000000000000e+00,-1.949671425665021052e-01
0.000000000000000000e+00,0.000000000000000000e+00,-1.939437004608325632e-01
0.000000000000000000e+00,0.000000000000000000e+00,-1.929256307154995354e-01
0.000000000000000000e+00,0.000000000000000000e+00,-1.919129051293420596e-01
0.000000000000000000e+00,0.000000000000000000e+00,-1.909054956492357569e-01
0.000000000000000000e+00,0.000000000000000000e+00,-1.899033743693155918e-01
0.000000000000000000e+00,0.000000000000000000e+00,-1.889065135302028797e-01
0.000000000000000000e+00,0.000000000000000000e+00,-1.879148855182361799e-01
0.000000000000000000e+00,0.000000000000000000e+00,-1.869284628647067403e-01
0.000000000000000000e+00,0.000000000000000000e+00,-1.859472182450977173e-01
0.000000000000000000e+00,0.000000000000000000e+00,-1.849711244783272257e-01
0.000000000000000000e+00,0.000000000000000000e+00,-1.840001545259946913e-01
0.000000000000000000e+00,0.000000000000000000e+00,-1.830342814916322003e-01
0.000000000000000000e+00,0.000000000000000000e+00,-1.820734786199603439e-01
0.000000000000000000e+00,0.000000000000000000e+00,-1.811177192961454796e-01
0.000000000000000000e+00,0.000000000000000000e+00,-1.801669770450640695e-01
0.000000000000000000e+00,0.000000000000000000e+00,-1.792212255305682400e-01
0.000000000000000000e+00,0.000000000000000000e+00,-1.782804385547565873e-01
0.000000000000000000e+00,0.000000000000000000e+00,-1.773445900572488132e-01
0.000000000000000000e+00,0.000000000000000000e+00,-1.764136541144631365e-01
0.000000000000000000e+00,0.000000000000000000e+00,-1.754876049388990333e-01
0.000000000000000000e+00,0.000000000000000000e+00,-1.745664168784219761e-01
0.000000000000000000e+00,0.000000000000000000e+00,-1.736500644155531681e-01
0.000000000000000000e+00,0.000000000000000000e+00,-1.727385221667632476e-01
0.000000000000000000e+00,0.000000000000000000e+00,-1.718317648817689058e-01
0.000000000000000000e+00,0.000000000000000000e+00,-1.709297674428332525e-01
0.000000000000000000e+00,0.000000000000000000e+00,-1.700325048640699555e-01
0.000000000000000000e+00,0.000000000000000000e+00,-1.691399522907512665e-01
0.000000000000000000e+00,0.000000000000000000e+00,-1.682520849986192946e-01
0.000000000000000000e+00,0.000000000000000000e+00,-1.673688783932012758e-01
0.000000000000000000e+00,0.000000000000000000e+00,-1.664903080091282295e-01
0.000000000000000000e+00,0.000000000000000000e+00,-1.656163495094577220e-01
0.000000000000000000e+00,0.000000000000000000e+00,-1.647469786849993234e-01
0.000000000000000000e+00,0.000000000000000000e+00,-1.638821714536439766e-01
0.000000000000000000e+00,0.000000000000000000e+00,-1.630219038596974479e-01
0.000000000000000000e+00,0.000000000000000000e+00,-1.621661520732156081e-01
0.000000000000000000e+00,0.000000000000000000e+00,-1.613148923893454878e-01
0.000000000000000000e+00,0.000000000000000000e+00,-1.604681012276678032e-01
0.000000000000000000e+00,0.000000000000000000e+00,-1.596257551315443390e-01
0.000000000000000000e+00,0.000000000000000000e+00,-1.587878307674673029e-01
0.000000000000000000e+00,0.000000000000000000e+00,-1.579543049244143404e-01
0.000000000000000000e+00,0.000000000000000000e+00,-1.571251545132047456e-01
0.000000000000000000e+00,0.000000000000000000e+00,-1.563003565658592497e-01
0.000000000000000000e+00,0.000000000000000000e+00,-1.554798882349656408e-01
0.000000000000000000e+00,0.000000000000000000e+00,-1.546637267930439930e-01
0.000000000000000000e+00,0.000000000000000000e+00,-1.538518496319181694e-01
0.000000000000000000e+00,0.000000000000000000e+00,-1.530442342620892404e-01
0.000000000000000000e+00,0.000000000000000000e+00,-1.522408583121121484e-01
0.000000000000000000e+00,0.000000000000000000e+00,-1.514416995279764810e-01
0.000000000000000000e+00,0.000000000000000000e+00,-1.506467357724904088e-01
0.000000000000000000e+00,0.000000000000000000e+00,-1.498559450246665092e-01
0.000000000000000000e+00,0.000000000000000000e+00,-1.490693053791125322e-01
0.000000000000000000e+00,0.000000000000000000e+00,-1.482867950454241912e-01
0.000000000000000000e+00,0.000000000000000000e+00,-1.475083923475819514e-01
0.000000000000000000e+00,0.000000000000000000e+00,-1.467340757233504545e-01
0.000000000000000000e+00,0.000000000000000000e+00,-1.459638237236803027e-01
0.000000000000000000e+00,0.000000000000000000e+00,-1.451976150121155607e-01
0.000000000000000000e+00,0.000000000000000000e+00,-1.444354283642013959e-01
0.000000000000000000e+00,0.000000000000000000e+00,-1.436772426668967984e-01
0.000000000000000000e+00,0.000000000000000000e+00,-1.429230369179894378e-01
0.000000000000000000e+00,0.000000000000000000e+00,-1.421727902255138232e-01
0.000000000000000000e+00,0.000000000000000000e+00,-1.414264818071726826e-01
0.000000000000000000e+00,0.000000000000000000e+00,-1.406840909897617842e-01
0.000000000000000000e+00,0.000000000000000000e+00,-1.399455972085973665e-01
0.000000000000000000e+00,0.000000000000000000e+00,-1.392109800069448733e-01
0.000000000000000000e+00,0.000000000000000000e+00,-1.384802190354540996e-01
0.000000000000000000e+00,0.000000000000000000e+00,-1.377532940515945881e-01
0.000000000000000000e+00,0.000000000000000000e+00,-1.370301849190954935e-01
0.000000000000000000e+00,0.000000000000000000e+00,-1.363108716073867799e-01
0.000000000000000000e+00,0.000000000000000000e+00,-1.355953341910452192e-01
0.000000000000000000e+00,0.000000000000000000e+00,-1.348835528492426106e-01
0.000000000000000000e+00,0.000000000000000000e+00,-1.341755078651954980e-01
0.000000000000000000e+00,0.000000000000000000e+00,-1.334711796256204397e-01
0.000000000000000000e+00,0.000000000000000000e+00,-1.327705486201904150e-01
0.000000000000000000e+00,0.000000000000000000e+00,-1.320735954409931190e-01
0.000000000000000000e+00,0.000000000000000000e+00,-1.313803007819947521e-01
0.000000000000000000e+00,0.000000000000000000e+00,-1.306906454385051430e-01
0.000000000000000000e+00,0.000000000000000000e+00,-1.300046103066454517e-01
0.000000000000000000e+00,0.000000000000000000e+00,-1.293221763828182602e-01
0.000000000000000000e+00,0.000000000000000000e+00,-1.286433247631822985e-01
0.000000000000000000e+00,0.000000000000000000e+00,-1.279680366431281135e-01
0.000000000000000000e+00,0.000000000000000000e+00,-1.272962933167580135e-01
0.000000000000000000e+00,0.000000000000000000e+00,-1.266280761763667884e-01
0.000000000000000000e+00,0.000000000000000000e+00,-1.259633667119264278e-01
0.000000000000000000e+00,0.000000000000000000e+00,-1.253021465105742804e-01
0.000000000000000000e+00,0.000000000000000000e+00,-1.246443972561017827e-01
0.000000000000000000e+00,0.000000000000000000e+00,-1.239901007284484047e-01
0.000000000000000000e+00,0.000000000000000000e+00,-1.233392388031959441e-01
0.000000000000000000e+00,0.000000000000000000e+00,-1.226917934510669272e-01
0.000000000000000000e+00,0.000000000000000000e+00,-1.220477467374255220e-01
0.000000000000000000e+00,0.000000000000000000e+00,-1.214070808217794090e-01
0.000000000000000000e+00,0.000000000000000000e+00,-1.207697779572868002e-01
0.000000000000000000e+00,0.000000000000000000e+00,-1.201358204902645693e-01
0.000000000000000000e+00,0.000000000000000000e+00,-1.195051908596996421e-01
0.000000000000000000e+00,0.000000000000000000e+00,-1.188778715967616362e-01
0.000000000000000000e+00,0.000000000000000000e+00,-1.182538453243190263e-01
0.000000000000000000e+00,0.000000000000000000e+00,-1.176330947564585144e-01
0.000000000000000000e+00,0.000000000000000000e+00,-1.170156026980060521e-01
0.000000000000000000e+00,0.000000000000000000e+00,-1.164013520440499161e-01
0.000000000000000000e+00,0.000000000000000000e+00,-1.157903257794671154e-01
0.000000000000000000e+00,0.000000000000000000e+00,-1.151825069784529892e-01
0.000000000000000000e+00,0.000000000000000000e+00,-1.145778788040509866e-01
0.000000000000000000e+00,0.000000000000000000e+00,-1.139764245076874405e-01
0.000000000000000000e+00,0.000000000000000000e+00,-1.133781274287063573e-01
0.000000000000000000e+00,0.000000000000000000e+00,-1.127829709939088682e-01
0.000000000000000000e+00,0.000000000000000000e+00,-1.121909387170940409e-01
0.000000000000000000e+00,0.000000000000000000e+00,-1.116020141986018566e-01
0.000000000000000000e+00,0.000000000000000000e+00,-1.110161811248598779e-01
0.000000000000000000e+00,0.000000000000000000e+00,-1.104334232679294314e-01
0.000000000000000000e+00,0.000000000000000000e+00,-1.098537244850583267e-01
0.000000000000000000e+00,0.000000000000000000e+00,-1.092770687182319511e-01
0.000000000000000000e+00,0.000000000000000000e+00,-1.087034399937291396e-01
0.000000000000000000e+00,0.000000000000000000e+00,-1.081328224216798056e-01
0.000000000000000000e+00,0.000000000000000000e+00,-1.075652001956242804e-01
0.000000000000000000e+00,0.000000000000000000e+00,-1.070005575920765090e-01
0.000000000000000000e+00,0.000000000000000000e+00,-1.064388789700872057e-01
0.000000000000000000e+00,0.000000000000000000e+00,-1.058801487708116995e-01
0.000000000000000000e+00,0.000000000000000000e+00,-1.053243515170785294e-01
0.000000000000000000e+00,0.000000000000000000e+00,-1.047714718129604400e-01
0.000000000000000000e+00,0.000000000000000000e+00,-1.042214943433474317e-01
0.000000000000000000e+00,0.000000000000000000e+00,-1.036744038735239598e-01
0.000000000000000000e+00,0.000000000000000000e+00,-1.031301852487461479e-01
0.000000000000000000e+00,0.000000000000000000e+00,-1.025888233938220678e-01
0.000000000000000000e+00,0.000000000000000000e+00,-1.020503033126937409e-01
0.000000000000000000e+00,0.000000000000000000e+00,-1.015146100880216506e-01
0.000000000000000000e+00,0.000000000000000000e+00,-1.009817288807725588e-01
0.000000000000000000e+00,0.000000000000000000e+00,-1.004516449298078207e-01
0.000000000000000000e+00,0.000000000000000000e+00,-9.992434355147469804e-02
0.000000000000000000e+00,0.000000000000000000e+00,-9.939981013919919894e-02
0.000000000000000000e+00,0.000000000000000000e+00,-9.887803016308194248e-02
0.000000000000000000e+00,0.000000000000000000e+00,-9.835898916949513404e-02
0.000000000000000000e+00,0.000000000000000000e+00,-9.784267278068228824e-02
0.000000000000000000e+00,0.000000000000000000e+00,-9.732906669436033886e-02
0.000000000000000000e+00,0.000000000000000000e+00,-9.681815668332353908e-02
0.000000000000000000e+00,0.000000000000000000e+00,-9.630992859504869386e-02
0.000000000000000000e+00,0.000000000000000000e+00,-9.580436835130359818e-02
0.000000000000000000e+00,0.000000000000000000e+00,-9.530146194775723778e-02
0.000000000000000000e+00,0.000000000000000000e+00,-9.480119545359184940e-02
0.000000000000000000e+00,0.000000000000000000e+00,-9.430355501111652161e-02
0.000000000000000000e+00,0.000000000000000000e+00,-9.380852683538289105e-02
0.000000000000000000e+00,0.000000000000000000e+00,-9.331609721380514089e-02
0.000000000000000000e+00,0.000000000000000000e+00,-9.282625250577847265e-02
0.000000000000000000e+00,0.000000000000000000e+00,-9.233897914230133896e-02
0.000000000000000000e+00,0.000000000000000000e+00,-9.185426362560057678e-02
0.000000000000000000e+00,0.000000000000000000e+00,-9.137209252875702625e-02
0.000000000000000000e+00,0.000000000000000000e+00,-9.089245249533364768e-02
0.000000000000000000e+00,0.000000000000000000e+00,-9.041533023900520660e-02
0.000000000000000000e+00,0.000000000000000000e+00,-8.994071254319004061e-02
0.000000000000000000e+00,0.000000000000000000e+00,-8.946858626068480980e-02
0.000000000000000000e+00,0.000000000000000000e+00,-8.899893831329970528e-02
0.000000000000000000e+00,0.000000000000000000e+00,-8.853175569149618340e-02
0.000000000000000000e+00,0.000000000000000000e+00,-8.806702545402750326e-02
0.000000000000000000e+00,0.000000000000000000e+00,-8.760473472757866753e-02
0.000000000000000000e+00,0.000000000000000000e+00,-8.714487070641072086e-02
0.000000000000000000e+00,0.000000000000000000e+00,-8.668742065200628344e-02
0.000000000000000000e+00,0.000000000000000000e+00,-8.623237189271609759e-02
0.000000000000000000e+00,0.000000000000000000e+00,-8.577971182340854428e-02
0.000000000000000000e+00,0.000000000000000000e+00,-8.532942790511977016e-02
0.000000000000000000e+00,0.000000000000000000e+00,-8.488150766470713149e-02
0.000000000000000000e+00,0.000000000000000000e+00,-8.443593869450347067e-02
0.000000000000000000e+00,0.000000000000000000e+00,-8.399270865197287772e-02
0.000000000000000000e+00,0.000000000000000000e+00,-8.355180525936921343e-02
0.000000000000000000e+00,0.000000000000000000e+00,-8.311321630339615907e-02
0.000000000000000000e+00,0.000000000000000000e+00,-8.267692963486891755e-02
0.000000000000000000e+00,0.000000000000000000e+00,-8.224293316837667789e-02
0.000000000000000000e+00,0.000000000000000000e+00,-8.181121488194949276e-02
0.000000000000000000e+00,0.000000000000000000e+00,-8.138176281672421242e-02
0.000000000000000000e+00,0.000000000000000000e+00,-8.095456507661322187e-02
0.000000000000000000e+00,0.000000000000000000e+00,-8.052960982797514877e-02
0.000000000000000000e+00,0.000000000000000000e+00,-8.010688529928677859e-02
0.000000000000000000e+00,0.000000000000000000e+00,-7.968637978081770379e-02
0.000000000000000000e+00,0.000000000000000000e+00,-7.926808162430527827e-02
0.000000000000000000e+00,0.000000000000000000e+00,-7.885197924263197267e-02
0.000000000000000000e+00,0.000000000000000000e+00,-7.843806110950464483e-02
0.000000000000000000e+00,0.000000000000000000e+00,-7.802631575913521189e-02
0.000000000000000000e+00,0.000000000000000000e+00,-7.761673178592341793e-02
0.000000000000000000e+00,0.000000000000000000e+00,-7.720929784413957386e-02
0.000000000000000000e+00,0.000000000000000000e+00,-7.680400264761216844e-02
0.000000000000000000e+00,0.000000000000000000e+00,-7.640083496941373065e-02
0.000000000000000000e+00,0.000000000000000000e+00,-7.599978364155016153e-02
0.000000000000000000e+00,0.000000000000000000e+00,-7.560083755465238364e-02
0.000000000000000000e+00,0.000000000000000000e+00,-7.520398565766714394e-02
0.000000000000000000e+00,0.000000000000000000e+00,-7.480921695755189671e-02
0.000000000000000000e+00,0.000000000000000000e+00,-7.441652051896918696e-02
0.000000000000000000e+00,0.000000000000000000e+00,-7.402588546398532199e-02
0.000000000000000000e+00,0.000000000000000000e+00,-7.363730097176754419e-02
0.000000000000000000e+00,0.000000000000000000e+00,-7.325075627828593616e-02
0.000000000000000000e+00,0.000000000000000000e+00,-7.286624067601336907e-02
0.000000000000000000e+00,0.000000000000000000e+00,-7.248374351363003065e-02
0.000000000000000000e+00,0.000000000000000000e+00,-7.210325419572818917e-02
0.000000000000000000e+00,0.000000000000000000e+00,-7.172476218251848390e-02
0.000000000000000000e+00,0.000000000000000000e+00,-7.134825698953833895e-02
0.000000000000000000e+00,0.000000000000000000e+00,-7.097372818736143174e-02
0.000000000000000000e+00,0.000000000000000000e+00,-7.060116540130825791e-02
0.000000000000000000e+00,0.000000000000000000e+00,-7.023055831115961045e-02
0.000000000000000000e+00,0.000000000000000000e+00,-6.986189665087003120e-02
0.000000000000000000e+00,0.000000000000000000e+00,-6.949517020828382963e-02
0.000000000000000000e+00,0.000000000000000000e+00,-6.913036882485218415e-02
0.000000000000000000e+00,0.000000000000000000e+00,-6.876748239535117324e-02
0.000000000000000000e+00,0.000000000000000000e+00,-6.840650086760252657e-02
0.000000000000000000e+00,0.000000000000000000e+00,-6.804741424219497292e-02
0.000000000000000000e+00,0.000000000000000000e+00,-6.769021257220680932e-02
0.000000000000000000e+00,0.000000000000000000e+00,-6.733488596293123185e-02
0.000000000000000000e+00,0.000000000000000000e+00,-6.698142457160191632e-02
0.000000000000000000e+00,0.000000000000000000e+00,-6.662981860711995885e-02
0.000000000000000000e+00,0.000000000000000000e+00,-6.628005832978257905e-02
0.000000000000000000e+00,0.000000000000000000e+00,-6.593213405101427949e-02
0.000000000000000000e+00,0.000000000000000000e+00,-6.558603613309739455e-02
0.000000000000000000e+00,0.000000000000000000e+00,-6.524175498890556757e-02
0.000000000000000000e+00,0.000000000000000000e+00,-6.489928108163826870e-02
0.000000000000000000e+00,0.000000000000000000e+00,-6.455860492455717248e-02
0.000000000000000000e+00,0.000000000000000000e+00,-6.421971708072214680e-02
0.000000000000000000e+00,0.000000000000000000e+00,-6.388260816273014231e-02
0.000000000000000000e+00,0.000000000000000000e+00,-6.354726883245588598e-02
0.000000000000000000e+00,0.000000000000000000e+00,-6.321368980079261624e-02
0.000000000000000000e+00,0.000000000000000000e+00,-6.288186182739503860e-02
0.000000000000000000e+00,0.000000000000000000e+00,-6.255177572042332212e-02
0.000000000000000000e+00,0.000000000000000000e+00,-6.222342233628842117e-02
0.000000000000000000e+00,0.000000000000000000e+00,-6.189679257939869478e-02
0.000000000000000000e+00,0.000000000000000000e+00,-6.157187740190843417e-02
0.000000000000000000e+00,0.000000000000000000e+00,-6.124866780346596012e-02
0.000000000000000000e+00,0.000000000000000000e+00,-6.092715483096597384e-02
0.000000000000000000e+00,0.000000000000000000e+00,-6.060732957830063106e-02
0.000000000000000000e+00,0.000000000000000000e+00,-6.028918318611257293e-02
0.000000000000000000e+00,0.000000000000000000e+00,-5.997270684155034393e-02
0.000000000000000000e+00,0.000000000000000000e+00,-5.965789177802355292e-02
0.000000000000000000e+00,0.000000000000000000e+00,-5.934472927496017847e-02
0.000000000000000000e+00,0.000000000000000000e+00,-5.903321065756592795e-02
0.000000000000000000e+00,0.000000000000000000e+00,-5.872332729658219508e-02
0.000000000000000000e+00,0.000000000000000000e+00,-5.841507060804849993e-02
0.000000000000000000e+00,0.000000000000000000e+00,-5.810843205306385345e-02
0.000000000000000000e+00,0.000000000000000000e+00,-5.780340313755106402e-02
0.000000000000000000e+00,0.000000000000000000e+00,-5.749997541202100937e-02
0.000000000000000000e+00,0.000000000000000000e+00,-5.719814047133827545e-02
0.000000000000000000e+00,0.000000000000000000e+00,-5.689788995448786385e-02
0.000000000000000000e+00,0.000000000000000000e+00,-5.659921554434502178e-02
0.000000000000000000e+00,0.000000000000000000e+00,-5.630210896744443361e-02
0.000000000000000000e+00,0.000000000000000000e+00,-5.600656199375028677e-02
0.000000000000000000e+00,0.000000000000000000e+00,-5.571256643642891193e-02
0.000000000000000000e+00,0.000000000000000000e+00,-5.542011415162139548e-02
0.000000000000000000e+00,0.000000000000000000e+00,-5.512919703821904382e-02
0.000000000000000000e+00,0.000000000000000000e+00,-5.483980703763787629e-02
0.000000000000000000e+00,0.000000000000000000e+00,-5.455193613359590049e-02
0.000000000000000000e+00,0.000000000000000000e+00,-5.426557635189108164e-02
0.000000000000000000e+00,0.000000000000000000e+00,-5.398071976018109508e-02
0.000000000000000000e+00,0.000000000000000000e+00,-5.369735846776223231e-02
0.000000000000000000e+00,0.000000000000000000e+00,-5.341548462535136710e-02
0.000000000000000000e+00,0.000000000000000000e+00,-5.313509042486867090e-02
0.000000000000000000e+00,0.000000000000000000e+00,-5.285616809922173698e-02
0.000000000000000000e+00,0.000000000000000000e+00,-5.257870992208968364e-02
0.000000000000000000e+00,0.000000000000000000e+00,-5.230270820770970691e-02
0.000000000000000000e+00,0.000000000000000000e+00,-5.202815531066402877e-02
0.000000000000000000e+00,0.000000000000000000e+00,-5.175504362566781674e-02
0.000000000000000000e+00,0.000000000000000000e+00,-5.148336558735849833e-02
0.000000000000000000e+00,0.000000000000000000e+00,-5.121311367008654636e-02
0.000000000000000000e+00,0.000000000000000000e+00,-5.094428038770673628e-02
0.000000000000000000e+00,0.000000000000000000e+00,-5.067685829337123526e-02
0.000000000000000000e+00,0.000000000000000000e+00,-5.041083997932239297e-02
0.000000000000000000e+00,0.000000000000000000e+00,-5.014621807668907805e-02
0.000000000000000000e+00,0.000000000000000000e+00,-4.988298525528043342e-02
0.000000000000000000e+00,0.000000000000000000e+00,-4.962113422338507163e-02
0.000000000000000000e+00,0.000000000000000000e+00,-4.936065772756737663e-02
0.000000000000000000e+00,0.000000000000000000e+00,-4.910154855246769146e-02
0.000000000000000000e+00,0.000000000000000000e+00,-4.884379952060145108e-02
0.000000000000000000e+00,0.000000000000000000e+00,-4.858740349216125742e-02
0.000000000000000000e+00,0.000000000000000000e+00,-4.833235336481902372e-02
0.000000000000000000e+00,0.000000000000000000e+00,-4.807864207352880587e-02
0.000000000000000000e+00,0.000000000000000000e+00,-4.782626259033090355e-02
0.000000000000000000e+00,0.000000000000000000e+00,-4.757520792415775857e-02
0.000000000000000000e+00,0.000000000000000000e+00,-4.732547112063954786e-02
0.000000000000000000e+00,0.000000000000000000e+00,-4.707704526191264227e-02
0.000000000000000000e+00,0.000000000000000000e+00,-4.682992346642752407e-02
0.000000000000000000e+00,0.000000000000000000e+00,-4.658409888875747473e-02
0.000000000000000000e+00,0.000000000000000000e+00,-4.633956471940984395e-02
0.000000000000000000e+00,0.000000000000000000e+00,-4.609631418463710356e-02
0.000000000000000000e+00,0.000000000000000000e+00,-4.585434054624962230e-02
0.000000000000000000e+00,0.000000000000000000e+00,-4.561363710142745526e-02
0.000000000000000000e+00,0.000000000000000000e+00,-4.537419718253695583e-02
0.000000000000000000e+00,0.000000000000000000e+00,-4.513601415694406399e-02
0.000000000000000000e+00,0.000000000000000000e+00,-4.489908142683173009e-02
0.000000000000000000e+00,0.000000000000000000e+00,-4.466339242901699869e-02
0.000000000000000000e+00,0.000000000000000000e+00,-4.442894063476938299e-02
0.000000000000000000e+00,0.000000000000000000e+00,-4.419571954962943361e-02
0.000000000000000000e+00,0.000000000000000000e+00,-4.396372271322837588e-02
0.000000000000000000e+00,0.000000000000000000e+00,-4.373294369911050888e-02
0.000000000000000000e+00,0.000000000000000000e+00,-4.350337611455484810e-02
0.000000000000000000e+00,0.000000000000000000e+00,-4.327501360039748973e-02
0.000000000000000000e+00,0.000000000000000000e+00,-4.304784983085584160e-02
0.000000000000000000e+00,0.000000000000000000e+00,-4.282187851335321482e-02
0.000000000000000000e+00,0.000000000000000000e+00,-4.259709338834445636e-02
0.000000000000000000e+00,0.000000000000000000e+00,-4.237348822914244195e-02
0.000000000000000000e+00,0.000000000000000000e+00,-4.215105684174603323e-02
0.000000000000000000e+00,0.000000000000000000e+00,-4.192979306466809719e-02
0.000000000000000000e+00,0.000000000000000000e+00,-4.170969076876539922e-02
0.000000000000000000e+00,0.000000000000000000e+00,-4.149074385706835733e-02
0.000000000000000000e+00,0.000000000000000000e+00,-4.127294626461259358e-02
0.000000000000000000e+00,0.000000000000000000e+00,-4.105629195827006223e-02
0.000000000000000000e+00,0.000000000000000000e+00,-4.084077493658254399e-02
0.000000000000000000e+00,0.000000000000000000e+00,-4.062638922959579957e-02
0.000000000000000000e+00,0.000000000000000000e+00,-4.041312889869318886e-02
0.000000000000000000e+00,0.000000000000000000e+00,-4.020098803643126772e-02
0.000000000000000000e+00,0.000000000000000000e+00,-3.998996076637718194e-02
0.000000000000000000e+00,0.000000000000000000e+00,-3.978004124294522853e-02
0.000000000000000000e+00,0.000000000000000000e+00,-3.957122365123500601e-02
0.000000000000000000e+00,0.000000000000000000e+00,-3.936350220686993945e-02
0.000000000000000000e+00,0.000000000000000000e+00,-3.915687115583793565e-02
0.000000000000000000e+00,0.000000000000000000e+00,-3.895132477433142087e-02
0.000000000000000000e+00,0.000000000000000000e+00,-3.874685736858811402e-02
0.000000000000000000e+00,0.000000000000000000e+00,-3.854346327473501255e-02
0.000000000000000000e+00,0.000000000000000000e+00,-3.834113685863013710e-02
0.000000000000000000e+00,0.000000000000000000e+00,-3.813987251570615661e-02
0.000000000000000000e+00,0.000000000000000000e+00,-3.793966467081687222e-02
0.000000000000000000e+00,0.000000000000000000e+00,-3.774050777808129337e-02
0.000000000000000000e+00,0.000000000000000000e+00,-3.754239632073053806e-02
0.000000000000000000e+00,0.000000000000000000e+00,-3.734532481095419187e-02
0.000000000000000000e+00,0.000000000000000000e+00,-3.714928778974989354e-02
0.000000000000000000e+00,0.000000000000000000e+00,-3.695427982677144951e-02
0.000000000000000000e+00,0.000000000000000000e+00,-3.676029552017750363e-02
0.000000000000000000e+00,0.000000000000000000e+00,-3.656732949648261455e-02
0.000000000000000000e+00,0.000000000000000000e+00,-3.637537641040925612e-02
0.000000000000000000e+00,0.000000000000000000e+00,-3.618443094473800664e-02
0.000000000000000000e+00,0.000000000000000000e+00,-3.599448781016136717e-02
0.000000000000000000e+00,0.000000000000000000e+00,-3.580554174513748966e-02
0.000000000000000000e+00,0.000000000000000000e+00,-3.561758751574331527e-02
0.000000000000000000e+00,0.000000000000000000e+00,-3.543061991553090456e-02
0.000000000000000000e+00,0.000000000000000000e+00,-3.524463376538226195e-02
0.000000000000000000e+00,0.000000000000000000e+00,-3.505962391336597123e-02
0.000000000000000000e+00,0.000000000000000000e+00,-3.487558523459475396e-02
0.000000000000000000e+00,0.000000000000000000e+00,-3.469251263108334010e-02
0.000000000000000000e+00,0.000000000000000000e+00,-3.451040103160777500e-02
0.000000000000000000e+00,0.000000000000000000e+00,-3.432924539156420596e-02
0.000000000000000000e+00,0.000000000000000000e+00,-3.414904069282904270e-02
0.000000000000000000e+00,0.000000000000000000e+00,-3.396978194362103992e-02
0.000000000000000000e+00,0.000000000000000000e+00,-3.379146417836186717e-02
0.000000000000000000e+00,0.000000000000000000e+00,-3.361408245753920443e-02
0.000000000000000000e+00,0.000000000000000000e+00,-3.343763186757017780e-02
0.000000000000000000e+00,0.000000000000000000e+00,-3.326210752066440651e-02
0.000000000000000000e+00,0.000000000000000000e+00,-3.308750455468872920e-02
0.000000000000000000e+00,0.000000000000000000e+00,-3.291381813303328324e-02
0.000000000000000000e+00,0.000000000000000000e+00,-3.274104344447708453e-02
0.000000000000000000e+00,0.000000000000000000e+00,-3.256917570305424559e-02
0.000000000000000000e+00,0.000000000000000000e+00,-3.239821014792216430e-02
0.000000000000000000e+00,0.000000000000000000e+00,-3.222814204322950460e-02
0.000000000000000000e+00,0.000000000000000000e+00,-3.205896667798471128e-02
0.000000000000000000e+00,0.000000000000000000e+00,-3.189067936592551028e-02
0.000000000000000000e+00,0.000000000000000000e+00,-3.172327544538942196e-02
0.000000000000000000e+00,0.000000000000000000e+00,-3.155675027918451725e-02
0.000000000000000000e+00,0.000000000000000000e+00,-3.139109925446031957e-02
0.000000000000000000e+00,0.000000000000000000e+00,-3.122631778258149263e-02
0.000000000000000000e+00,0.000000000000000000e+00,-3.106240129899949520e-02
0.000000000000000000e+00,0.000000000000000000e+00,-3.089934526312627591e-02
0.000000000000000000e+00,0.000000000000000000e+00,-3.073714515820912332e-02
0.000000000000000000e+00,0.000000000000000000e+00,-3.057579649120470422e-02
0.000000000000000000e+00,0.000000000000000000e+00,-3.041529479265487473e-02
0.000000000000000000e+00,0.000000000000000000e+00,-3.025563561656343520e-02
0.000000000000000000e+00,0.000000000000000000e+00,-3.009681454027316599e-02
0.000000000000000000e+00,0.000000000000000000e+00,-2.993882716434175667e-02
0.000000000000000000e+00,0.000000000000000000e+00,-2.978166911242127735e-02
0.000000000000000000e+00,0.000000000000000000e+00,-2.962533603113631786e-02
0.000000000000000000e+00,0.000000000000000000e+00,-2.946982358996414267e-02
0.000000000000000000e+00,0.000000000000000000e+00,-2.931512748111411715e-02
0.000000000000000000e+00,0.000000000000000000e+00,-2.916124341940835515e-02
0.000000000000000000e+00,0.000000000000000000e+00,-2.900816714216350803e-02
0.000000000000000000e+00,0.000000000000000000e+00,-2.885589440907229686e-02
0.000000000000000000e+00,0.000000000000000000e+00,-2.870442100208540209e-02
0.000000000000000000e+00,0.000000000000000000e+00,-2.855374272529629873e-02
0.000000000000000000e+00,0.000000000000000000e+00,-2.840385540482359694e-02
0.000000000000000000e+00,0.000000000000000000e+00,-2.825475488869561708e-02
0.000000000000000000e+00,0.000000000000000000e+00,-2.810643704673628993e-02
0.000000000000000000e+00,0.000000000000000000e+00,-2.795889777044981150e-02
0.000000000000000000e+00,0.000000000000000000e+00,-2.781213297290659886e-02
0.000000000000000000e+00,0.000000000000000000e+00,-2.766613858863114367e-02
0.000000000000000000e+00,0.000000000000000000e+00,-2.752091057348895337e-02
0.000000000000000000e+00,0.000000000000000000e+00,-2.737644490457404045e-02
0.000000000000000000e+00,0.000000000000000000e+00,-2.723273758009806672e-02
0.000000000000000000e+00,0.000000000000000000e+00,-2.708978461927979628e-02
0.000000000000000000e+00,0.000000000000000000e+00,-2.694758206223350772e-02
0.000000000000000000e+00,0.000000000000000000e+00,-2.680612596986090695e-02
0.000000000000000000e+00,0.000000000000000000e+00,-2.666541242374053863e-02
0.000000000000000000e+00,0.000000000000000000e+00,-2.652543752602058019e-02
0.000000000000000000e+00,0.000000000000000000e+00,-2.638619739930965491e-02
0.000000000000000000e+00,0.000000000000000000e+00,-2.624768818657028172e-02
0.000000000000000000e+00,0.000000000000000000e+00,-2.610990605101155479e-02
0.000000000000000000e+00,0.000000000000000000e+00,-2.597284717598298542e-02
0.000000000000000000e+00,0.000000000000000000e+00,-2.583650776486941941e-02
0.000000000000000000e+00,0.000000000000000000e+00,-2.570088404098504545e-02
0.000000000000000000e+00,0.000000000000000000e+00,-2.556597224746842006e-02
0.000000000000000000e+00,0.000000000000000000e+00,-2.543176864717975119e-02
0.000000000000000000e+00,0.000000000000000000e+00,-2.529826952259633943e-02
0.000000000000000000e+00,0.000000000000000000e+00,-2.516547117571023284e-02
0.000000000000000000e+00,0.000000000000000000e+00,-2.503336992792465701e-02
0.000000000000000000e+00,0.000000000000000000e+00,-2.490196211995379313e-02
0.000000000000000000e+00,0.000000000000000000e+00,-2.477124411171986382e-02
0.000000000000000000e+00,0.000000000000000000e+00,-2.464121228225352525e-02
0.000000000000000000e+00,0.000000000000000000e+00,-2.451186302959275365e-02
0.000000000000000000e+00,0.000000000000000000e+00,-2.438319277068358437e-02
0.000000000000000000e+00,0.000000000000000000e+00,-2.425519794127994205e-02
0.000000000000000000e+00,0.000000000000000000e+00,-2.412787499584589240e-02
0.000000000000000000e+00,0.000000000000000000e+00,-2.400122040745745339e-02
0.000000000000000000e+00,0.000000000000000000e+00,-2.387523066770407681e-02
0.000000000000000000e+00,0.000000000000000000e+00,-2.374990228659231567e-02
0.000000000000000000e+00,0.000000000000000000e+00,-2.362523179244834654e-02
0.000000000000000000e+00,0.000000000000000000e+00,-2.350121573182259102e-02
0.000000000000000000e+00,0.000000000000000000e+00,-2.337785066939368495e-02
0.000000000000000000e+00,0.000000000000000000e+00,-2.325513318787316569e-02
0.000000000000000000e+00,0.000000000000000000e+00,-2.313305988791077017e-02
0.000000000000000000e+00,0.000000000000000000e+00,-2.301162738800093671e-02
0.000000000000000000e+00,0.000000000000000000e+00,-2.289083232438786364e-02
0.000000000000000000e+00,0.000000000000000000e+00,-2.277067135097365913e-02
0.000000000000000000e+00,0.000000000000000000e+00,-2.265114113922553699e-02
0.000000000000000000e+00,0.000000000000000000e+00,-2.253223837808272789e-02
0.000000000000000000e+00,0.000000000000000000e+00,-2.241395977386508379e-02
0.000000000000000000e+00,0.000000000000000000e+00,-2.229630205018253222e-02
0.000000000000000000e+00,0.000000000000000000e+00,-2.217926194784343094e-02
0.000000000000000000e+00,0.000000000000000000e+00,-2.206283622476442816e-02
0.000000000000000000e+00,0.000000000000000000e+00,-2.194702165588108961e-02
0.000000000000000000e+00,0.000000000000000000e+00,-2.183181503305790458e-02
0.000000000000000000e+00,0.000000000000000000e+00,-2.171721316500030766e-02
0.000000000000000000e+00,0.000000000000000000e+00,-2.160321287716595109e-02
0.000000000000000000e+00,0.000000000000000000e+00,-2.148981101167657046e-02
0.000000000000000000e+00,0.000000000000000000e+00,-2.137700442723041230e-02
0.000000000000000000e+00,0.000000000000000000e+00,-2.126478999901514413e-02
0.000000000000000000e+00,0.000000000000000000e+00,-2.115316461862181904e-02
0.000000000000000000e+00,0.000000000000000000e+00,-2.104212519395858710e-02
0.000000000000000000e+00,0.000000000000000000e+00,-2.093166864916469472e-02
0.000000000000000000e+00,0.000000000000000000e+00,-2.082179192452553174e-02
0.000000000000000000e+00,0.000000000000000000e+00,-2.071249197638783471e-02
0.000000000000000000e+00,0.000000000000000000e+00,-2.060376577707578177e-02
0.000000000000000000e+00,0.000000000000000000e+00,-2.049561031480654633e-02
0.000000000000000000e+00,0.000000000000000000e+00,-2.038802259360667987e-02
0.000000000000000000e+00,0.000000000000000000e+00,-2.028099963322984797e-02
0.000000000000000000e+00,0.000000000000000000e+00,-2.017453846907389658e-02
0.000000000000000000e+00,0.000000000000000000e+00,-2.006863615209918822e-02
0.000000000000000000e+00,0.000000000000000000e+00,-1.996328974874561277e-02
0.000000000000000000e+00,0.000000000000000000e+00,-1.985849634085275553e-02
0.000000000000000000e+00,0.000000000000000000e+00,-1.975425302557854562e-02
0.000000000000000000e+00,0.000000000000000000e+00,-1.965055691531901461e-02
0.000000000000000000e+00,0.000000000000000000e+00,-1.954740513762782614e-02
0.000000000000000000e+00,0.000000000000000000e+00,-1.944479483513686033e-02
0.000000000000000000e+00,0.000000000000000000e+00,-1.934272316547771750e-02
0.000000000000000000e+00,0.000000000000000000e+00,-1.924118730120156009e-02
0.000000000000000000e+00,0.000000000000000000e+00,-1.914018442970248646e-02
0.000000000000000000e+00,0.000000000000000000e+00,-1.903971175313842398e-02
0.000000000000000000e+00,0.000000000000000000e+00,-1.893976648835418719e-02
0.000000000000000000e+00,0.000000000000000000e+00,-1.884034586680394946e-02
0.000000000000000000e+00,0.000000000000000000e+00,-1.874144713447513377e-02
0.000000000000000000e+00,0.000000000000000000e+00,-1.864306755181227224e-02
0.000000000000000000e+00,0.000000000000000000e+00,-1.854520439363955067e-02
0.000000000000000000e+00,0.000000000000000000e+00,-1.844785494908732573e-02
0.000000000000000000e+00,0.000000000000000000e+00,-1.835101652151576238e-02
0.000000000000000000e+00,0.000000000000000000e+00,-1.825468642844042810e-02
0.000000000000000000e+00,0.000000000000000000e+00,-1.815886200145830354e-02
0.000000000000000000e+00,0.000000000000000000e+00,-1.806354058617356054e-02
0.000000000000000000e+00,0.000000000000000000e+00,-1.796871954212441932e-02
0.000000000000000000e+00,0.000000000000000000e+00,-1.787439624270902375e-02
0.000000000000000000e+00,0.000000000000000000e+00,-1.778056807511366536e-02
0.000000000000000000e+00,0.000000000000000000e+00,-1.768723244024052871e-02
0.000000000000000000e+00,0.000000000000000000e+00,-1.759438675263442012e-02
0.000000000000000000e+00,0.000000000000000000e+00,-1.750202844041234482e-02
0.000000000000000000e+00,0.000000000000000000e+00,-1.741015494519249779e-02
0.000000000000000000e+00,0.000000000000000000e+00,-1.731876372202210621e-02
0.000000000000000000e+00,0.000000000000000000e+00,-1.722785223930800927e-02
0.000000000000000000e+00,0.000000000000000000e+00,-1.713741797874593006e-02
0.000000000000000000e+00,0.000000000000000000e+00,-1.704745843525044130e-02
