accel_x (m/s^2),accel_y (m/s^2),accel_z (m/s^2)
-1.607542378420154586e-03,1.842145076226015194e-03,-9.791614024607973477e+00
-5.594243903418578273e-03,2.651479979520355440e-03,-9.806077721653077006e+00
-3.558429699133863755e-03,-5.813050751982296038e-03,-9.793119809143620458e+00
-2.676926744155594612e-04,-5.876075741132961994e-03,-9.797264388261186951e+00
-2.167300558131595670e-03,6.935230729661151505e-03,-9.786770106183498186e+00
5.676241407802243635e-04,3.955015140857800343e-03,-9.797948287377909793e+00
8.521831527524472566e-04,1.217917817987562452e-03,-9.792462034874732879e+00
-5.647276621068571256e-03,3.720654693734279980e-03,-9.800786199689708766e+00
5.093521493663545965e-04,-1.234581741985844514e-03,-9.787695847807924565e+00
1.341047600679416869e-02,3.231180448570861174e-03,-9.787719039984201785e+00
1.565307128137504887e-03,-5.440868393197169015e-03,-9.803431654775671689e+00
4.772438425647906185e-03,-4.375733472878607071e-04,-9.794552179381312840e+00
-8.181356712503903839e-03,-4.075939205186292214e-03,-9.788294082330986967e+00
-1.408223536596701865e-03,1.277881116586232014e-04,-9.800439411608422802e+00
-9.465736324216229153e-03,1.844020730075523508e-03,-9.792895829634115756e+00
5.637735889373714920e-03,7.282054766805338454e-03,-9.795936418193209150e+00
1.429179365662662515e-03,7.854628048955879932e-03,-9.793144519442957829e+00
1.685879319765877125e-03,-2.465774908832165562e-04,-9.796684929536661812e+00
2.298016454078104058e-03,-7.301929217034396069e-03,-9.790540154472688883e+00
-1.898146989145077556e-03,-3.983155562449085946e-03,-9.790437029675151948e+00
-5.128400361251833108e-03,-3.343068615525401736e-03,-9.789992009932651840e+00
-3.014267710416006132e-03,1.435510949738077763e-03,-9.802298849436629880e+00
-3.581273881113346616e-03,4.595193457536481813e-03,-9.789612388706368407e+00
2.660528176398247683e-03,9.516626240455785743e-03,-9.793763612283374442e+00
-3.520232788395524955e-04,-1.840322446456332979e-03,-9.796944369613965975e+00
3.420187592894202797e-03,1.551947758592697691e-03,-9.792318734953491699e+00
6.598030730761722138e-05,4.453611531477039143e-03,-9.795295089240168451e+00
2.753362200031695718e-03,1.278966588414129140e-03,-9.797612831486883778e+00
-1.020687038218186368e-03,1.939800384306578735e-03,-9.791782123399485727e+00
1.922182128053490091e-02,5.777709102926561167e-03,-9.798492552471065764e+00
-5.233686299881832454e-03,-8.297617230998755034e-03,-9.782826199410399326e+00
2.445283962347497508e-04,-8.300029489449108414e-03,-9.793112551707128688e+00
8.837048645175254059e-04,1.173442354235026529e-03,-9.795863830179214915e+00
2.476896640069854022e-03,-6.859161764963098845e-03,-9.795499197734514496e+00
5.281179115037230171e-03,6.995847081561898211e-03,-9.789400894152173294e+00
5.268180000597782152e-03,-5.949291815182100422e-03,-9.782055653566573028e+00
-3.019049091737190972e-03,1.275640976706244115e-02,-9.796053076814256855e+00
-2.961580466118078712e-04,5.546672173738155694e-03,-9.803462300103896965e+00
5.243624134005698580e-03,1.856319010653079702e-03,-9.792793741388395645e+00
6.718000517726576901e-03,5.589467388269169293e-03,-9.797077187503724360e+00
7.523055330640100215e-03,-1.117598178573990910e-03,-9.784169340775754620e+00
7.343082597646550212e-04,-2.450099437975773340e-04,-9.793384656598462357e+00
-1.186509717855501259e-04,-8.465335101363089627e-04,-9.794696261526018688e+00
3.105627573687016422e-03,1.129233289109153604e-02,-9.795529887475048270e+00
-2.694578677593261005e-03,4.553314017068783165e-03,-9.807804887535231941e+00
4.407976686561579371e-04,-5.747286144734814299e-03,-9.798285135951765312e+00
2.185533852043036306e-03,1.366205936427164220e-04,-9.799306540746748340e+00
4.843264473233225079e-03,-3.237371228113279957e-04,-9.795607057722946820e+00
3.709780841506936377e-03,1.990610338595931537e-03,-9.792881462731404696e+00
4.202819485024183142e-03,-9.562914969378171317e-04,-9.797306132363477360e+00
8.588205985401690598e-03,3.327539917988444826e-03,-9.801119724170920477e+00
5.015568639241966414e-03,-6.384871628191629220e-03,-9.799520667255386286e+00
-2.509224805005089935e-03,7.098960306438507895e-03,-9.792019411913097215e+00
-6.580021164994500401e-04,-6.481358484659371444e-04,-9.796450141912025344e+00
8.562383239508378208e-03,3.669852887552587772e-03,-9.793434013621931555e+00
2.276723855936247688e-03,3.145957159628559510e-03,-9.789465017669703784e+00
5.437119511119660291e-03,9.177282624588331290e-04,-9.798350036398892016e+00
-4.549899678962293983e-03,-4.008202227370825065e-03,-9.799317992747452521e+00
5.871969938530858385e-03,7.053535270294525143e-03,-9.795671213321019977e+00
4.999407975611347768e-03,-1.619006108069947613e-03,-9.791064633185067478e+00
5.103918775792250576e-03,4.391343741482562658e-03,-9.793366871102918481e+00
-2.504334555873252797e-03,-1.060982341860150155e-02,-9.790651013556855631e+00
1.262334043588930581e-03,-2.883923856082614562e-03,-9.790805938396387020e+00
5.508558946844488435e-03,-2.458725996323216784e-03,-9.793339572027214501e+00
4.402144978415899711e-03,-7.472393924171968470e-04,-9.793125048724895976e+00
4.193644202508278220e-03,1.904550720532988172e-03,-9.787587551084428128e+00
7.469227679965095672e-03,-6.182263134643609971e-03,-9.795792992602359917e+00
-1.440497337914189904e-03,-6.953182061180698988e-03,-9.793713105317085166e+00
6.491783290646542526e-03,-2.205511595962729963e-03,-9.792223286929344184e+00
3.498320163993233565e-03,1.651867245655591144e-03,-9.789788699578192421e+00
6.760952863347120985e-03,2.226724364946063624e-03,-9.790831166150915976e+00
4.889189432610587492e-04,4.075702352821995202e-03,-9.786689434790970310e+00
5.514607409766798113e-03,1.470109865241403958e-03,-9.793258135586309976e+00
-1.169646700234309653e-03,3.179841814374903541e-03,-9.788478110920166841e+00
-3.807301978768657400e-04,-3.168504283747524113e-03,-9.787635598520731506e+00
2.355860495831026396e-03,1.026141299701164330e-04,-9.792919819194555231e+00
5.075167994557335145e-03,6.975360825640487296e-03,-9.799028704723950156e+00
5.522172608651709433e-03,1.001338361722411410e-03,-9.788906869424788937e+00
2.804704615248148746e-03,8.081359998408040035e-03,-9.799864414305325511e+00
-4.047441221730555504e-03,-4.388353285720905488e-03,-9.789205121690871536e+00
3.438673710994941471e-03,7.597885029242526555e-05,-9.789847963391510532e+00
-7.933611505806367412e-03,4.453121266870977563e-03,-9.787170521286459035e+00
7.862632170194661790e-03,-2.349649102577739800e-03,-9.803231499542501837e+00
1.297247691075891027e-03,-1.454908576288967484e-03,-9.800310154056637302e+00
-7.366349163917550874e-03,1.467245688927256569e-02,-9.788011509276337563e+00
7.143589827987645129e-03,3.386344427874547975e-04,-9.796049672962237054e+00
1.051330169273225444e-02,2.093951503794768527e-04,-9.796365751566325386e+00
-2.865067647382862816e-03,-2.025820730906029068e-03,-9.796989881590263849e+00
3.096819265622571468e-03,7.875825291410490717e-03,-9.795169645932526592e+00
5.099494110253410123e-03,1.569543533715788211e-03,-9.798040918344087302e+00
-5.628057102596903741e-03,-2.543469107676268100e-03,-9.788516901877006404e+00
2.790584401491103417e-03,1.754162655098697810e-03,-9.796916734557541417e+00
-1.244329492763225457e-02,-3.306148575843279383e-03,-9.786172176241890952e+00
2.722800292029423693e-03,-1.101863630568248459e-03,-9.805185436555014178e+00
1.594878330680229387e-03,-5.197750746868940071e-03,-9.792921046890747050e+00
-4.193294838642694540e-03,-1.878685766820242450e-03,-9.797049685339024094e+00
-2.857701835751132614e-03,8.766964803202211692e-03,-9.795990101158080776e+00
4.490155882196430613e-04,8.832643370551349418e-03,-9.790717958525281261e+00
-2.711955833774572222e-03,1.589497964178239464e-03,-9.793480618164183582e+00
1.564601683004649899e-03,5.811340775540168452e-03,-9.796206604463135292e+00
-2.715624790436817811e-03,6.606900107312635093e-03,-9.785896709950131722e+00
7.458311864638828004e-03,-4.912119261843379825e-03,-9.794026844104966045e+00
-5.843682586288494532e-03,-5.175749684559130190e-03,-9.795481369646894976e+00
-6.620024954381794474e-03,9.984343434968942065e-04,-9.802603998888487880e+00
8.225557006206576580e-03,-2.335024811584290871e-03,-9.790161033092854126e+00
2.240960315219733628e-04,6.106971158928326329e-03,-9.794608058382591409e+00
4.433851867614958982e-03,5.639583050441554675e-03,-9.804660252565762235e+00
-1.038034106033414519e-02,-9.335867003987264809e-03,-9.796025344824363046e+00
-4.416675788591749308e-03,-2.093821601996293576e-03,-9.792875543076206668e+00
2.865170754780684784e-03,4.392122606423714236e-03,-9.790687307655716154e+00
3.474816871622939335e-04,-1.721692083784970208e-03,-9.795256620617188048e+00
-8.182735840024436304e-04,7.009432599669527045e-03,-9.791700706565956480e+00
1.368993241476029916e-02,2.195121647066718314e-03,-9.803732347501018296e+00
1.038185472773205630e-03,-2.793357286580895084e-03,-9.794192213938869074e+00
-2.019657771276503824e-03,-3.361699769331183071e-03,-9.800178042513541854e+00
1.003343924892633257e-03,2.798378455366460488e-03,-9.795236628056191108e+00
-3.255972713829817511e-03,-5.879346634278607639e-03,-9.786994186680271213e+00
4.861663229938900828e-03,-5.068924907685335574e-03,-9.787722707367683128e+00
1.760037660364881804e-03,4.947377829896687160e-03,-9.782109970902588714e+00
-5.665232850067626613e-03,-2.968505010623061213e-03,-9.784395335630671653e+00
3.040877881353429464e-03,3.302845629357996707e-04,-9.792922519610833376e+00
9.968693445286012315e-04,7.635569321914810817e-03,-9.794225733199555251e+00
-2.741517642202772036e-03,9.556207881826350378e-03,-9.791630184237877899e+00
-1.555705032770502132e-03,4.089373865902014250e-04,-9.801960228447741841e+00
-3.815005908001438363e-04,1.901795419584329048e-03,-9.800753356823625140e+00
-2.518115133873594091e-03,6.335875993169424666e-03,-9.789192586922812467e+00
1.365384162862873230e-02,-1.096996723578591744e-02,-9.786755362528046120e+00
-3.221824463428898423e-03,7.611926237724423241e-03,-9.800549264711959196e+00
8.961681772975307880e-03,-3.033018064153591466e-04,-9.802849725445270224e+00
-5.582409062285499874e-04,4.156563032011239634e-04,-9.806077522869649954e+00
5.962499359283166163e-03,3.079697596820054045e-04,-9.791915748341507353e+00
4.300865417277980251e-04,-3.288072733499590450e-03,-9.793039884034548948e+00
-9.420097302827102476e-03,-4.873908494842262148e-04,-9.792914484548424170e+00
5.472627992798599281e-03,6.645901075452764761e-03,-9.789262158053169571e+00
-2.016432463185458598e-03,-1.126701718032153098e-02,-9.799629519877720796e+00
-7.668370109294138717e-04,-1.169417323797507539e-03,-9.789903946159675741e+00
2.848715018054818852e-03,-4.033765110699377536e-03,-9.796072718307051730e+00
2.942480251658218492e-03,-1.724493868840938117e-03,-9.794981553563447463e+00
1.371753550179136485e-03,1.956597453326150947e-03,-9.792022824227068156e+00
5.922201464947503442e-03,-2.212591951751666924e-03,-9.790386096414934514e+00
7.512593086905561875e-04,3.180021817583145172e-04,-9.795834307147499587e+00
-4.055510147453259256e-04,1.084642491752826551e-02,-9.792146446126105630e+00
8.700614413235422187e-03,8.277663487013795819e-04,-9.803157713393327199e+00
8.535105649917651026e-04,-5.034235754925878506e-03,-9.788361339219058266e+00
1.349416843697634309e-03,9.085234425966275465e-03,-9.786090693155975018e+00
1.239967048393769049e-03,-7.587442105059495623e-03,-9.797042404411376637e+00
-2.894490746290166380e-03,4.903807429151692092e-03,-9.785166169151077398e+00
6.007257189337973473e-04,4.491411329970500417e-03,-9.790889588708143521e+00
8.962333008119101807e-04,-1.762322540649828920e-03,-9.797620854791556866e+00
8.805884974419773970e-03,2.795144769162962763e-03,-9.793221383733939689e+00
-7.495391307092808333e-03,5.342514473639540379e-03,-9.789380973266055719e+00
1.262924433840276889e-02,8.312069240675288998e-04,-9.793638474559809737e+00
5.011356495654448705e-03,-3.983682259540011553e-03,-9.790838195493469343e+00
-8.457784905993625049e-04,2.113430590157440187e-03,-9.801721278786532210e+00
4.701169607823592941e-04,-5.699212685625238166e-04,-9.795752514647524833e+00
6.463982840048392887e-03,-7.342714257279504960e-04,-9.790384589854648212e+00
5.854707024108412108e-03,5.183621946030475547e-03,-9.797269980750764162e+00
-6.556054941858333041e-03,-5.621647310525655118e-03,-9.800245591047396232e+00
8.532836735590874477e-04,7.506958944388289999e-05,-9.795486963052638885e+00
-2.279330842432591552e-03,-1.339743471249003719e-02,-9.803683274743940856e+00
-8.413918396829320537e-04,5.718999617622982055e-03,-9.794545731649080267e+00
-1.355697620286413271e-03,-1.269672428624434891e-03,-9.793555310410223314e+00
-4.950901301517437493e-03,-1.337831872641925563e-03,-9.801121622689562329e+00
-8.900381348312356999e-06,7.988541925066722921e-03,-9.796798151089966211e+00
-5.645079717851678603e-04,-6.665857821918693554e-04,-9.784630723966447619e+00
6.177739188302324054e-03,4.552517262071342774e-03,-9.789222043149743868e+00
7.108577042382038455e-03,2.007383243598321373e-03,-9.794089984060603271e+00
3.196160463732568811e-03,-2.546195266581799833e-03,-9.794760567906145354e+00
-1.014748738679275295e-03,-7.033950245914047557e-03,-9.794176837036996375e+00
-3.408702482549679901e-03,4.543357009831883175e-03,-9.794675071619288076e+00
-1.926791531569743698e-04,-8.131788856314435196e-03,-9.793202989719583584e+00
2.644567821438405155e-03,4.628143306729164998e-03,-9.791862247546792020e+00
-6.448060352586126344e-03,4.598799630921930788e-03,-9.792858379957745996e+00
-1.503013888009341499e-02,-2.428105031100809275e-03,-9.787789363067055604e+00
-2.482883421189657769e-03,-6.112655140784597563e-04,-9.800981949123539039e+00
4.913608210316129828e-03,5.003745939242585164e-03,-9.783672374043241859e+00
8.090938993327839029e-03,4.092051368928349003e-03,-9.796196657040527001e+00
2.644097283136472368e-03,-1.196992997169348677e-02,-9.801067878761394070e+00
-2.526778126488543955e-03,-2.560149264321057074e-03,-9.780166947022518542e+00
4.819185609231672190e-03,-2.922335106117882574e-03,-9.797522102605668692e+00
-5.292384680324878701e-03,4.046545392723938789e-03,-9.791932525029791279e+00
-9.500936060682861053e-04,4.888274739689224329e-05,-9.785872302545177703e+00
5.095771409428294894e-03,-1.664807735117708161e-03,-9.789890326359138584e+00
-9.274484481440827682e-03,-4.828591142376192566e-03,-9.792983190281054462e+00
2.415587266450263835e-04,9.509085571541522897e-03,-9.792553343181303660e+00
-4.009722163322980860e-04,-4.461148681378633053e-03,-9.793806122007413961e+00
1.050203386549891475e-02,-4.813722959013478318e-03,-9.798447887475438378e+00
-7.723868078527571651e-03,-1.233753501315127191e-03,-9.787786702732180544e+00
-6.632784014610867062e-04,-7.343092781412599405e-03,-9.801050028326224961e+00
-1.452989407455306491e-03,4.444507786792981779e-03,-9.800264721072911911e+00
-3.672883260487711313e-03,-2.273813460215744816e-03,-9.797738336669693737e+00
3.248338459229361923e-03,-2.851053859849253958e-03,-9.791056387239787995e+00
3.477694853084388645e-03,-5.231218629029416381e-03,-9.790750826430981490e+00
-5.562191414367333164e-03,-3.170665081953276659e-03,-9.795471532481142773e+00
2.800764872094718347e-03,5.189701807820774589e-04,-9.797875568344345254e+00
3.408727802713783749e-03,-6.206260230900366437e-03,-9.793138661030038605e+00
2.985346816668468795e-03,2.512986946518525923e-03,-9.798391208067037894e+00
-2.863601261927975310e-03,5.722688158817944336e-04,-9.793467209879494817e+00
3.051682507643370488e-03,3.199850749688799498e-03,-9.800906718665052253e+00
9.446655994113718410e-03,2.901646555238833990e-03,-9.798581906141762943e+00
5.775132020438480430e-03,1.048325798401741763e-03,-9.798188644030066285e+00
4.603464553855538509e-03,2.302599275825269100e-03,-9.796116120747518252e+00
1.928356419209905932e-03,2.472805471688628489e-03,-9.798440542874439885e+00
3.977935579610272256e-03,-2.989887620906823019e-03,-9.785022726956055905e+00
3.087616741414572590e-03,-3.604201184492401410e-03,-9.788524389006486359e+00
-9.140275359128008370e-03,-7.402651446041991212e-03,-9.793666693968150483e+00
3.135324117052987192e-03,3.293160400171760583e-03,-9.784050974677828805e+00
2.765357141261737522e-03,1.010938376233973604e-02,-9.804183117104543044e+00
-6.341621876276025242e-03,8.715708695744695325e-03,-9.793783238316565942e+00
1.474246038769305277e-03,4.085809486131347125e-03,-9.794996282332045112e+00
4.141559632913668042e-03,-8.379072254772448793e-04,-9.789396372474563179e+00
3.784694310905286230e-03,5.902524231440655841e-03,-9.794444575786837248e+00
-1.328498408145306793e-02,-2.838593371678172113e-03,-9.793643255516114365e+00
-1.264637294354355439e-03,-2.926318937350314790e-03,-9.803226280446404317e+00
-6.964245055685272349e-03,-8.408480775698157911e-03,-9.794609118322092911e+00
7.385077726791804131e-03,6.053825074701544955e-03,-9.792015971449941958e+00
-3.673364844959421151e-03,2.782800325127115972e-03,-9.791189841614375666e+00
4.303796287535516588e-03,-1.699624672717054644e-03,-9.796071426968440576e+00
-6.606416231177114282e-03,1.182620371602933693e-02,-9.796420440976827848e+00
-9.537834171527626763e-04,-1.096090067242066601e-03,-9.792476095302180994e+00
1.225725265265510504e-03,3.466230945141750720e-03,-9.794629242208717557e+00
-3.070623511738673327e-03,4.322502462475143019e-03,-9.799172583237417911e+00
8.046469764426815788e-03,8.322224281958879449e-03,-9.792697223929700101e+00
-5.384386750543682446e-03,-1.872931515637645851e-03,-9.793648185133523754e+00
2.820364644933775339e-03,-4.290697357186559410e-03,-9.800601609115133783e+00
-2.940833909731316656e-03,5.873559419109598140e-03,-9.807569724860314864e+00
8.045050335999823221e-03,7.365497036672960171e-03,-9.789982543853572139e+00
6.976822132578793141e-03,-5.433696868701980154e-04,-9.795964359118757514e+00
-2.311957618431525509e-03,3.224530694532636022e-03,-9.793990108040802056e+00
-4.459356223068224739e-03,-7.004388024530789790e-04,-9.787151395011418842e+00
1.871535974852008054e-03,-6.191384947304877850e-04,-9.792945690814292448e+00
4.837144207955904052e-03,1.793712734717107290e-03,-9.796408285490111112e+00
1.040666173334069524e-03,6.318702458107943766e-03,-9.790683718582661399e+00
-6.444074303000604798e-03,-3.110594476850552480e-03,-9.793396076588392063e+00
-6.977527756676839971e-04,4.554895500187812821e-03,-9.791497381863639049e+00
-1.016536610178112856e-04,-7.127941617684890700e-03,-9.795258134480944179e+00
2.693818256760362705e-03,-7.303568284871768401e-03,-9.796698001756292129e+00
-3.765476290258545954e-04,8.614522698768970962e-03,-9.800852531636381926e+00
4.012183933652973405e-03,8.592988174190662951e-03,-9.795450860039842667e+00
9.414880044578712720e-03,5.902411953317102979e-03,-9.791619222323472371e+00
8.184595340484949934e-04,-4.847700991488022686e-04,-9.795041438396429712e+00
2.044550173451009645e-03,1.790156825302443135e-03,-9.793144484070241518e+00
8.979309015909018449e-03,1.581343711024280714e-03,-9.793578385007638332e+00
-2.786498460423842381e-03,7.157870675360766648e-03,-9.793429255400692313e+00
2.436047828492035171e-03,6.351368775123759913e-03,-9.788477444377855718e+00
-3.297994280611172592e-03,-3.767857249278422881e-03,-9.788425248914551347e+00
5.870832013212045480e-03,-5.795618459705352988e-05,-9.798551343460278673e+00
-6.934462419964555931e-03,2.259833990683728349e-03,-9.802690948573953733e+00
8.905175404295889502e-04,-3.780640791002321845e-03,-9.789260290923852637e+00
-1.853192169997521952e-03,-3.755059092408510792e-03,-9.786646899476746597e+00
5.781693309391874175e-03,7.452768451002052784e-03,-9.801007091945185934e+00
4.386773314412451864e-03,3.033907466498403024e-03,-9.801904942098461859e+00
1.032862803934648513e-03,7.065500540876029027e-04,-9.794745434619027691e+00
3.632480126658115416e-03,1.324086050293108059e-02,-9.790506994595904899e+00
-1.432804250941898967e-03,-1.169831460497125324e-03,-9.796688946295509126e+00
9.556538507902643392e-03,3.505820713077211631e-03,-9.797119458129760261e+00
-2.089718825543800812e-03,-5.044814924297716385e-03,-9.796158287691206112e+00
-3.987660497909219573e-03,4.206819845904208321e-03,-9.793454460629929414e+00
7.905743574851487390e-03,3.153565385585579191e-03,-9.804164369041291849e+00
-2.751356433528689017e-03,-1.491358253042121031e-03,-9.792194790892112977e+00
4.541426678279032216e-03,5.119559173876630414e-04,-9.799622877315421476e+00
-1.110845711972831794e-02,5.392210651808989307e-03,-9.788525843978172603e+00
-5.360716658292170519e-03,3.917730862524265896e-03,-9.787867135481731040e+00
6.751754635928082331e-03,-6.778735639645370667e-03,-9.797648284828676779e+00
-2.231882118489866493e-03,-1.018912395416138317e-02,-9.795344623182668187e+00
1.421758339143412535e-03,2.868630899679233508e-06,-9.788273124569412786e+00
-1.022936793375106221e-02,1.202576883556089049e-02,-9.793651183606289834e+00
7.842817718947051389e-03,-5.567498481484682571e-03,-9.795485077997437173e+00
-5.074544113077544133e-03,-7.999926316287016628e-03,-9.795305171708001524e+00
-1.521301877348362874e-03,2.590512756474180282e-03,-9.784708746222124276e+00
5.951943928313250393e-03,7.143008726659785465e-03,-9.800450825837067725e+00
4.663074846812031646e-03,-1.094437189496321816e-03,-9.794479932506568787e+00
6.856887873712568318e-03,-6.140209825555103217e-03,-9.799084009020146979e+00
-2.924233950658909056e-04,5.857404528668593360e-03,-9.793765035478211090e+00
2.301804250254196882e-03,5.236619829746785686e-03,-9.802666256538698164e+00
-4.072660065136213779e-03,-4.593580996436865196e-03,-9.789680708495414052e+00
1.500486464140894215e-03,-1.347030596145219229e-02,-9.794583795701440110e+00
-6.979085010721142613e-05,-3.045643910290748383e-03,-9.784642614639357916e+00
4.814642243562883457e-03,3.147938273133162219e-03,-9.793562529954188633e+00
-2.106367415041306493e-03,-6.117779615916574092e-03,-9.792172050272560213e+00
7.205954966296115698e-03,-9.994282893815032570e-04,-9.792383603935631342e+00
1.770888377262067482e-03,3.839524241638817654e-04,-9.796200438735395366e+00
-1.266166309288127567e-02,6.164837245840568657e-03,-9.799556346385722705e+00
-1.575878053783221541e-03,1.324518377585703378e-03,-9.799104844649484392e+00
7.476189154205916537e-03,5.326795619176444979e-03,-9.790142805320417807e+00
1.151263958704627430e-03,-8.519495330049379946e-04,-9.790495869757862124e+00
1.114015318881373014e-03,4.371568635811802668e-03,-9.802543568977441168e+00
1.489418206794132331e-03,-2.278312771058420023e-03,-9.794526260684751406e+00
-3.288884092348654930e-03,3.885580960060267420e-03,-9.796542362539627291e+00
-1.761532036215901053e-03,1.562174023804319568e-03,-9.805023635330980980e+00
-7.033221644612711390e-04,-3.356393059848525491e-03,-9.787067896835258907e+00
7.811217624354076759e-03,1.108851660422765714e-02,-9.788187109687649823e+00
-6.143201032380122065e-03,-5.871669304153751164e-03,-9.793268280580567975e+00
-1.892430114893995860e-03,3.780740610575027486e-03,-9.798107285153919932e+00
2.956775444338027772e-03,3.978199080312628914e-03,-9.797182605016182322e+00
-9.374850422625338048e-03,7.043690952735501623e-03,-9.788196338883720315e+00
3.897716747176663277e-03,-6.068054000381195752e-03,-9.794430269473041406e+00
-5.923521243175273489e-03,3.216416834629946472e-03,-9.795502734123896715e+00
6.915790326488763760e-03,8.886074623383106736e-04,-9.794538080468056407e+00
5.251787042848269152e-03,3.440292209747512070e-03,-9.803044570651234579e+00
2.792022056497012704e-03,5.538059752983185043e-03,-9.791375389422968922e+00
9.652869814571848894e-03,4.309804800414084383e-03,-9.796435080728855382e+00
-6.811295414616341456e-03,2.391183363906161131e-03,-9.796877540644453930e+00
2.010721942775302740e-03,-4.193331877078288264e-03,-9.795830792351319261e+00
-1.353299955066484313e-03,1.514299880087564875e-03,-9.797937816288870394e+00
3.063893086163546609e-03,1.223723609593061097e-02,-9.793230206001185323e+00
3.135399708262759724e-03,3.050132508534788168e-03,-9.799709792316795287e+00
-8.980526121489782604e-03,5.265785382664174910e-03,-9.797129353710650079e+00
-6.418306556882236863e-03,-3.286992069916020755e-03,-9.801016799677233493e+00
2.385327701110490865e-03,8.635946365553415910e-03,-9.795028981405511814e+00
-8.292975466964057005e-04,-5.373933236175113329e-03,-9.798989876131040333e+00
8.008959486612090856e-04,1.249001439543963483e-02,-9.789848331050112762e+00
3.995420623958946538e-03,9.613662821043746478e-04,-9.792657964502451406e+00
-3.171740433189507418e-03,4.592913339766156733e-03,-9.795283104254568940e+00
-3.433267790437356023e-03,-5.866780815858901529e-03,-9.798916431746997446e+00
1.918264982892542783e-03,9.887291158639958250e-03,-9.788991315620695133e+00
-2.918289798645651908e-03,8.472113339982470862e-03,-9.795242313596375539e+00
1.645227698732114026e-03,1.536862936579136462e-03,-9.795086044760534350e+00
8.129805910890611567e-03,5.972404959644370213e-04,-9.784492572633119778e+00
-1.731430416520638024e-03,5.401302243711832152e-03,-9.793171577943585504e+00
-9.849643749157248329e-05,-4.436652222879019407e-04,-9.791344575865629452e+00
-2.113910374222789136e-03,-3.140652641536712062e-03,-9.801419017345967433e+00
-7.594873304456923897e-04,1.006662911258531488e-03,-9.801975033537038584e+00
1.746078817890659579e-03,-4.051073334290330313e-03,-9.792689343241457678e+00
5.633007188907250724e-03,9.893911012841897709e-03,-9.796448723979134243e+00
-2.134242383847059776e-03,-3.648105337506035283e-04,-9.797971639948325873e+00
3.700306616225360664e-03,1.708741441678048034e-03,-9.794717877807695317e+00
-4.350030548230817903e-03,-1.370697080108508083e-02,-9.795785183857342204e+00
-9.002842707056538801e-03,-2.816444799665817483e-03,-9.796791987578052030e+00
5.051592472475063128e-03,4.736786399173307897e-03,-9.793108180876181734e+00
6.180199265353920196e-03,1.049172429771627613e-02,-9.801933885632228893e+00
3.193088921588006605e-03,3.037731794096240265e-03,-9.791998584678065498e+00
-2.944134376263161847e-03,6.211409253770577669e-03,-9.792301204536428827e+00
7.494175773140496558e-03,-3.258524788139969142e-03,-9.796980622671641825e+00
-9.551956367824779651e-03,-1.718666500100692182e-03,-9.792892127117147183e+00
2.210307280276194511e-03,-2.351646462227859058e-03,-9.790794151832294290e+00
2.045620193979400415e-03,9.607339625314726544e-03,-9.787651126783853073e+00
-4.034578205882245749e-03,-2.613255015219174970e-03,-9.789644859341693817e+00
6.250242466592814336e-03,-7.811674713717841126e-03,-9.801148661389984085e+00
3.199852744773113832e-04,-2.677736114027790687e-03,-9.801508210036198321e+00
-5.505210169789098544e-03,-5.185412413767754788e-03,-9.792180564232710438e+00
-3.041687961738188603e-03,6.624703222547084942e-03,-9.796613657167872802e+00
-2.257540549263657714e-03,-2.625638995878825169e-03,-9.788328018171533529e+00
3.791212320488123420e-03,2.137913144803508993e-03,-9.802073139809849067e+00
4.519872475086033313e-03,5.407701396289953978e-03,-9.804732223878165343e+00
6.860758279908112968e-03,4.025801156435492023e-03,-9.801035501040795239e+00
-1.554519525098523990e-03,-5.061732344463771086e-03,-9.791827985189376804e+00
1.169833813058746182e-02,-1.264572579124806015e-02,-9.793703126079080334e+00
8.525814774482266128e-03,3.261068102265902990e-03,-9.784624502896447140e+00
-6.957648413508063815e-04,1.732247475533080488e-03,-9.789732080590672680e+00
7.359680676405844918e-03,1.710866766873782481e-03,-9.793170243738575920e+00
3.239302612185780694e-03,1.123490503355431980e-03,-9.797313880558315091e+00
-5.334558200207918481e-03,4.092884582730126931e-03,-9.794863427093574160e+00
2.075360142789101341e-03,3.600918695708243012e-03,-9.793474361971286513e+00
1.319481876941955116e-02,2.412503140436202467e-03,-9.797946169297622632e+00
1.577745671797213317e-03,7.696298165456289366e-05,-9.801548845296807144e+00
2.581902628237340257e-03,-6.336629345889522626e-03,-9.792876043078083015e+00
-4.322187253931757036e-04,1.117370556315269194e-02,-9.796697991549210727e+00
-2.772980401229705252e-03,-4.548383792184268947e-04,-9.796571641745376979e+00
2.556472880898419918e-03,2.995953255477299890e-03,-9.797217099115101746e+00
1.004321513233719793e-02,4.973990581980307010e-03,-9.802005298527236121e+00
2.510464532003995122e-03,7.403229664020643044e-03,-9.796873682841454212e+00
-4.217927051023406641e-03,1.267082866356584233e-03,-9.796019945902992632e+00
-3.731340171157188773e-03,5.761402091268539270e-03,-9.790857001547264460e+00
4.454071656172649621e-03,-5.313852852636836988e-03,-9.798198548407503594e+00
-1.145182613788336794e-03,-5.735398541224947730e-03,-9.781726901639112626e+00
6.013306570823628329e-03,3.564390212415416599e-03,-9.796292647221882532e+00
2.435178692718187148e-03,1.211009290848609390e-03,-9.795186705137657768e+00
7.924683376880410635e-03,-7.627013785722254816e-03,-9.796068902094056341e+00
6.572752894372875521e-03,-2.128230666668284431e-03,-9.795461899143283802e+00
-1.430430815061253195e-03,1.996094506215367274e-03,-9.790840067398411506e+00
5.020963735183110602e-04,9.574490689746471481e-04,-9.793629280870488785e+00
6.088243498518670915e-03,-1.456294242170826699e-03,-9.789698448281592746e+00
1.675073235938664236e-03,3.317195943424837597e-03,-9.792150067666641533e+00
7.725547140486761256e-03,3.132413656882635650e-03,-9.799517217411425563e+00
4.675844699623043707e-05,-1.635367472271370215e-03,-9.796263197000563139e+00
-6.333858711022173800e-03,2.498036741407980827e-04,-9.786639271026256637e+00
3.849001244327605355e-03,-1.119649750337940990e-03,-9.799162827206064463e+00
8.347228302384660653e-03,-6.381322751871336928e-03,-9.801861421613695668e+00
9.153193085888369340e-04,-1.925948490838273047e-03,-9.801399104970460741e+00
-5.214098325099125047e-03,1.152720219274841213e-03,-9.790231814727013315e+00
7.159688474470570461e-03,8.588112934735205647e-05,-9.788785703291207341e+00
-5.857287369770400364e-04,-5.833572575429172603e-03,-9.797097360140218925e+00
-7.260291691292716960e-03,-2.432819119039210040e-03,-9.796406385332069533e+00
7.145132321744305029e-03,1.165511145826000731e-03,-9.796811097051193684e+00
6.210091329866196039e-04,-5.450612769703811616e-03,-9.803331453431844977e+00
-2.717739713325474475e-03,3.302475905715249356e-03,-9.790471769215923104e+00
-3.143194129360081870e-03,-3.999465847592868946e-03,-9.789197800169359809e+00
4.395925895985025936e-03,-1.104506613835437665e-03,-9.798128584906841354e+00
8.448718783466181714e-03,-2.656084688599578796e-03,-9.794254649549799296e+00
-3.112672055973227494e-04,-3.702650227610303039e-03,-9.803182523861766029e+00
5.501281632124555183e-03,-6.197544469130636608e-04,-9.799436434574056776e+00
-4.347326584552560318e-03,6.635549089154927499e-03,-9.803842340199693695e+00
1.230534218685283131e-03,-4.028050021052977103e-03,-9.792769741164374153e+00
-2.147244078955091139e-03,-3.691910506760042853e-03,-9.795181314165263942e+00
-7.605272744375246932e-03,8.174310173045311323e-03,-9.793525328617725734e+00
2.481488094735859358e-03,-1.484759245251207572e-04,-9.797375344945171705e+00
-6.205676630739739115e-04,-2.604169237936433505e-03,-9.801456109720879439e+00
-9.055435988242436368e-03,4.120975883187056286e-03,-9.791287341315683790e+00
1.287529438977464552e-03,3.780059596366697455e-03,-9.789446717763695460e+00
2.368660707026204806e-03,1.847113134691447936e-04,-9.793476212899363986e+00
-4.827068760552629886e-03,-2.215448345317381530e-03,-9.785267451031300467e+00
-1.144004060177641544e-02,2.431224461515630892e-03,-9.790448907584075044e+00
7.823483771397701791e-03,-1.454008142859160172e-03,-9.788617183686550760e+00
4.166069039719848613e-03,-1.088680979437476508e-03,-9.791420816979989894e+00
1.087567471733968298e-04,9.119796808566239463e-03,-9.799790955037083862e+00
5.553696491681780686e-03,-7.695058772903820218e-03,-9.780729073619955471e+00
-8.832454700318342596e-04,-1.767379761723903916e-03,-9.785179148432538554e+00
2.497934364088390344e-03,-3.329153498298264256e-03,-9.794978212256877370e+00
3.120656302210561995e-03,-9.109560035773098729e-04,-9.791543996466467448e+00
2.052296653926031708e-03,1.740227032220963317e-03,-9.789914208450392508e+00
5.119316918497945727e-03,-2.468751701342465805e-03,-9.790029245150739357e+00
4.701013001222738470e-03,1.625590355416383498e-03,-9.796058179048115377e+00
6.564731937043397601e-03,2.345720778427273084e-03,-9.796418537492026957e+00
4.477789578295691096e-03,-2.201879020808462494e-03,-9.797454330640851694e+00
3.903434735095394174e-03,-2.848302539985215435e-03,-9.795349720941000982e+00
-4.453639752950448207e-03,-1.064677492614279648e-03,-9.793650638948795617e+00
-2.080334946152729170e-03,7.293245603006742045e-03,-9.798555527237864382e+00
6.916204083882469128e-03,-3.057111856217973201e-03,-9.795172521372673913e+00
4.159914587846526464e-03,-8.615509982706813855e-03,-9.798460080734129107e+00
2.838909453216435005e-03,-3.613992650178986504e-03,-9.795261307651164984e+00
-2.845919917301121919e-03,1.717180005258691928e-03,-9.795139041979984640e+00
9.974726562956705289e-03,9.381891374368087587e-04,-9.794544620503295107e+00
3.871980078722189918e-03,2.382939211127988507e-03,-9.798468540206219046e+00
3.327855332405281908e-03,1.183481375742305441e-05,-9.797362840059077982e+00
8.231490726430307561e-03,1.175357071231401991e-04,-9.792586036059587329e+00
2.516709192351924973e-03,1.918757758750871262e-03,-9.808043374311887774e+00
-4.413008561889962891e-03,2.785253051179476251e-04,-9.795888944328712711e+00
-1.242679959858692101e-03,-5.234439017096290114e-03,-9.795371237574046930e+00
6.664321202782826949e-03,-4.789765199604135819e-03,-9.791303242217429315e+00
-1.248103621029875328e-02,1.816386399742757687e-03,-9.794459202308264167e+00
5.512617327474021028e-03,-5.914993526835445829e-04,-9.802841302994591999e+00
5.171970202474086668e-03,-1.109883042369546984e-03,-9.799233395295837923e+00
-3.071080047861108643e-03,1.840353905405932387e-03,-9.789163740288559623e+00
-1.833910417026785944e-03,-3.067723597040630541e-04,-9.792866919801211267e+00
9.467778742604364764e-03,6.947388758314166322e-03,-9.795479026620995455e+00
6.435113619983430164e-03,2.127775514450060395e-03,-9.799051334901477617e+00
9.772378008559878468e-03,5.286338281496361612e-03,-9.796658403041380581e+00
3.394900499896671975e-03,1.343557669744366084e-03,-9.792427526335794497e+00
-6.987368138712693119e-03,-6.212453308445504974e-03,-9.795833288892005442e+00
6.014234223441133897e-03,3.446041386084282548e-03,-9.791693191879179636e+00
-4.174223557513335320e-03,6.586585029421854545e-03,-9.796745934943308143e+00
8.526941457100086635e-03,-4.596679813862173183e-03,-9.790329980788895270e+00
8.923187854311898093e-03,6.791821481468140499e-03,-9.788831688810226694e+00
-2.013613457103067671e-03,5.008413455460911795e-03,-9.790054246544094951e+00
-3.090698035377795975e-03,-3.681218021322607732e-03,-9.791753626630059770e+00
1.227224541031254586e-04,-6.807233189729336182e-04,-9.789901235945579927e+00
7.621465106950189167e-03,-9.993691908047068820e-03,-9.788557894847000895e+00
-2.006519251321863071e-03,-4.401886766020329453e-03,-9.794128808619118942e+00
5.678437037285897831e-04,3.020097284468034431e-03,-9.799719045403184836e+00
2.637961984026757946e-03,4.067276475951843787e-03,-9.788083999528677026e+00
4.574476084091452614e-03,-4.706041633821091315e-03,-9.797420984261215438e+00
-2.623452327317271019e-05,3.752322594352615510e-03,-9.800388421352765889e+00
2.441290937614861226e-03,-7.418780377041559468e-04,-9.798895630757639807e+00
-3.900045369446598735e-03,7.732522725653815168e-03,-9.806436669023625541e+00
-1.078615998825563273e-03,2.131077310610598758e-03,-9.807313212873449260e+00
5.333620657345150388e-03,9.497240087491575292e-04,-9.791074935477004360e+00
-1.970405220479153324e-03,5.712611401999340317e-03,-9.790556075191272356e+00
-2.442391767042455079e-03,5.153590813719690147e-03,-9.794185466040117305e+00
-5.078817191601058163e-03,1.912175211527613033e-03,-9.791271118249481376e+00
2.211805297137083882e-03,-7.295983431540494987e-03,-9.790919947580428939e+00
-3.445104891872784441e-03,4.097091029930986263e-03,-9.797450473289986306e+00
6.096273945226189997e-03,1.766280135584717345e-03,-9.796105819529897119e+00
-3.325960527423495270e-03,2.578377255811555718e-03,-9.797434169149090266e+00
3.040172666640616680e-03,6.185442052407953174e-03,-9.789316157358781467e+00
-1.458117666096109136e-03,-3.843571999169501530e-03,-9.798201427658707274e+00
1.828221175933683953e-03,5.481288322918400312e-03,-9.798263695851613164e+00
3.923282645639972308e-04,4.567060035449633420e-04,-9.792786770472778457e+00
3.616125389822195339e-03,-5.554873657833547286e-03,-9.794113558306928979e+00
7.987251127460485208e-04,-1.737207309520557349e-03,-9.786721430241072994e+00
-8.841929165598743159e-03,-1.134425299969440883e-03,-9.795934029191061043e+00
1.057727699037118614e-02,-3.153660504380366436e-03,-9.802893542773695401e+00
-2.931472784759951537e-03,2.201910096918581732e-03,-9.789604215538188825e+00
-4.334598383377696179e-03,-5.283030435726404801e-03,-9.795662849459219501e+00
-7.203174418621804444e-03,1.133028794001455716e-02,-9.782024633082672338e+00
4.042019975657320553e-03,1.327935454013759019e-03,-9.785857472759003528e+00
4.213992229161214048e-03,-2.992213871277698937e-03,-9.801640229835742346e+00
9.494421433064002477e-03,-3.952313846919420712e-03,-9.789008152260207041e+00
-8.827959221492581027e-03,7.940094988448540003e-03,-9.800854360347347694e+00
4.041156160562920339e-03,-5.774666172949232540e-03,-9.796489878166905640e+00
-2.507862064973462833e-03,-1.063363851023973409e-03,-9.790090450620827056e+00
4.887963211497895095e-03,-3.630909446516716269e-03,-9.798094007493796553e+00
-3.807231296660830129e-04,3.658122497567286614e-03,-9.791253689734229937e+00
1.682578664691375620e-03,-1.207159710595457876e-03,-9.797944487722048734e+00
5.872484976973371858e-04,-8.100187135783664489e-04,-9.796814827474509713e+00
-7.300889104931020113e-03,-3.304047905415214651e-03,-9.796416801079072201e+00
-1.808315748422338869e-03,5.943747544089017206e-04,-9.796094104656656754e+00
-1.735688478345471727e-03,-1.009993436345658002e-03,-9.790343096869198902e+00
5.923826158956556343e-03,1.943527842101053400e-03,-9.784396692846952348e+00
3.226721250763951807e-03,4.014522893657950127e-03,-9.791831895873297498e+00
4.142823494576372383e-03,-2.362147801555692685e-03,-9.794357615144402729e+00
-5.314247584002286008e-03,-1.007439388380795484e-02,-9.798938731225131704e+00
4.631491110802964627e-03,5.018454595810149799e-03,-9.793052000423564607e+00
2.978743715768034095e-03,7.436947967512512123e-03,-9.793461030485410390e+00
-5.067125879451427062e-03,4.642634208088426348e-03,-9.795635717860594838e+00
1.889586211580830937e-03,-1.559793672974138512e-03,-9.793614728130281222e+00
5.500890210464673066e-03,-2.959046869719167243e-03,-9.794167747572840810e+00
-2.684291655181499873e-03,-2.301808681242660179e-03,-9.796689357771210638e+00
3.121272433579574176e-05,-5.400578290120497567e-03,-9.795790223166454425e+00
-9.512347549427323723e-04,4.079957736525162090e-04,-9.792971487449579016e+00
-1.013186033297538285e-02,2.846776756363185272e-03,-9.783221821168561760e+00
7.493274751326743296e-03,-2.012678310895834634e-03,-9.799615952567094723e+00
1.370178876813116144e-03,3.914522254455888792e-04,-9.794139675660225919e+00
-1.149771634160697215e-03,1.146467695262765735e-03,-9.801566205187324243e+00
2.066109911433851570e-03,-5.515808020436185378e-03,-9.793580067766512798e+00
8.428175424213812938e-04,2.093193749179950418e-03,-9.789450745063184911e+00
-2.695684655214362208e-03,4.846173474567440527e-03,-9.792411118218925736e+00
5.218829311184317379e-03,-1.747389614074390963e-03,-9.793976898602402059e+00
-1.476329644692531530e-03,4.596978646366781975e-03,-9.795810714600271751e+00
2.252138473432319273e-03,-8.365737359816542706e-04,-9.792149587396499655e+00
-7.499586968205480993e-04,-6.935638987070656160e-03,-9.801284454306996352e+00
2.042163293419121083e-03,2.939266043290303474e-03,-9.798900499746171278e+00
6.749863681459227632e-03,6.119550411611117229e-03,-9.803373417609252627e+00
7.957914168546114525e-03,-3.505938813640417304e-03,-9.795924837284673004e+00
8.494662303838220255e-03,6.584418039743955391e-03,-9.789427715589752665e+00
1.134496950857427329e-03,-1.492864755611649852e-03,-9.791155637391604216e+00
-2.793810784230595264e-03,-2.015873982365427343e-03,-9.782264969393953180e+00
3.435196041672065274e-03,1.070667465708602557e-02,-9.799580191235431670e+00
-2.567797700027315763e-03,-3.629144607436645634e-03,-9.799217736521239175e+00
-2.311708497226666950e-03,6.212674448699039356e-03,-9.795611415940959077e+00
2.400123800400541952e-03,3.121926762079922299e-03,-9.803719845045161918e+00
2.082007687111401932e-03,-6.631874463388603806e-03,-9.795439391859620315e+00
2.119903331636367912e-03,-3.881635404531525065e-03,-9.798374672450359313e+00
-1.568638827075800012e-03,2.157092000538853027e-03,-9.791791553382301672e+00
-4.486271110140898147e-03,-8.397590294818718399e-04,-9.793553995005353840e+00
-1.396955339845443742e-03,-5.188603230997080804e-03,-9.793475718857600043e+00
-4.632594709110544884e-03,2.453163556909026665e-03,-9.794833275992772315e+00
6.110515954279200105e-04,-7.233052389261826129e-03,-9.791532302948603217e+00
-5.261222770704880418e-06,5.418748992802081572e-05,-9.789250088326037158e+00
-4.205205330645352298e-03,5.479251800893159170e-03,-9.802716641390507135e+00
-4.218744631228853875e-03,7.014583924918320335e-03,-9.798757444622433255e+00
2.681209584677577123e-03,-7.319483076303607422e-03,-9.790117570447602446e+00
1.517101533332532084e-04,1.520473352312063254e-03,-9.794299648400357938e+00
1.912412580750571275e-04,5.245575173022891521e-04,-9.788296727647960438e+00
-4.327769435191558762e-04,-1.205688032205970862e-03,-9.793968176152805682e+00
6.389645694270736391e-04,2.276080430819016516e-03,-9.794009395645403515e+00
-4.213588720279620552e-03,-5.562282992742899161e-03,-9.795563965387350081e+00
1.005043476455857662e-02,4.452283444132285007e-04,-9.787594847247209628e+00
-5.284478005623049340e-03,-6.111746677827945180e-03,-9.795275810753411250e+00
-1.778243588269463405e-03,4.669510058144635788e-03,-9.798672142712641531e+00
-9.295818188616293554e-03,3.214195933957768314e-03,-9.792329179961170027e+00
-1.224957995973820386e-03,-8.141216823774275954e-03,-9.794594226150135086e+00
8.340766222800957697e-03,-2.676575554535608886e-03,-9.791859665418659375e+00
3.786811755945511219e-03,-3.454743765362141422e-03,-9.793960766247012728e+00
-3.178014786493710275e-03,2.273222889116387159e-04,-9.802527762491219931e+00
-6.948177428607026432e-03,9.430884692983643180e-03,-9.804088314039423935e+00
-1.393969261828482183e-03,1.232524522232342039e-03,-9.796540912594096540e+00
-2.970166682292422426e-03,1.206562992014758098e-03,-9.796513478494613736e+00
2.938786218880762562e-03,3.243559382691519125e-03,-9.795683742053798326e+00
-9.170754231322925804e-03,-3.786742111781207613e-03,-9.792843234003976605e+00
-3.885444540198756003e-03,3.042452816512062133e-03,-9.796606313888513995e+00
-4.149349117472464141e-03,1.287819165546225629e-02,-9.795162650472320820e+00
8.984274391167247891e-04,2.158902705397100844e-03,-9.796997278047065549e+00
3.914988496579193018e-03,3.881558685616051576e-03,-9.789637239521166379e+00
-6.550797183752675099e-03,-1.010818000733715825e-02,-9.798502075445172821e+00
-6.994186642568474884e-04,1.955152646098402142e-03,-9.792495018871967716e+00
2.699812281413291543e-04,-8.678860183789972220e-04,-9.791799400773774309e+00
5.739597175195777085e-03,-7.330973726662234902e-03,-9.788120099031562660e+00
5.401193303889388793e-03,-8.645405221557883255e-03,-9.790890299235025296e+00
-9.700966111165963690e-03,-6.313520417815804940e-03,-9.799172048166370885e+00
3.066405967348217933e-03,1.659379112088824222e-03,-9.790187185484398924e+00
-2.948103247653159360e-04,-2.982166200493722823e-03,-9.791353574543702365e+00
5.849319575923612145e-04,5.324000111455033310e-03,-9.791655466992565948e+00
4.313362732801175482e-04,-8.217880646146024596e-04,-9.792904877926956075e+00
-4.414307439472257323e-03,-6.146472501864301899e-03,-9.792933719302940432e+00
-2.979534802875597431e-03,-4.348917563390525091e-03,-9.787978834883780621e+00
2.526558807811375013e-03,-2.626659889403109259e-03,-9.796944829552016287e+00
-5.852259510307889975e-03,3.826874642396479401e-03,-9.793783523562057169e+00
8.094423192376177384e-04,1.369866331502940515e-03,-9.796365404648806674e+00
-5.412278854148453106e-04,3.915130806372490654e-03,-9.796451187045802200e+00
-3.454966418698718778e-03,-3.859761610853244471e-03,-9.793539448767939248e+00
7.775301006532090060e-03,2.660676899195735939e-03,-9.788655062915315952e+00
4.892233237272673903e-03,1.844428392252575859e-03,-9.799989473130095163e+00
3.844956768926620361e-03,-1.079055440726275125e-03,-9.798540726633524045e+00
-5.018766014516983995e-04,4.526052163921002775e-04,-9.795435311531056399e+00
-8.959526025732458474e-04,7.844881951749513999e-03,-9.794417169013616586e+00
-1.036867571055162182e-02,4.391818395730902498e-03,-9.793476262509159369e+00
-1.106445817904428731e-02,6.965384652188497897e-04,-9.799085167588287959e+00
-2.144164811336561789e-03,-5.816119858401329855e-03,-9.794432387152996355e+00
-3.745936725976610048e-03,6.310883397473411810e-04,-9.787037900176128957e+00
5.009699320463305468e-03,-2.907298808069025539e-04,-9.799027979667718213e+00
5.031337612848722600e-03,5.443005998843117484e-03,-9.792968676944431294e+00
-3.697103499405043989e-03,3.393444283179672654e-03,-9.791510346255224206e+00
1.097422863580808407e-02,-2.891687218564904880e-03,-9.800775069717827748e+00
6.067106769389902544e-03,4.405931399251510408e-03,-9.791107112059247441e+00
2.472625426652339323e-03,4.871795610343252446e-03,-9.783605152261735327e+00
-5.372111668614651218e-03,3.502061055274200904e-03,-9.792287962280346036e+00
1.031577610638315622e-02,1.760437840122428335e-03,-9.794138486185175907e+00
6.559366435096688130e-04,8.226057869555726196e-03,-9.787370226233965909e+00
-8.157838606546112103e-04,-5.571533678122441054e-03,-9.792220200874149683e+00
-1.244372550552838661e-03,2.046550603492679719e-03,-9.798079209763784547e+00
-6.798430327053579802e-03,2.953137627117477190e-04,-9.795245608123012815e+00
-8.502317830058678597e-03,-2.875873038302266017e-03,-9.786709296959759996e+00
6.709505127339246075e-03,-5.570345019185728511e-03,-9.790653866680138151e+00
-4.558036964122495500e-04,1.889064554282930079e-03,-9.788808294540512378e+00
-5.905224033196977869e-03,2.515408832297546648e-03,-9.798340136864357675e+00
2.913833843417870054e-03,-1.417915465436986669e-02,-9.796399608511553225e+00
2.659209811962427467e-03,3.091726899077123017e-03,-9.790776789245093426e+00
7.381125550053421747e-03,-4.582363511338547780e-03,-9.792796492518775153e+00
4.221597070378984434e-03,2.248417485888998908e-04,-9.798238988250323800e+00
2.637432968718770449e-03,4.086237410813864206e-03,-9.793954181279564963e+00
7.784375972475499061e-03,-3.986804943335247632e-03,-9.788697366587490123e+00
-6.390721318498683405e-03,3.830305749875884905e-03,-9.790221318545974327e+00
-1.222879427286017616e-03,4.487174224100227982e-03,-9.796997838393007640e+00
-5.184634207117911828e-03,7.207577091501595314e-04,-9.789704259917382245e+00
-8.053205638614457018e-04,4.415563610419524776e-03,-9.795042196617945507e+00
2.271530964848709078e-03,1.123742343820174211e-02,-9.797175316332184636e+00
7.259536846730739804e-03,-5.154191119083105163e-03,-9.794056059298851480e+00
2.286491573783465056e-03,-1.656241180128684674e-03,-9.799409399457790215e+00
-3.858722919402745970e-03,2.126895502358349104e-03,-9.798657304870928897e+00
-4.013475392104847578e-03,-2.207009333380430260e-03,-9.794062121105312713e+00
-5.616557613146500039e-03,1.298643907297701745e-03,-9.790904926644470763e+00
2.823933676593339340e-03,-2.550373357975040112e-05,-9.795244619156342480e+00
-7.832110947596580830e-03,1.120609158116992864e-03,-9.788651517158697857e+00
-3.613224909514438539e-03,-6.587409205790180702e-04,-9.795510808060550190e+00
3.367764306092859913e-03,1.359200612904070890e-02,-9.790511167898637623e+00
-2.031005460056795400e-03,2.549260170303989902e-03,-9.805473862529852980e+00
-4.184422298150593765e-03,-3.898117164044741755e-03,-9.785941355183879864e+00
1.051363307256660690e-02,1.229077489062668695e-05,-9.798839613858545405e+00
-2.051140151045795570e-03,-4.745533753589367687e-03,-9.796749513223875994e+00
-3.053970546331381212e-03,5.098591898298169981e-04,-9.803106540873841368e+00
7.798559349526673276e-03,-1.033544048440453427e-03,-9.793657595000858862e+00
2.568891172839914919e-03,-9.287900559987460891e-03,-9.789133563813768646e+00
-9.728520320604498728e-03,1.876078969524368981e-03,-9.787592048821700530e+00
-6.218479833340836288e-03,-1.021411639517869757e-02,-9.790322212443117067e+00
4.537568714126484146e-03,4.116508896226661086e-03,-9.794435278005806822e+00
8.261272273522166781e-03,4.370091497603765477e-04,-9.793285649203777865e+00
-3.593278933432784723e-03,-6.885993262143219433e-03,-9.791997014783136777e+00
-4.089042467344597680e-04,1.537372582898832891e-03,-9.795442432522875720e+00
6.886422467307383227e-04,2.129130855384190474e-03,-9.792111242415650452e+00
4.209445154815018471e-03,-5.835187518558209753e-05,-9.797074502414444552e+00
1.264901634472079175e-03,8.400303472644034611e-03,-9.796207912544391050e+00
8.922857574437440507e-04,-1.362349671355933631e-03,-9.788241292737158261e+00
4.294147489766494616e-03,6.737410807370563734e-03,-9.795794506484906350e+00
5.333018929568763243e-03,-7.343498665234181495e-04,-9.798813171739503503e+00
-2.034495187852150382e-03,7.037307764363933283e-05,-9.793938567132578044e+00
-2.180863008898819080e-03,2.177651426306355734e-03,-9.796628156519528119e+00
-5.967464976943096314e-03,1.658023712042850793e-04,-9.790690739111232332e+00
1.131063372343279680e-02,2.557908249457302267e-03,-9.792026879573091591e+00
6.468466238297746092e-03,-2.220701054555189631e-03,-9.790541517462797216e+00
-1.328361947578231977e-02,-2.216970007174559956e-03,-9.790795896679112431e+00
4.270906410306271259e-03,1.131076512098154636e-03,-9.798362433258795079e+00
4.343762940638267941e-03,-2.967126366000664723e-04,-9.788735338345082582e+00
-7.601633873316085248e-03,4.744154436066697067e-03,-9.786021154654093834e+00
2.166168377870372145e-04,-1.643437176985908330e-03,-9.789487852785178745e+00
-1.001872321747322367e-02,-3.246875991724554669e-03,-9.789434155007162630e+00
7.482382123387696857e-03,-1.295176310504931108e-03,-9.793973781727242311e+00
-2.724817289234426811e-03,2.884520277283581305e-03,-9.796952440284478314e+00
7.016813024006459364e-03,4.156027277654472836e-03,-9.789591280974695664e+00
-5.187962699692722987e-03,-2.319119504496315511e-03,-9.791619821018175074e+00
3.889481545943015376e-03,-5.304475347908956320e-03,-9.786014263673679991e+00
1.448249279851845667e-03,-4.409438226854559342e-03,-9.793940539924015809e+00
2.999031020861903010e-03,-1.025497054754505831e-04,-9.791743778825262368e+00
2.111142615666136441e-03,-6.039640648043675779e-03,-9.793577021399775262e+00
1.810764407676328756e-03,-1.586736554848077038e-03,-9.789286265566783385e+00
-2.516879270318116927e-03,-2.592841659304950287e-03,-9.798502675359657133e+00
-2.432298088805975433e-03,2.892815566443905314e-04,-9.794588452851959559e+00
7.114624531271526720e-03,-3.235852518452464986e-03,-9.797722528245040863e+00
2.336392494171824191e-03,5.176147996415174195e-03,-9.790598675225796299e+00
-1.711317301279382478e-03,2.874727402992137588e-03,-9.795890027739435624e+00
8.016662537788116910e-03,1.017209797971126931e-03,-9.796505975054728310e+00
2.499603368185116057e-03,6.955876386360111598e-04,-9.795104263499185393e+00
-1.073131120674238048e-02,-2.890598864623641646e-03,-9.801803124320146665e+00
6.239854223454525256e-03,-1.069759353182678056e-02,-9.798751145455806721e+00
-6.361049993234517549e-04,-5.142699028091248653e-03,-9.800167634782347648e+00
-7.093161474333775120e-03,2.712547601630319830e-03,-9.792937508819720804e+00
-1.011914552218623649e-02,-3.043687989662397387e-03,-9.794553093373837171e+00
-2.372692365975903692e-03,8.321536724222549156e-03,-9.795257562782568428e+00
1.070207703164654210e-03,9.242919403030250280e-03,-9.788012846246541443e+00
3.670621531404512188e-03,-3.013817668756010003e-03,-9.798722059623457881e+00
-2.903894165259533235e-04,3.128687827105753466e-03,-9.794049907941674959e+00
5.201977007915204072e-03,2.530098673398906237e-03,-9.793011576970149790e+00
-2.852463187462849891e-03,6.001514922573866588e-03,-9.791522900573328414e+00
2.001278171520758532e-04,-8.145967734915516081e-03,-9.786525246795966027e+00
-4.410843903154462904e-03,1.751768412712854679e-03,-9.791984742659304075e+00
-3.254914505502369375e-03,-7.432997395732061918e-03,-9.798412943995090885e+00
7.515857185033333193e-03,-7.406524061662216399e-03,-9.792434444680877093e+00
-6.205888976009071856e-03,1.584944653789705123e-03,-9.797723481659273759e+00
-2.002592408011356993e-04,2.051639335743224088e-03,-9.791779953798128489e+00
4.827519982519981124e-05,-8.463228457544144656e-04,-9.784692855149559776e+00
3.822904789147222194e-03,-1.337579302825824944e-03,-9.798699259986078047e+00
-2.085106134604566841e-03,5.305196939871303051e-03,-9.789713033072681370e+00
1.736025780968903243e-03,1.841271600683083796e-03,-9.793394562894789601e+00
4.627722948971403107e-03,-1.136564081650158139e-02,-9.787298057997535494e+00
4.968269239221360586e-03,-2.248803895628168591e-03,-9.792517671293254011e+00
5.778085931509097800e-03,5.728532234207595747e-03,-9.793328895072729523e+00
4.727669276223226574e-04,-1.120963418161831544e-03,-9.800197279534248906e+00
-2.419172692046465522e-04,-4.452718855380590618e-03,-9.789873271428797707e+00
2.689533295282012411e-03,-3.075221393789933332e-03,-9.793594603618871020e+00
-1.262763597258391261e-03,-4.813506721067461981e-04,-9.793318664848991162e+00
3.922141229356210755e-03,6.488002842141526961e-04,-9.794394446383494213e+00
6.463868943308418574e-03,-3.150532871441476864e-03,-9.796187268513568469e+00
-1.055155333639712758e-03,1.564314485469042813e-03,-9.800083683913705102e+00
-1.927771327749139459e-03,-5.728324261342353056e-03,-9.794862526550186743e+00
4.404516130465793364e-03,-9.426660324012101771e-03,-9.796544931520843491e+00
-2.396704544440578927e-05,-2.986452711294131784e-03,-9.790698227649460961e+00
3.534674634856111060e-04,1.681991780215620711e-03,-9.787226505513471508e+00
2.997771316416629646e-03,-6.738353103865920950e-04,-9.798360893133327920e+00
-4.939484109655275373e-03,-5.292447728075209967e-04,-9.798570401848452960e+00
-1.913078053229375465e-03,8.338709001128884885e-03,-9.794718082692558170e+00
-7.586604215397030337e-03,-2.450081412322678825e-03,-9.789526639244941819e+00
-7.991588892879529851e-03,1.005922434148057328e-02,-9.798120521505147451e+00
-5.031478251796104618e-03,-2.479741247972474735e-03,-9.800876979015940904e+00
-2.124457185391965403e-03,6.210442431164271866e-03,-9.791980803464197081e+00
-2.988666915652991429e-03,-5.373196586274048628e-04,-9.795339832917072442e+00
2.280483252690130788e-03,-8.693582228409360048e-04,-9.791540474480939338e+00
1.941583573916036854e-03,3.758711336433431978e-03,-9.798385167615720093e+00
1.080084649100313682e-02,4.177816867780879267e-03,-9.795778604870108097e+00
-5.946934108633354123e-04,-2.115215668107352578e-03,-9.798939575501819377e+00
-4.692656178654917160e-03,-4.524114803111092473e-03,-9.803037303248268941e+00
-1.376423109768412775e-03,1.060136729647775510e-03,-9.797984463558590207e+00
5.434782593538557910e-04,3.095758300312954729e-03,-9.796434005293853886e+00
-2.104566865165722472e-03,4.436787764668748764e-04,-9.794990445177845118e+00
-1.618801500432650187e-04,3.538267809143274406e-03,-9.790800626237775361e+00
-1.261897511927126229e-03,-1.968306269242804663e-03,-9.799493015249749917e+00
1.655521407349411656e-03,4.476058436808901322e-03,-9.801596319276569602e+00
4.944807165650932273e-04,-7.024419523245017472e-04,-9.796148507138028094e+00
-2.497034311359775608e-03,4.357589013416859024e-03,-9.787104299064596447e+00
-7.213386750050644440e-03,4.484100688930395782e-03,-9.800443832498547891e+00
1.110746376477335026e-02,-7.465758526262471391e-03,-9.794103089772708159e+00
-1.937853406776155960e-03,8.223580079357386847e-04,-9.799174496425889558e+00
5.244746521568231963e-03,8.754095216971033303e-04,-9.801490733212803619e+00
-5.340857491577121960e-03,1.105382127396866299e-03,-9.799781562925470979e+00
-8.830322704561898231e-03,3.061445253868324569e-04,-9.792582341011433655e+00
6.058056063293772164e-03,-5.136744604481028112e-04,-9.794103767997142995e+00
3.390630774582425056e-03,3.569693949737016980e-03,-9.794545501749807315e+00
4.522321205144242025e-03,-2.608319139934355772e-03,-9.791414255193961580e+00
-5.671400555923604078e-03,-6.722240707212826481e-03,-9.800711490303726237e+00
-7.791378261971644743e-03,6.718160944384639864e-03,-9.803176329895403995e+00
-7.550919303927630145e-03,6.558350521336012671e-03,-9.798669708943048562e+00
5.561460148811552331e-03,-5.929670257794304733e-03,-9.793425203940831381e+00
-4.079682239276944886e-03,5.282667196541744256e-03,-9.794878419312917472e+00
4.361155315708456146e-03,-1.283481314779353569e-03,-9.791182978838190110e+00
-7.251520804585642483e-04,3.633483409229582581e-04,-9.788129079130399646e+00
3.659115674779785544e-03,4.046345175179307495e-03,-9.799899285875929067e+00
-3.295079437971616242e-03,-1.729422927052334628e-03,-9.800037841234715330e+00
1.678807148788129646e-03,-2.245019514471125431e-03,-9.796659319753315387e+00
-1.000473749516552543e-03,-2.951414908998420232e-03,-9.799751640313237644e+00
-6.489730059727003703e-03,-1.528123152064192122e-03,-9.786820149021611570e+00
4.981289726538943446e-03,-8.211062012233347890e-03,-9.797635120160570921e+00
9.471722021898453664e-03,8.457004391002307525e-03,-9.796704522431269879e+00
-7.504336001889207880e-03,5.949506204080563451e-03,-9.798617196367601423e+00
7.839215372868397688e-03,7.140573751240396165e-03,-9.786954237359704933e+00
6.401671119244502564e-03,-3.153916910377253715e-03,-9.807887028261546902e+00
-2.035414644131977504e-03,3.727103589018380785e-03,-9.796609844585272953e+00
1.033964914823534004e-02,-2.358138723654173118e-03,-9.787986122077702689e+00
-4.456992435174968875e-04,3.480251516630248742e-03,-9.797260572495106956e+00
-2.091258393165314894e-03,-5.193919467486191217e-03,-9.798584340195294118e+00
1.073263645088335348e-02,3.246023718532917851e-03,-9.798471994169352328e+00
-7.323395171751482299e-05,-7.692083384107611770e-04,-9.794356876982925897e+00
-1.592958296076873960e-03,7.145429571844716344e-04,-9.785693225849081855e+00
-2.764071305586258444e-03,4.606422083566506787e-03,-9.804504237271171263e+00
7.546033756791570117e-04,4.871260120461666336e-03,-9.796665726879140834e+00
8.297204379313116371e-03,4.800004173802815098e-03,-9.785080588128098000e+00
-2.743908611315372869e-04,-1.100118436845250701e-03,-9.794490792084513231e+00
2.487933852782281321e-03,1.327822733294060876e-03,-9.800065200439807001e+00
-6.846263190132182135e-04,6.680619258319363566e-04,-9.801820062067436723e+00
-2.025857945586971402e-03,-4.113329143078332589e-04,-9.790667658971749177e+00
2.115154198633633145e-03,-6.598116167206714844e-03,-9.792983656417501237e+00
7.415338271977130538e-04,-2.169167609311527939e-03,-9.797800407735723027e+00
-1.409632657682700040e-03,8.872559916726079077e-03,-9.798538440400566429e+00
4.676660056220555139e-03,-1.738319184433235066e-03,-9.788087247745931307e+00
2.306143218662038211e-03,-5.893960300516543245e-03,-9.793321108278298937e+00
-5.488630409891678309e-03,-2.263993462278941424e-03,-9.785261647555772768e+00
-5.017114889005965667e-03,-1.075592925656788414e-03,-9.795731777883567304e+00
3.428065027656265404e-03,-2.859226340640873016e-03,-9.795826043913432812e+00
2.633732348307050910e-03,-4.455879802349049443e-03,-9.797747826430070361e+00
3.614545115943700645e-03,-5.767091769326913820e-04,-9.791016326471471132e+00
-7.834462611340839433e-03,3.807036048525815498e-03,-9.791396392695149942e+00
-3.408360078364745718e-03,5.445108930087943881e-03,-9.799473229658483220e+00
7.786921815468317038e-04,-4.933690128813604005e-03,-9.797474463881371776e+00
-1.014918246826917135e-02,2.925693326709055903e-04,-9.801828642303208383e+00
8.374826682299550337e-03,-7.217777133255642505e-03,-9.797315965899251466e+00
3.525828176856966954e-03,1.362768565723091081e-02,-9.790965952154774499e+00
-1.502499081094708228e-03,1.570082922896624995e-03,-9.795347933027635179e+00
-4.662170466186528819e-03,-3.073709321948541167e-03,-9.795307767958371770e+00
-2.594255757642124124e-03,4.212734006152823139e-03,-9.791833845560297789e+00
-8.170370899818760885e-03,1.743848400201351758e-03,-9.798445096548203281e+00
1.383483113750867905e-03,-5.594980846200902150e-03,-9.795060190020725699e+00
-3.335273262991409610e-03,3.527109492811300942e-03,-9.790432886767701959e+00
7.744029275314196284e-03,2.618673346335934939e-03,-9.795058806796774320e+00
1.410700696807662760e-03,-6.215321789611013073e-03,-9.802159849489180843e+00
5.435173404964381214e-03,5.086558581989177041e-03,-9.793456110639850110e+00
-6.485935957799631238e-03,-2.377999137141030301e-03,-9.791344518984415046e+00
-2.036217180875712733e-03,1.544175267417761174e-03,-9.789966488788735433e+00
8.299844497149912181e-03,-3.597215375443230286e-03,-9.798476136496828914e+00
-1.679800009613160051e-03,9.105406491526496504e-03,-9.800435427979634184e+00
-1.079307289890192850e-03,2.961334306183974370e-03,-9.788580979633309198e+00
2.380884172403894758e-03,3.425280187275594936e-03,-9.792458783813442480e+00
7.748834370997069454e-03,6.601904179909925952e-03,-9.798211123630181874e+00
-3.486786763962192084e-03,-3.962587331312102806e-04,-9.794122252877361490e+00
2.319781077587190939e-03,-1.262001954819697014e-02,-9.794770036627841847e+00
1.808358246820795500e-03,5.548334664344401791e-03,-9.798775057420716195e+00
1.372083883348179309e-02,4.130470958334817554e-03,-9.788545206072571503e+00
4.240780935383802624e-04,3.146264870272393391e-03,-9.794272649719221846e+00
5.035836632129102666e-03,-4.463642023185877567e-05,-9.786629168614387808e+00
1.391521962824667381e-03,3.792141937193978414e-03,-9.787249022047966207e+00
3.931688550405127748e-03,-2.282752202766834011e-03,-9.804669401905904635e+00
-3.523126256834254073e-03,8.277681369529030914e-03,-9.794950914558420152e+00
2.124975653551271562e-03,-4.222439649805768795e-03,-9.797817003824631499e+00
9.195119358935406433e-04,3.883846428017384382e-03,-9.792124611409668944e+00
1.027802440981590362e-02,5.410846953882659897e-03,-9.793303872813458710e+00
-5.358837718380854778e-03,-4.019438220829396613e-03,-9.803010571434326081e+00
7.566298982615218957e-05,2.594887253166216438e-03,-9.797047219007689378e+00
6.826288247515255488e-04,-1.587773483013285407e-03,-9.787326788995114768e+00
3.937131522176669056e-03,3.433705511808284559e-03,-9.806420820652331116e+00
-7.927150741295452968e-03,-1.695292716082606992e-04,-9.798325266330721206e+00
-5.567685726484329460e-03,8.068693900437089520e-03,-9.788228490358768852e+00
-1.657232423308314852e-03,-3.761833387574424828e-03,-9.791759514940995501e+00
5.357409668600989286e-03,-3.457985371834997480e-03,-9.794518912592160120e+00
-3.384627763184359754e-03,6.534574070349102870e-03,-9.786675540078135782e+00
8.166103607552578636e-03,5.664154527859422208e-03,-9.795498561677304039e+00
-8.327076526928372992e-04,-1.233461613889330621e-02,-9.794016918881064626e+00
-1.166991061879299246e-04,3.094508670258816485e-03,-9.796034465440992989e+00
4.054936401394787504e-03,6.113504793432992558e-03,-9.800367783446453984e+00
3.519690257997567986e-03,-2.875522916416510099e-03,-9.789715955200337660e+00
-2.173992428900068698e-03,1.006498544080860211e-03,-9.799917029116340217e+00
4.717920414632805750e-04,-1.810542549699388493e-03,-9.790833090925907811e+00
5.583103489296663150e-04,-4.749470700899501192e-03,-9.788686667143501552e+00
-3.384862363952064433e-03,1.163027409827287195e-03,-9.793251877109373282e+00
-1.591634160780324575e-03,-1.322595237335539436e-03,-9.799042106554011866e+00
6.346896397439266702e-03,1.149275828268512319e-03,-9.795685232886858884e+00
3.551382539483693458e-03,3.162061123372149167e-03,-9.800186713969585739e+00
-6.338614441726339761e-03,5.222898472928714543e-03,-9.800869499653156680e+00
6.958063385989170756e-03,-4.082754991552094842e-03,-9.791560166951677857e+00
3.406495675901772754e-03,8.534367629718467643e-03,-9.788596417312605880e+00
8.119902051051224035e-04,-1.634805575656762735e-03,-9.797286837431046891e+00
-3.943322531426098412e-03,-1.695223046083262465e-03,-9.795654206748256598e+00
-1.339548316591908372e-03,-7.011169581386032454e-03,-9.794643191074889899e+00
6.947124824330353811e-03,-9.661537111638660545e-04,-9.794108638933479938e+00
5.084596954019809587e-03,-5.642333927631347848e-03,-9.794038544310199157e+00
6.216650354751983645e-03,8.683122260907791615e-03,-9.790890751103621170e+00
-3.599843956769631544e-03,-7.556699620908467058e-04,-9.790699898744877672e+00
2.543418035042745162e-03,-4.057917019306355420e-03,-9.797856001278757887e+00
-5.039041051162066083e-03,5.302276131760343819e-03,-9.793534936576962835e+00
-7.220269174734410614e-03,-4.123031337957989810e-03,-9.789797464963740481e+00
-4.315239523519232966e-04,3.147035034956426926e-04,-9.791229880818448805e+00
-3.910938946910910013e-03,4.650413943065011442e-03,-9.792633310398182189e+00
4.443945978574957972e-04,2.615859431695585638e-04,-9.791011599391545417e+00
3.969093291163867249e-03,4.598277152625771837e-03,-9.800949449507280420e+00
5.067920729323054270e-03,5.403571428881474847e-03,-9.795925498586431246e+00
3.162231213349082047e-03,3.548094654452765969e-05,-9.798215721065799855e+00
1.752587999223170247e-03,1.655167376167016730e-03,-9.792101678725458669e+00
4.773879480308210708e-03,-6.224581426767070332e-03,-9.791220474153726983e+00
-3.304472391015419400e-04,3.488088407979266121e-03,-9.801101102928386766e+00
3.371963469075740880e-03,1.976125619829085644e-03,-9.794289546290551485e+00
8.428933603991145725e-04,-7.169944495257167885e-03,-9.805431022114307282e+00
-2.404272409824352238e-03,1.142535907700645628e-03,-9.790060683590326107e+00
8.159061677981402361e-03,9.364355290223129805e-03,-9.791279081522045402e+00
2.529671422734122276e-03,2.889040519068521943e-03,-9.799462201373920323e+00
-2.122503277327410579e-03,1.448998939320198616e-03,-9.793157441661797691e+00
7.851688293539663827e-03,-6.795024039768055371e-03,-9.802055705511072858e+00
-2.080809352668262953e-03,-7.455586410849702507e-03,-9.792163112366745636e+00
-6.234595880779137018e-03,2.865594918679523900e-03,-9.790684942988219674e+00
-4.043338060336956188e-04,3.738521817127103252e-03,-9.792657966593889540e+00
2.286948557193052567e-03,3.225494875995104337e-03,-9.800390396135142623e+00
9.585377225286108305e-03,3.822374440127299100e-03,-9.790673625770594413e+00
-1.639209252758034099e-03,3.801397728794457271e-03,-9.798266754680776458e+00
1.256776017571127743e-03,2.178168958092000559e-03,-9.795775557139583256e+00
-5.086996078196640014e-03,8.302530688907381468e-03,-9.793690847809642719e+00
1.883978496675110456e-03,-5.818978351105920637e-04,-9.796782180206971447e+00
-9.265517411708539680e-03,-2.837602339702394519e-03,-9.792214402470632351e+00
-2.171530339211790676e-03,-2.626534857296987120e-03,-9.802580676457283815e+00
2.809770405514572938e-03,-3.249944281377861819e-04,-9.792258020006855190e+00
4.567775513353291780e-03,7.592457841392561899e-03,-9.794312989742106623e+00
3.307929860616612514e-03,-2.799380354476340392e-03,-9.784113175662831452e+00
-6.263359852408697040e-03,-4.036294960313930105e-03,-9.792181698302053761e+00
4.929472954536160897e-03,-1.986560302735278314e-03,-9.790492643140739304e+00
1.252198224414885052e-03,-2.560918209133571273e-03,-9.792002194009089777e+00
-6.918456427441000908e-03,5.969031874177820052e-03,-9.797577113135398363e+00
6.821884782706113962e-04,7.630634963891277413e-03,-9.790206588303410840e+00
-6.046885131578836475e-03,-1.547694450606711732e-03,-9.788686520699311444e+00
-4.049718451828250489e-04,9.648297513920619725e-03,-9.798768226241376667e+00
-5.049321495200318095e-03,1.474070199704988942e-04,-9.798157834835102165e+00
2.441774616897030709e-03,-3.459213394064521510e-03,-9.793348445094187227e+00
9.524838764358549426e-04,-4.959690023651757741e-03,-9.791276683861759977e+00
-1.911584877991567063e-03,9.655241450585112795e-03,-9.796964867330782312e+00
1.911412154464513149e-03,-5.164050745361461678e-03,-9.788088395753275606e+00
-2.824000745429921036e-03,-5.174468489375921507e-03,-9.796875944199770814e+00
2.954580412434048772e-03,-8.151153040335338759e-03,-9.788180685326263841e+00
8.089806817791606736e-03,2.843061732092279185e-03,-9.796027520534389410e+00
7.831199695549762377e-03,-5.789434691264173927e-03,-9.802667571145436298e+00
1.305396202709450688e-03,7.280666817954863437e-03,-9.795067126096267174e+00
-2.902366457971095916e-03,-9.199187981970993831e-04,-9.790053214097181211e+00
-1.951145224714084195e-03,-2.174048697354038270e-03,-9.802806558464686404e+00
1.194005599074216863e-02,-2.213940477117147618e-04,-9.793538454721815611e+00
-7.136964260579780825e-03,9.473845065737646065e-05,-9.794587220845077269e+00
6.685583156073960330e-03,-5.035725251984182228e-03,-9.790434565091812757e+00
3.363095925354455361e-03,1.021100748259149132e-03,-9.795264484247436343e+00
-4.009317912155336162e-05,1.005236025855455861e-03,-9.795811325037730555e+00
8.028177936713305068e-03,-2.944148476350655266e-03,-9.805456085267522326e+00
3.728210004952759588e-03,-7.086387338039565505e-03,-9.788553750660112129e+00
1.014821471818549113e-02,2.348103027836980806e-03,-9.795316281862984198e+00
5.049817553998736490e-03,-6.108420946896946091e-03,-9.799250481367751675e+00
-6.580967995581481905e-03,-7.989602866590720569e-04,-9.789755692062151127e+00
-1.906282044866771785e-03,1.462987721152680075e-02,-9.799565777875525185e+00
2.806464986267015807e-03,5.645864759572126988e-03,-9.797107582510406587e+00
1.804628992825895242e-03,-5.105615718960090227e-03,-9.793513276857517269e+00
-5.865084186049029924e-03,6.964408021547192039e-03,-9.795282341392772096e+00
5.886855361110965648e-03,1.073221557988178736e-03,-9.793106421859413047e+00
7.479440672928546613e-03,-1.442517652665969595e-03,-9.808667078567932407e+00
-3.107759564351005033e-03,1.707209703580379184e-03,-9.794753140791581103e+00
-2.544700512371373194e-03,-4.793407701989458279e-03,-9.792200514602653172e+00
1.487046679157527640e-03,-3.623096837962110853e-03,-9.786079342638918988e+00
2.323506321209646043e-03,-8.355706272638470898e-04,-9.788572438655707586e+00
2.333941582360710403e-03,2.570438845652141605e-03,-9.798834249628892934e+00
-5.151795620894933370e-03,-7.763447360447855517e-04,-9.791933181111826201e+00
9.272951648733522394e-04,4.752587358061144927e-03,-9.796233427407983640e+00
-9.195501328991733184e-04,-9.270539164304306221e-04,-9.790029021657428387e+00
-8.520780568389299536e-03,2.172892682807064848e-03,-9.798625511465694160e+00
7.937088162071719022e-03,1.305593191125685275e-02,-9.798588654772389717e+00
7.557838147651260025e-03,2.944675727862504215e-04,-9.791661800210359701e+00
5.016159230178405919e-03,4.228953643911373579e-03,-9.798492563400255762e+00
-3.732488589057600826e-03,2.648584747934831524e-03,-9.791737540575091714e+00
-2.996087859550885038e-03,-3.411634816567829607e-03,-9.794691049851294906e+00
5.010058829552080199e-03,2.083186970861915493e-03,-9.790769661156788928e+00
3.595557906833037141e-03,-2.466346596396792098e-03,-9.799305543765203907e+00
3.684908869230732725e-03,7.706367752669683081e-03,-9.793550946045593619e+00
5.590684511773294594e-05,-9.529116932428873281e-04,-9.788821071936897766e+00
-1.600424457962353834e-03,1.016003193767201461e-02,-9.796202463448841158e+00
2.510999543547324207e-03,-8.631014097938046999e-04,-9.799835920105552489e+00
-8.235862158946317740e-04,-2.262086940443214580e-03,-9.802417233333143187e+00
-8.733363561362568256e-04,4.468812501701438164e-03,-9.801585407087101132e+00
3.857242529195377932e-03,6.982616862895746693e-03,-9.793343911612614860e+00
-6.103084082166170508e-03,4.701482594935527809e-03,-9.790803571552617157e+00
3.998069071970494597e-03,1.314591915299607831e-02,-9.797392828335347303e+00
-5.072757093526399953e-03,6.914288320335253320e-03,-9.802323002846762279e+00
1.806239132716023783e-03,3.557494202714576483e-03,-9.793197002327177714e+00
-2.606947594491942303e-03,-1.224857798393224131e-03,-9.795687949441916231e+00
-3.579287259597751722e-03,-6.763118920226944379e-03,-9.797469476241621678e+00
-3.190548772218146714e-03,1.194004536739280524e-02,-9.787050039913697930e+00
1.512523080255644354e-03,5.485494155021659185e-03,-9.787617689146147271e+00
3.377848629227237290e-03,1.608567949884020815e-03,-9.793791779493556504e+00
3.001835095390543995e-03,-5.771710263229851319e-03,-9.788249939253198306e+00
-1.035995141650514206e-02,3.410668450244800590e-03,-9.788351076305225718e+00
2.935105108368361079e-03,-6.022986896403516657e-03,-9.792823143465422930e+00
2.762211798656168203e-03,5.864943252800578280e-03,-9.793554329176533457e+00
1.279484284442166872e-03,4.468428338075477210e-04,-9.799906874620528896e+00
7.656222004455608479e-03,-3.673510135866985687e-03,-9.791522534328846561e+00
6.631084770885612920e-03,-2.463030683743957453e-03,-9.795966393531967853e+00
2.476464201199526927e-03,5.088638200564567921e-03,-9.789412187618315997e+00
3.021505891530599196e-03,-4.920015891208907692e-03,-9.793851563072742294e+00
3.635405330146882028e-03,-6.410674567998725197e-03,-9.806235274378250821e+00
3.996153692016573070e-03,-7.196198542180111575e-03,-9.791852246792579706e+00
-2.967452713085077728e-03,-3.975031842646422654e-03,-9.796690534670110750e+00
7.292124780099347621e-03,5.527107276241688015e-04,-9.790249816776730896e+00
1.377271900948712734e-02,-2.979428328599857505e-03,-9.788664232316500957e+00
5.597862120929129881e-03,4.010217691289019899e-03,-9.795389185806232746e+00
7.900012148218865660e-03,4.294951649269360475e-03,-9.794561056284873501e+00
3.845288038596626420e-03,1.928603078267960777e-03,-9.792270817746606681e+00
2.354213264079167787e-03,8.979758197444974010e-04,-9.790679906671881483e+00
-2.857712924274040216e-03,6.058562963156580508e-03,-9.798868679711270957e+00
-2.619821985189672939e-03,4.541783260008781624e-03,-9.790500726088966488e+00
2.893754718643409222e-03,3.594669241709337430e-03,-9.802352220819683382e+00
1.681831888790546320e-03,-4.476089503602826911e-03,-9.795384361807309759e+00
6.954399026517566786e-03,-3.553618614069008023e-03,-9.797760461643811425e+00
2.746626931615886273e-03,-7.748897437623889634e-03,-9.792149252479894983e+00
4.603405953816485513e-04,6.815166875045831907e-03,-9.792748459844707654e+00
-1.793502729135034238e-03,7.042124001112564334e-03,-9.803277856112398325e+00
5.950670775977989248e-03,6.289454700595825155e-03,-9.797257754451443645e+00
1.919870759517152900e-03,1.732187571508348725e-03,-9.792926170375213957e+00
4.761312913268577265e-03,8.362745134175366551e-03,-9.797634285925154174e+00
9.301006970232788759e-03,4.786823493335138312e-03,-9.792853551528118317e+00
1.674335200397693551e-03,4.223145469997515930e-03,-9.796840733294997605e+00
-5.330466359015409265e-03,5.377475493176946163e-04,-9.790017941519526090e+00
4.363154358004049313e-04,-6.453571262781931592e-03,-9.806011172255637121e+00
8.428940206700695839e-03,-1.660007066673132746e-03,-9.798523624712471403e+00
-5.212225876271965814e-04,8.422702915863411813e-03,-9.797054644867028372e+00
-3.961703066315958380e-03,4.388088740195116629e-04,-9.803999732387246979e+00
-1.691813624338005901e-03,-5.811899998825201946e-03,-9.785350765265699025e+00
-1.287421352217916690e-03,-7.204173351848034562e-03,-9.791773657189994040e+00
-2.353500051053182638e-03,4.728668140652762981e-03,-9.800821911949759269e+00
-3.024944809174230989e-03,-5.111564072438003377e-03,-9.797857341866185621e+00
-3.314712647574906065e-03,7.198978796440561045e-04,-9.794373016625241846e+00
-1.393068178035928358e-03,7.879273715380993165e-03,-9.788983441331922108e+00
2.165297636693879965e-03,3.728850476077649658e-03,-9.793640592074307705e+00
-2.155134155377567973e-03,7.797508898525656526e-03,-9.796170547004816598e+00
-1.242881885347284134e-03,5.770351403398381492e-03,-9.801484890994746735e+00
5.848588217503010445e-03,-2.438995047789227662e-03,-9.797579912575020700e+00
2.779511531744589467e-03,6.587088895157764377e-03,-9.798776300674450823e+00
-3.624470578157082835e-03,7.551995397339887270e-03,-9.791696368820595353e+00
6.361258571625599129e-03,7.392920621113719358e-03,-9.798944591654068503e+00
5.089077065027035850e-03,-3.678101793719015019e-03,-9.795428541172711334e+00
1.639555941678180750e-03,-1.353243741775241558e-03,-9.786490910667325238e+00
-5.197630363283276683e-03,5.749575226477334974e-03,-9.787358143232637531e+00
4.311790925401980112e-03,5.408221937377123353e-03,-9.798629471407419800e+00
5.151944344488464111e-03,-1.330677491964964154e-03,-9.787503235886449104e+00
3.552411339858845170e-03,-1.743073339405807644e-03,-9.783513018704692144e+00
-3.892790072530771242e-04,4.984731062428363751e-03,-9.794868679730264205e+00
-1.050523710553366401e-03,8.987872182378828234e-03,-9.792161820694857965e+00
1.506663292561755737e-03,4.621433296474166709e-03,-9.796531068152445343e+00
8.368503038166637611e-04,2.647944175359891270e-03,-9.799376134050442388e+00
-1.819751685389140936e-03,7.544665397163560598e-03,-9.795604697424867169e+00
-1.455620813979382165e-02,-1.342385538152569488e-02,-9.793406703362576238e+00
-3.302163502108123629e-03,5.125225253583432644e-03,-9.790279093623349027e+00
7.787327233165806245e-03,4.846126150857167983e-03,-9.791922681842548215e+00
1.134170078079225867e-02,7.095798881472236731e-03,-9.797394788372351115e+00
4.781356137381847712e-03,1.492545064323119600e-03,-9.791517668687426124e+00
5.519307263235519526e-03,-5.357220689613795099e-03,-9.801867760447345646e+00
-2.950472156503330251e-03,4.562325761501496296e-03,-9.789018868447714183e+00
-5.682268844668546780e-03,-9.887449609168150362e-05,-9.796359440640042493e+00
4.659640091928483538e-03,-1.887127930689900960e-04,-9.798394455269708203e+00
4.717274736164672223e-03,-1.017377040177393915e-02,-9.793836496635071498e+00
-1.233958277356469882e-03,-1.966680032812679821e-03,-9.790379859983316280e+00
-4.685123807703231794e-03,2.387774509135156403e-03,-9.796778832030865303e+00
3.621798128912229382e-04,-4.943757216990371430e-04,-9.785396939338122380e+00
-3.429184957808484053e-03,5.522461856020993015e-03,-9.796680616321060242e+00
4.764605609492367048e-03,2.620583841637965164e-03,-9.793409635146749892e+00
1.134877428523852101e-03,-3.257935217834282294e-03,-9.800715063364338064e+00
9.904255384650781542e-04,-1.334787366624079225e-03,-9.801990793966778526e+00
4.684723056549276558e-03,-3.444276527415868379e-03,-9.792591936231870520e+00
-6.033090619796404805e-03,-4.261918771133584027e-03,-9.793586259249739356e+00
6.308834370521315162e-04,-3.898847363479614886e-03,-9.791194183890075564e+00
-5.150584727944143917e-03,1.543489827402831031e-03,-9.801944097358029850e+00
8.930616260956317914e-03,-6.035544261281182129e-04,-9.787147119787473315e+00
6.327347710481440700e-03,3.003530049578949368e-04,-9.799071732504042842e+00
-2.934580618035212418e-03,1.173288748378676673e-02,-9.785082552975032044e+00
5.018054702548040667e-03,9.210146948939106765e-03,-9.798169800135797303e+00
1.032842997429027354e-03,-6.654037035187020631e-03,-9.794711876105600012e+00
-7.535420850428723241e-03,2.819481717643296768e-03,-9.792810022642424173e+00
1.850388079945558322e-03,6.578750990097103658e-03,-9.791472975997699280e+00
9.468572743073735976e-03,4.186278607697580499e-03,-9.795925370480484062e+00
4.400797252393544995e-03,-6.533461887418758225e-03,-9.791735041197517475e+00
2.717540531190677441e-03,-3.240284113055104300e-03,-9.791057714480235319e+00
-1.664964080545219480e-03,6.797735705768370891e-03,-9.796503859028506511e+00
4.729897986154682488e-03,4.769972569128797836e-03,-9.793493929482620430e+00
-3.008284740330928464e-03,-6.780466881969034014e-03,-9.810702915084805298e+00
-4.969933623798036826e-03,1.033343862364944320e-02,-9.792760610845540725e+00
8.365801558284162789e-03,7.353991083936443560e-03,-9.790740896311854513e+00
-5.281736797719099310e-04,-1.685622697138970151e-03,-9.798215457117882110e+00
-1.243536242822494524e-02,4.777723860661278570e-03,-9.792785642041868854e+00
2.706489212897486606e-04,-6.930856122239418670e-04,-9.797289785564602838e+00
7.059307102174669675e-03,-3.287202227520936906e-03,-9.791921009477803750e+00
-7.501894732095325605e-03,-3.981144800568743071e-03,-9.799276338640650508e+00
4.131082190512915127e-04,3.897191644706475642e-04,-9.801488919450035198e+00
7.712878993807077699e-04,3.847623551026800245e-03,-9.790170262954179137e+00
2.920487603686776172e-03,-2.428725012331673077e-03,-9.785949844660674302e+00
-8.197558643173391904e-04,-3.066028872180136863e-03,-9.801124998365203567e+00
5.857476200698877138e-03,4.231099653264300611e-03,-9.794707970216064652e+00
6.218037875364498812e-03,-5.361818847109739092e-03,-9.794980939489049021e+00
-3.061184093964458390e-03,1.064763700214194433e-02,-9.790987083092378640e+00
-4.010036259987373453e-03,1.144259191212517401e-04,-9.787777464390451598e+00
-5.411844429004470693e-03,-4.355415018560558973e-03,-9.792725824535878587e+00
-1.556319611384203265e-03,-3.876615295377288089e-03,-9.799771608408077483e+00
2.762396676463597239e-03,-7.468792375982588085e-03,-9.806456528950464602e+00
-4.870137408554019685e-03,2.216505960966467983e-03,-9.793178650982019562e+00
-7.405475891313347686e-03,-4.526410553216275549e-03,-9.792266887962698618e+00
1.552024389559977964e-03,-2.801514655017415915e-03,-9.798928193316244872e+00
6.844448703488132703e-03,-7.053050813736402858e-03,-9.791497689433327878e+00
2.698320635931654270e-03,-2.549677935634761701e-03,-9.788900884738003683e+00
-7.799280240285610434e-03,3.253521230848990635e-03,-9.787123466410855954e+00
8.694945767878277387e-03,1.929394004331309691e-03,-9.793841493355289529e+00
2.894289367896471510e-03,7.293228356067113852e-03,-9.791916471037794167e+00
3.144436873912140155e-03,7.183397757559699219e-03,-9.796321680188208703e+00
2.011356715078447144e-03,-7.877018332988282951e-04,-9.801396636620269831e+00
8.916778280715083327e-03,-4.542628809782442434e-03,-9.796079193078552905e+00
6.589795863800360955e-03,5.519895180888497246e-03,-9.784891125722213090e+00
-1.018789597754195296e-04,2.933941983322922893e-03,-9.804968913950144582e+00
-2.446406678057689785e-03,-7.592648345277963791e-03,-9.794968362467569634e+00
1.395628179743591641e-03,2.798568100187387442e-03,-9.795825519024264239e+00
-5.402331314617547960e-03,1.358873501622152261e-03,-9.795315480073817582e+00
-3.713871136845608729e-03,2.411983631565039229e-04,-9.797040349277136073e+00
-6.020014448151236571e-04,3.904116348008909027e-03,-9.791919297243989462e+00
-6.491438632534919824e-03,5.683073667518361190e-03,-9.792458032001263746e+00
-2.480602285578160232e-03,1.734915735310395973e-03,-9.794037070663179634e+00
-4.673595894634496048e-04,6.187148181671112135e-03,-9.794386992511293855e+00
2.110603084898285409e-03,2.393889246692536797e-03,-9.796171705596579571e+00
1.099657891858591557e-02,-6.659495300670647752e-03,-9.786448683219603595e+00
-5.966446191593396996e-04,-2.860451293859466674e-03,-9.794752135721472186e+00
3.388891330653698644e-03,8.797307093142057305e-03,-9.783132314178644151e+00
-1.351168111139259068e-03,2.644851288820625982e-03,-9.788676030562980301e+00
-8.398796238024612212e-03,-6.541698777833202666e-03,-9.783370629439620103e+00
-4.413475558958087318e-03,6.106185561367933560e-04,-9.792873509237926655e+00
-2.367166495537150785e-03,-3.546935082185193305e-03,-9.793206891985752449e+00
9.178050138170523731e-03,-8.059023305938355607e-04,-9.802743294415293462e+00
-1.949702276102258450e-03,-1.961231124740522944e-04,-9.799541294821702664e+00
3.836683465458298661e-03,7.069370569902184639e-03,-9.790670645756236468e+00
-7.401890393846503532e-03,-2.514881444320156249e-03,-9.788626725235120674e+00
1.493732285708378399e-03,-1.719443621561403011e-03,-9.788842784866286451e+00
-3.779474986837742930e-04,3.280400158716220878e-03,-9.788083029467548712e+00
-7.961611209285140382e-05,2.323700102632274365e-03,-9.791308892725510304e+00
1.109717627088554343e-02,-4.974716492024538854e-03,-9.794394554761241878e+00
6.065283372873591684e-03,-4.283116601460997333e-03,-9.792083803278757159e+00
-1.513550783911712678e-03,1.943405063315261066e-03,-9.793701198793634433e+00
3.157960793430757314e-03,2.385608480894592810e-03,-9.793148783014512304e+00
-1.600210617892916000e-03,-4.575649696561123227e-03,-9.794773985293346641e+00
-1.637255915190830892e-03,1.498321239521401569e-03,-9.791821654793716689e+00
1.831388593493235334e-04,5.350275365085891029e-03,-9.799934959397642587e+00
-1.953497531560120792e-03,-5.881593253537997952e-03,-9.801614393322045871e+00
-1.147572998180814395e-03,5.747036659159568579e-03,-9.790710104542023728e+00
-6.517558442818662499e-03,2.118155136706262667e-03,-9.795809449096790189e+00
1.457571653690456753e-03,8.615052469298679558e-03,-9.801166816026423589e+00
2.417306219545513422e-03,-5.422566032258538046e-03,-9.795620027153209008e+00
3.986969328489538235e-04,2.208786859574091068e-03,-9.793584040391621670e+00
-1.308287657915763527e-03,-2.981531077723509858e-03,-9.797710702928272397e+00
-6.482243608885491018e-03,3.127298736986746080e-03,-9.793169961572303350e+00
-3.731351389391881525e-03,-4.747358211946986137e-03,-9.793930658103763065e+00
6.627411947372182158e-03,3.944693368178888403e-03,-9.788974855507110107e+00
5.053171089809265241e-05,1.016463211082839664e-02,-9.784283786828417817e+00
2.411722860777325544e-03,2.432770944458919823e-03,-9.786705942719164497e+00
3.171302213339845764e-03,-5.547422484695662716e-03,-9.793995761872805517e+00
5.348586468044683531e-03,-8.877797109346684257e-03,-9.799462441772938348e+00
1.622767090969654772e-03,-9.266412969948880675e-04,-9.792519748176164995e+00
-5.379683042398417580e-04,1.472586534302071544e-02,-9.797233925583956449e+00
-3.455118903509883741e-03,-2.442065904490074192e-03,-9.784313699452567903e+00
2.659241989751878234e-03,-8.088509039971436554e-03,-9.793415283239358615e+00
-3.555744298690844199e-03,7.001900709708063289e-04,-9.792512863191991102e+00
-9.266239583510646385e-04,-8.151157961848674513e-03,-9.790644177202180387e+00
-1.814075243017733170e-03,1.077136074793559085e-02,-9.785824513728705654e+00
-6.460273370693192171e-03,-6.962224715140921671e-03,-9.793761890617055599e+00
4.142312582580557137e-04,2.616821648556623414e-03,-9.794352260904847896e+00
-6.012866163069518349e-03,3.004412690423453360e-03,-9.795980139673888587e+00
7.875932992606615377e-03,-3.862771234502741747e-04,-9.784808530406666094e+00
4.232959076989094467e-03,1.795745211331074235e-03,-9.787418263498169679e+00
6.017952848868055732e-03,3.129714029459189448e-03,-9.799039105991242948e+00
-2.042480906618046859e-03,9.421062051516908373e-04,-9.800195676553201451e+00
1.064528374635660170e-02,5.048001737713639185e-03,-9.801091033512035366e+00
-2.948385815755117084e-03,-3.398384229233159101e-04,-9.788034857799781108e+00
-8.221112071230966475e-03,-5.154715118731774230e-03,-9.790034223383766943e+00
-7.482423595073156748e-03,-2.447873337742671219e-03,-9.790561499607843388e+00
2.871726393345428938e-03,6.844673653316055888e-04,-9.794452912900224462e+00
4.507353745809223808e-03,6.151960745518468728e-03,-9.795782092646074801e+00
9.730887473077935463e-04,9.952456089806648379e-03,-9.794708161666187962e+00
3.660122981395107569e-03,7.028931264578480199e-03,-9.792739122498364424e+00
1.167603036900010521e-02,1.528397893147556176e-02,-9.799487224697264409e+00
1.548944824431119308e-03,1.487157917932082577e-03,-9.788686769487968675e+00
8.806605943550254974e-04,2.414653347955396379e-03,-9.784650705380078861e+00
6.894840979397100049e-03,2.710314373183796491e-03,-9.789596960914016321e+00
7.311440816426868598e-03,-1.726313889853878670e-03,-9.794906397795148933e+00
9.929425663600542976e-03,1.046668118153023727e-02,-9.803764558490156489e+00
6.881057382812577096e-03,9.497166836628743308e-03,-9.796704009387282142e+00
8.063600603739444483e-03,-7.790674342081007654e-03,-9.796621030494520710e+00
9.440958457706106685e-03,1.080334512174557261e-02,-9.792579590403262202e+00
1.110419233991764149e-02,-4.841081368208925706e-03,-9.792418621667543732e+00
2.197111064126816126e-03,1.124290334549537824e-03,-9.795695779150356941e+00
-4.979394588455164639e-03,1.527606384606353639e-03,-9.803351936193548610e+00
-5.563858099434874915e-03,-4.879953819481961698e-03,-9.801777205637852930e+00
-3.280225154278947584e-03,7.504149446275744546e-03,-9.791977814567347949e+00
-2.772772902524159311e-03,-5.742532153058133720e-03,-9.791428803080412635e+00
1.973684874089665087e-03,-3.432039686733872469e-03,-9.786980353238849517e+00
-3.378746918984661118e-03,-4.947228743990989171e-03,-9.783884143403483336e+00
-8.239766785163213890e-04,-4.044910597420471252e-03,-9.799116618580654858e+00
6.604929854267423128e-04,-6.236739448734276992e-03,-9.798889217315560174e+00
1.116261176023269647e-03,-3.613959480773801984e-04,-9.791671613918413897e+00
7.087767177972143125e-03,-7.259888909081763791e-03,-9.799527313284482233e+00
-3.690255919347224141e-05,4.992536169663817393e-03,-9.794850359704129872e+00
5.802844682936635773e-03,3.835010630162091153e-03,-9.788607360019572212e+00
7.840039697644695955e-04,-3.316351589834606872e-03,-9.796560541746286432e+00
-2.361968884910672830e-03,-2.320019051989364624e-03,-9.807429686070257446e+00
2.064944568421476102e-03,-4.108794789366244059e-03,-9.796652088057555829e+00
-2.032153670461455102e-03,-1.246020660414367967e-03,-9.785927776035245884e+00
5.464318466800390135e-03,6.183483333274713417e-03,-9.798833049530756512e+00
-1.784107469378014375e-03,6.639636700068407733e-03,-9.798364123345798760e+00
-2.459927294592689426e-03,2.752624988448136665e-03,-9.794895380726185152e+00
-8.997918507544281491e-03,1.292946113965616137e-03,-9.798879730163099211e+00
4.920775029417857101e-04,-3.472373323334408679e-03,-9.792935126224342923e+00
-1.337763365868497667e-03,-6.413067976066885896e-03,-9.791837538330344870e+00
-8.407694323212374027e-04,-2.093079509476855095e-03,-9.795063582406850600e+00
-1.509472323039801230e-02,4.379265520549553356e-03,-9.787678950080612950e+00
6.253232961846481863e-03,2.149888312686968304e-03,-9.787859797415354279e+00
3.014028400525603762e-03,1.864566228589555931e-04,-9.797108059609147546e+00
3.329439782083441204e-04,1.723718930018422035e-03,-9.798824127656789784e+00
2.377184974888552332e-03,-8.154473076905631793e-03,-9.790673796346537117e+00
3.262130601137142906e-03,-5.053601618063564317e-03,-9.794551645679179686e+00
-3.099795691328368057e-03,2.636637874230392774e-03,-9.788947071385894816e+00
-6.522396241018952809e-03,-7.782374530367926549e-03,-9.794211972529410559e+00
1.909440776867186995e-03,1.261178543621445337e-04,-9.796530761739353110e+00
-1.820614503895183738e-03,-5.002782800599163242e-03,-9.797662879740242303e+00
-3.631417038599390242e-03,1.957907625022419721e-03,-9.792347808340499782e+00
1.621913298120184789e-03,-3.258978490092448010e-03,-9.788590642091927307e+00
-5.146294212852236746e-03,1.943247290159617630e-03,-9.794871718739742050e+00
-9.068635340298378689e-04,3.339985756463976271e-03,-9.794454761790351682e+00
-6.824548469926505420e-03,-1.320524048152473852e-02,-9.798106641821702212e+00
-1.493569574156435866e-03,6.485640677890353208e-03,-9.791069653294588448e+00
5.984015683030776550e-03,8.376451940230058776e-03,-9.798295126363422369e+00
-1.170080210154839095e-02,-9.349028150002679444e-04,-9.791051347630162383e+00
1.405321920205835967e-03,-3.109041584653707713e-03,-9.798542303008401788e+00
2.963279102181444816e-03,-2.926224171529792813e-03,-9.789221810375122956e+00
2.485498167922266851e-03,1.262835205456979033e-02,-9.803057887517743652e+00
3.240874269942046939e-03,-4.145147729861092638e-03,-9.797716477081380049e+00
4.390205372981747373e-03,2.019477099475335512e-03,-9.787968863377347617e+00
4.103765796677047786e-03,7.745188422854436434e-03,-9.794838798838094718e+00
2.325521645034724950e-03,2.672918799032184423e-03,-9.793122511820762099e+00
-2.302717020886016139e-03,-2.301427787672950288e-03,-9.799502522302427465e+00
-8.127567433139384206e-03,3.855774274147123586e-03,-9.800443482615335711e+00
2.990134432694754787e-03,-1.800696761891473156e-03,-9.790160034604417305e+00
8.751708923923811126e-03,4.181513909039438759e-03,-9.794071757718866067e+00
4.485150199915706633e-03,-1.545852463057994629e-03,-9.803488682590355552e+00
1.113167099423286637e-03,-2.794820863948452652e-03,-9.794549723504289318e+00
3.563719170330407245e-03,9.990133622603401993e-04,-9.790992814962763191e+00
-2.245881726152212932e-03,1.095248529554009205e-03,-9.794533544961032234e+00
-2.239583439904495495e-03,8.337322517066285063e-03,-9.790831726646363364e+00
-4.178723965003917559e-03,-3.116384530764276968e-03,-9.789589348106071398e+00
4.558821811129434680e-03,2.442611260054163881e-03,-9.802265592781973069e+00
1.521782446070764263e-03,2.517328873020031367e-03,-9.791083439108980713e+00
-6.116188937622121053e-04,-2.215840471267385529e-03,-9.793088652891494661e+00
-1.654796580850445911e-03,-6.620889208599315366e-03,-9.788029004027121616e+00
5.393804294630605810e-03,5.289985048869992124e-04,-9.788567969988932305e+00
8.288569397639692846e-03,1.896086521542714133e-03,-9.783814452916988813e+00
5.364299080076643557e-03,6.299805177508350368e-03,-9.795899951152540197e+00
-5.246726825631144349e-03,-9.751262798041190547e-03,-9.793415485726013614e+00
9.058409816511259335e-05,5.487523238184845338e-03,-9.788714125606858829e+00
2.478684146740667022e-03,5.796963185257065576e-04,-9.791848833107332339e+00
-2.280489685912234690e-03,3.333158084624509351e-03,-9.787183396406105018e+00
-4.412201078667640254e-03,-4.141883890686938116e-03,-9.799401895707646304e+00
-8.162790255833593522e-03,3.366026563334334303e-03,-9.800361613250828441e+00
1.160507706801698190e-03,4.160271570316158123e-03,-9.786122302065084710e+00
3.161943985266939608e-04,1.853946277411861474e-03,-9.799283324603541345e+00
-2.152088056496989730e-03,5.414830841211715554e-04,-9.797369775578614437e+00
3.204159227295207222e-03,-5.120166786250668518e-03,-9.786925699382639010e+00
8.581350533316326606e-03,5.204668276117893275e-03,-9.795553074103180435e+00
-8.531045967433727433e-04,-3.908923407873776332e-03,-9.787115365815013845e+00
-1.471161868981135656e-03,3.906893378989365756e-03,-9.792736519784343230e+00
2.662826119764516745e-05,2.997852797700080105e-03,-9.792688838698012432e+00
-4.032891153154284647e-03,-3.009469550985391720e-03,-9.792840996942850040e+00
4.615976894621833145e-04,-7.763244252004163938e-03,-9.789446613271129749e+00
-3.368301165983491035e-03,-3.391978127116960541e-03,-9.780879842834384164e+00
-7.659746713506957339e-04,6.717552353917050946e-03,-9.798126530133385970e+00
-7.760080159488821384e-03,-4.503966146283563260e-03,-9.792407186856021184e+00
-3.648483039648045372e-03,6.644545297113094509e-03,-9.798380110679934418e+00
-4.311819925308440701e-03,2.988088412681648258e-03,-9.794253972193377678e+00
2.499423223068288416e-03,-2.039611944891280438e-03,-9.786995512816366372e+00
-1.794133566646575638e-04,-5.759518073264739690e-03,-9.795353559819734102e+00
-3.960855380527762183e-03,-4.661136049881994987e-03,-9.808254348372130949e+00
-2.202525450443331822e-03,3.181812083461597017e-03,-9.792460225135194207e+00
-9.393003016172530792e-03,-3.141950584806624258e-03,-9.788630970227176320e+00
-2.469690880764484862e-03,3.739721177111475763e-03,-9.797823263971679353e+00
4.774337377969053650e-03,-4.392586931260393859e-03,-9.790097317908184493e+00
-2.588006957539610003e-03,-5.477820339630600117e-03,-9.794706054952877494e+00
-3.164275882135358063e-04,-6.611127501475090465e-04,-9.789144950038791038e+00
1.989359209149079571e-03,-9.551936960322505131e-04,-9.793273844923827909e+00
9.475337297744084071e-04,6.985001177409125815e-03,-9.793327954100107036e+00
4.821350580058126820e-03,-1.073061904902010248e-02,-9.791970429396403830e+00
-2.270254875978792303e-04,5.241672591089047671e-03,-9.787622307050948933e+00
-3.188685667004227588e-03,-2.338589568716158227e-03,-9.797093380578102639e+00
8.541153093381950723e-03,2.366784672001702363e-03,-9.798494812976320745e+00
2.406954879307991973e-04,1.165013916079314302e-03,-9.798659502946959421e+00
-2.779055371647408054e-03,-9.526314993871716832e-03,-9.792640821769978743e+00
1.293502172325531642e-02,-7.403324966000083066e-05,-9.792068645230164847e+00
7.717331215313612443e-03,3.366464861136390062e-03,-9.789019848310362093e+00
-6.664002007786099489e-03,-5.429386718999882656e-03,-9.788260221738449118e+00
7.173822510448280704e-03,-5.857273012926217035e-03,-9.800387880809518393e+00
1.414606317062968438e-03,8.013066198897420347e-03,-9.800551690933003712e+00
5.937625087351554136e-03,1.618595635588848062e-03,-9.797608120512158791e+00
-4.570466127270002288e-03,9.919034192910356276e-04,-9.794245634384090238e+00
-4.785763032728000167e-03,1.908404831873119481e-03,-9.786642818729184512e+00
8.324417624324858059e-03,-8.662815600483790221e-03,-9.796219463971318930e+00
2.119990865674449641e-03,-3.989805935480539301e-03,-9.789578213706889187e+00
-4.325541095795147443e-03,7.897160569335592850e-03,-9.796316600940661701e+00
3.381259229606762597e-03,1.525252392770709998e-03,-9.792952850420665101e+00
-2.051980516689790035e-03,3.510140717089568849e-03,-9.792193076683917141e+00
3.695931280062768939e-03,6.933392991925847910e-03,-9.796100695549002424e+00
-4.062999464632751842e-03,-1.469741931915636776e-03,-9.787883538911284376e+00
4.633971453174885388e-03,-1.243976134377863590e-03,-9.806935272559732297e+00
-4.374611400399384259e-03,1.118543857568541407e-03,-9.789227189568107335e+00
2.577012460729366169e-03,3.118455484562920182e-03,-9.791341423116241671e+00
-7.418996527401644676e-03,-1.394414312174783706e-03,-9.789881087218573086e+00
-5.422432492897234779e-03,-2.398237876377450322e-03,-9.794689720566660540e+00
-3.495268397696084991e-03,2.912696200762483235e-03,-9.791295364942133261e+00
3.306430832799703290e-03,-2.077991308548897322e-03,-9.793206758375102794e+00
-4.547340551028741275e-03,-8.257452869801562567e-03,-9.791834021022063794e+00
1.190404942741910520e-03,-1.577029198802694333e-03,-9.794415547385330711e+00
4.731445728102755960e-03,4.448484706194083191e-03,-9.799234178200517675e+00
-1.347664965173911000e-03,-9.991121982082411864e-04,-9.793306200214685120e+00
-3.960903358840582242e-03,1.072239414134390522e-04,-9.793900567325543705e+00
2.037104171857688321e-03,5.774657677941021777e-03,-9.793313943588614734e+00
3.754555355317507970e-05,6.878805646783987468e-03,-9.790510926411400305e+00
1.915554235679899509e-03,-7.742675400441405807e-03,-9.790605389022221772e+00
-2.461722044496957723e-03,-7.925140684062205107e-03,-9.802536715501300790e+00
-1.436864634949842207e-04,-1.209831503459497370e-03,-9.791885958715351279e+00
-4.445310973159494888e-03,-7.905721504078359885e-03,-9.793276581049179086e+00
3.308690640452500911e-03,-5.735277061801965668e-04,-9.797855051764024381e+00
2.232893528210698822e-03,-3.556817863866651701e-03,-9.793204247537893536e+00
4.745957009708728046e-03,-5.154974939092284722e-04,-9.790395730244936701e+00
-8.748226931791612407e-04,-1.529740142304043902e-03,-9.792679966586936402e+00
-7.842758405128992874e-03,4.385673918506843372e-04,-9.792699692994331073e+00
-3.786093503462148414e-04,3.318983978735054550e-03,-9.798716135267129701e+00
4.026748371634574267e-04,-6.550208785094186132e-04,-9.788165215980253464e+00
-6.093654239693811238e-03,4.653708084523092733e-04,-9.789766666437207832e+00
-4.474800317280186630e-03,-7.756560405211437338e-03,-9.797364514120749490e+00
-1.832638439658191946e-03,-3.250154283961046841e-03,-9.781083055873489585e+00
6.577827254252851044e-03,5.678468129297360029e-03,-9.803976647552893553e+00
5.157691486435946049e-03,-2.919150740561276929e-03,-9.791125900947772465e+00
7.134271803646375330e-03,6.434052296535744744e-04,-9.796324968638728592e+00
1.074752870790789735e-03,2.523213078062813437e-04,-9.792175540841178361e+00
2.427449315331286182e-03,-4.075446033069163657e-03,-9.789457491644730780e+00
2.206327643176614946e-03,-4.894191282693491005e-03,-9.792726817150365193e+00
-2.818987956442035175e-03,7.302200086031426784e-04,-9.791119020646821269e+00
-2.290458967107759751e-03,1.498637298231422429e-02,-9.792338775035707599e+00
4.191374978178191539e-03,4.193509580926354542e-03,-9.794206540624660562e+00
4.802869226487559151e-03,5.366285624116288100e-04,-9.797258677885221090e+00
-6.163154737791193272e-03,-8.332546043791538891e-04,-9.795065083257670224e+00
-2.870440010424031574e-03,5.824447294753534038e-03,-9.796157445716870527e+00
6.672903634902065378e-05,-3.723331114458134673e-03,-9.800405105984216547e+00
3.787273537398541212e-04,-4.677655170112521472e-04,-9.790545879240488247e+00
9.760391886540298410e-04,-7.155524353494127111e-04,-9.791974135786722044e+00
-8.867178725755405291e-03,-6.238063958352972789e-03,-9.792722027131064877e+00
1.404232764814804853e-03,2.509774245446095078e-03,-9.798573729726374637e+00
-3.183772293709449634e-03,-1.610423021422652430e-03,-9.800387122493058101e+00
-2.778707849081995303e-03,5.493876294983762211e-03,-9.787212899328848081e+00
-3.036934199938290131e-03,1.499222671391509804e-03,-9.796056702784447623e+00
4.490168404231035040e-03,-3.715248192371664593e-03,-9.792262868719133095e+00
1.261149649903895061e-03,7.156875094696975564e-04,-9.794752496584669288e+00
-5.647942481145967232e-03,1.557951887302377316e-03,-9.800173705161247639e+00
-2.088773253758329819e-03,-4.097772513195723290e-03,-9.784558045567685269e+00
-7.371534993841598327e-03,3.568957033335950525e-03,-9.791476989489195759e+00
3.591785343289082173e-03,2.520109242130831421e-03,-9.799344697189122044e+00
-1.142612857077639644e-03,5.667054470242739207e-03,-9.789074858403170154e+00
-5.833424255658756566e-04,-2.704119035671624562e-03,-9.787015650393701804e+00
4.332791295772817595e-03,3.311030341553776110e-03,-9.795109715061087741e+00
-1.150712759885229308e-03,-7.216883652543614955e-03,-9.792723968337435636e+00
6.622176721664901899e-03,-1.426692802592583560e-03,-9.803296496177107855e+00
-4.905195063238263148e-04,2.785683787616203763e-03,-9.796038988014975857e+00
8.347286914624615830e-04,-3.562917155652412481e-03,-9.798182599349331667e+00
1.777789717863185234e-03,5.564131961739036437e-03,-9.799992000250963287e+00
4.681835826723520014e-03,1.252586531728302642e-03,-9.799021248360244130e+00
-6.433711136732886242e-03,7.703861814120368558e-03,-9.792537496310647072e+00
1.387982203553001122e-03,5.352281270517510701e-03,-9.789872202318825600e+00
4.509536498463320719e-03,8.573014001751984303e-03,-9.802436509934656428e+00
-7.177141646472781286e-03,2.035101580667758332e-03,-9.791173803225881045e+00
5.168896389476297648e-03,5.808264639711397184e-03,-9.796020581455067600e+00
-4.235129235215664457e-03,-6.657802995666666293e-03,-9.799598459574665910e+00
9.884396950738242628e-04,1.151525177319339018e-02,-9.796558704918556515e+00
3.345952681823277652e-03,6.522154927415470434e-04,-9.789374486939108166e+00
8.527531102033676300e-03,6.520253918678707919e-03,-9.788120889788766377e+00
2.767447901310761838e-03,-4.584208380203253635e-03,-9.796100054286668524e+00
-1.829581996687791373e-03,1.943039373653224601e-04,-9.799887625837691019e+00
-5.974431417061876019e-03,-5.147718841459932027e-05,-9.784032996794374881e+00
4.598826331017463742e-03,-3.125987458944586538e-03,-9.788971925192537782e+00
-8.984157171213535964e-03,-2.234793961861789979e-03,-9.798178669439318256e+00
-3.463624514791636619e-03,-4.700407091314055472e-03,-9.797225125187873473e+00
4.066774815786022498e-03,4.038185380898883306e-03,-9.800214472325400550e+00
6.941010925807745632e-04,-3.361354653294802361e-03,-9.789412987005492894e+00
-3.351343276109682544e-04,1.243763243693626853e-03,-9.795006031117583944e+00
-2.401170664196428540e-03,3.516223804207610840e-03,-9.802266746133062369e+00
-1.660250710342856418e-04,-6.765954812288002725e-03,-9.802896481098049009e+00
-1.071201425184838997e-02,-1.680975148452469418e-03,-9.784733947546003563e+00
1.403462398275458038e-03,3.364568443552790056e-03,-9.787579960013648162e+00
3.740353392892871963e-03,5.142314648288601880e-03,-9.801438286261690891e+00
-2.702504985686877276e-03,-6.010793001839228808e-03,-9.794589814304742958e+00
6.690564796431466323e-03,-1.788116241851851881e-03,-9.796012586041729975e+00
-2.858475773974082819e-03,-3.362765768556148609e-03,-9.792869685343474018e+00
-5.186040919831481867e-04,-1.315306405334137809e-03,-9.790733226561625813e+00
1.763045310808257146e-03,5.333980756375767025e-03,-9.792771438144747265e+00
1.105150101831670062e-02,1.841340317326703880e-03,-9.790609782761581670e+00
-7.481817650984757834e-05,-1.286217281222884999e-02,-9.787310939498038209e+00
-3.461304963091966971e-05,-3.340486433908676500e-03,-9.779524254565199470e+00
8.886640649107862416e-03,1.228835023108653616e-03,-9.794083504984428146e+00
-6.821207626550362729e-04,-2.763347138343447574e-04,-9.800120906093914286e+00
-1.801761624919303185e-03,-8.341982558176815055e-03,-9.795418145287266398e+00
-5.165437371464432284e-03,8.879915513665332868e-03,-9.792987367527373976e+00
-1.049913954359660284e-03,4.057309629789015472e-03,-9.799782373229898980e+00
6.831270543934673742e-03,-1.732647595094967581e-03,-9.790217327011649928e+00
-1.118079854445715258e-03,-1.060333007107203823e-03,-9.805462805674030946e+00
8.157685483974209256e-03,5.836101728514409177e-03,-9.801676801624671143e+00
-8.362529499802087360e-03,4.369287507830835020e-03,-9.793606953567758566e+00
3.481601861424923113e-03,-9.043079201868302981e-04,-9.799735816854511228e+00
-1.583362345187323220e-03,-2.263707424572374872e-03,-9.795753983424853928e+00
1.194052330791823061e-02,3.824399190611626771e-03,-9.790602774948746756e+00
6.910788986765186446e-04,6.906226276693342402e-03,-9.798812709707881652e+00
2.104376462691677756e-03,-1.937341045586675470e-03,-9.799726439928162947e+00
1.691811270839744174e-03,9.459677924390187329e-03,-9.785931790875084246e+00
5.215495144748081256e-03,6.713982939768887992e-03,-9.811531727465512276e+00
-2.846436350709215073e-03,4.279278217523863580e-03,-9.794223328497253078e+00
6.979729677059028255e-03,4.336916668876981268e-03,-9.789887069169754596e+00
8.022582773783783899e-03,-2.914267088750014615e-04,-9.798739323568112169e+00
4.953590966696386905e-03,3.210141798678418229e-03,-9.790900226288608010e+00
2.929529124351285072e-04,-3.233653646026416785e-03,-9.787952381929351020e+00
-7.759115249204357259e-03,7.724646034972151420e-04,-9.800180582956887321e+00
1.185298421440540663e-04,7.762608250372188962e-03,-9.791119277185213576e+00
8.447699032505216754e-03,1.640253901939971214e-03,-9.793563208316053093e+00
-2.819717109780954523e-03,-4.417040281611297331e-03,-9.790238399095752442e+00
7.165004877921977294e-03,-3.307986863303814026e-03,-9.785853629610883786e+00
1.381646073806799910e-03,4.768967836130024417e-03,-9.790404355113267343e+00
2.868313250706610359e-03,2.000729595869913877e-03,-9.791653746418777615e+00
8.127669912259175011e-03,2.665592064498849018e-03,-9.796135450099050956e+00
4.320983789711848461e-03,2.025621770034322436e-02,-9.796139063013947990e+00
-3.719643406128764641e-05,5.777651870237274570e-03,-9.788273308127591221e+00
2.307188869371540850e-03,-3.561878092462988747e-04,-9.790027605617712680e+00
-6.440450598684812136e-03,-1.715748614894007252e-04,-9.795759941557795614e+00
-5.067990054031059656e-03,-2.159251294615858238e-03,-9.800367981414007446e+00
-4.187102258731358224e-04,-3.276526247451940540e-03,-9.799462568526228878e+00
-6.896017363404851946e-04,-2.766818861036481145e-03,-9.794698305303933594e+00
-2.442212974267830503e-03,1.480031326226543750e-03,-9.794092561964781396e+00
4.950960102188858413e-04,5.981505419214651516e-03,-9.792185364976514705e+00
7.631388965492308081e-05,7.812545693011615708e-03,-9.788170151533199359e+00
-3.151004954732417040e-03,3.707227296624999308e-03,-9.790626870878080368e+00
6.192918964349047178e-03,1.742345388747222092e-03,-9.788803658809449360e+00
3.594123354458106379e-03,8.811556956432714180e-03,-9.797789925902788966e+00
9.181784321074108399e-03,-3.958747309363120498e-03,-9.791678101012447399e+00
3.414845409845688757e-03,-3.074417832183694646e-03,-9.797960648522373361e+00
4.491655574650393890e-03,1.693177275719341159e-03,-9.795918993298455391e+00
7.490432447071779330e-04,2.040870806245522352e-03,-9.786380281686563265e+00
7.628540489605446957e-04,3.475163250013820707e-03,-9.796065518432833130e+00
6.957058878521627313e-03,-3.237538322618419701e-03,-9.800870127389341491e+00
-8.047760782570361968e-03,-2.676270384944497410e-03,-9.799133232690413919e+00
1.693127179269367580e-03,3.420722102314484314e-03,-9.795188288773641005e+00
7.012775060154872141e-03,-5.795265900451580451e-03,-9.792034284828096347e+00
-4.082236407493205349e-03,7.743761335516059861e-04,-9.792597773600489219e+00
-5.720203438499060072e-03,2.884680119094973176e-03,-9.793813396163134399e+00
-1.280809035476552539e-02,-3.390312559851195494e-04,-9.799522100420935189e+00
5.951183854947028617e-03,-3.934382925858249599e-03,-9.797996856221011797e+00
3.730176962753093371e-03,-7.871767104406396723e-03,-9.787822584213675015e+00
2.155625919253048670e-04,-7.402837752500340904e-04,-9.792015159735809604e+00
-2.019503867749442363e-03,2.866459519960185172e-03,-9.792511069353825093e+00
-2.040651459216796196e-03,-5.444724461235154848e-03,-9.794644234904801294e+00
-3.045107871045329420e-04,2.665539935417486281e-03,-9.794601388448780810e+00
-7.678330196942598218e-03,-7.562159701432336414e-03,-9.787582322669072354e+00
8.398804246594187076e-03,3.649375067504748160e-03,-9.798670924458550147e+00
-2.333084380257296163e-03,9.296607864509363536e-03,-9.791771236666194866e+00
6.604126812160724183e-03,-3.808398815538710947e-03,-9.785636535309377493e+00
3.328717564687434967e-03,-3.426934652742836315e-03,-9.803689590707890034e+00
3.206974287801075529e-04,8.431416136809291931e-03,-9.791677128595621227e+00
7.624751819328872467e-04,-1.768737015927647049e-03,-9.792705389156308726e+00
-6.596134168783412619e-03,-4.603592760929017813e-03,-9.789961568136320125e+00
2.893919634205056532e-03,1.760523152184589749e-04,-9.794912991347226594e+00
1.479687373363064960e-02,1.708094099744320721e-03,-9.796501871565913788e+00
6.979128759967278585e-03,-1.132331216463135486e-03,-9.790117402886579612e+00
-3.068637935363151877e-03,4.619583502314083580e-03,-9.790510270452202235e+00
1.333026833696488323e-03,-1.110246998999542441e-03,-9.786218035665717352e+00
1.882568430487644058e-04,6.141860019086628833e-03,-9.797690221502502794e+00
-1.340729084372746125e-03,-1.840032044079077753e-04,-9.789627502089896183e+00
3.569587606252733279e-03,3.234151018450372519e-04,-9.800148691775193655e+00
9.815607983729296437e-03,-1.458266295740456376e-03,-9.798644481230898151e+00
-5.066442574538899089e-04,-1.037739408250564800e-02,-9.796946424768377071e+00
-3.768839390155796082e-03,-1.598643702033570018e-03,-9.789645640288730633e+00
4.030785344364340265e-03,-2.053836191145503361e-03,-9.794097075855258794e+00
9.121990449430530945e-03,3.061551061877459457e-04,-9.787976390442963748e+00
-2.773388729190275764e-03,-1.892074311051396545e-03,-9.797400405753267094e+00
3.939701680159912213e-03,1.153902001263275127e-03,-9.794637729389320313e+00
6.989446702526657361e-03,-8.957656575347647818e-04,-9.800018525967718830e+00
-6.444533354267615796e-03,-3.884708380223188609e-03,-9.792306900602387287e+00
4.118041512883021012e-03,-5.990027095596755537e-03,-9.792541997300528323e+00
-3.899010512535219623e-03,-1.950667424992150525e-03,-9.795155219804756896e+00
-2.930975822550562111e-03,1.474005560619654018e-03,-9.798798772481811525e+00
-3.588763603749878239e-03,7.242785949511179600e-03,-9.791656974129709923e+00
-7.279998780990624366e-04,2.169750631228047500e-03,-9.800532721627121191e+00
-3.650662556844346072e-03,4.231441260963252592e-03,-9.784380268996544672e+00
-2.266019043818827232e-03,5.762836843256567134e-04,-9.790693507110757920e+00
7.778808839876642095e-03,-2.374991796232748045e-03,-9.791771891221802804e+00
-2.068255605791573118e-04,7.141641941794625364e-04,-9.794286570443437867e+00
9.049141046964618304e-04,2.932547681436489459e-03,-9.790990477120002922e+00
-5.572561528020587721e-04,5.934319455839585228e-03,-9.794234788756314813e+00
-5.490714189978478967e-03,3.297778763851521439e-03,-9.796802212914066388e+00
1.477354545017365434e-02,-3.012096356159818132e-04,-9.798891809387992424e+00
1.171613561749240608e-03,7.383243155978928178e-05,-9.793149635268505904e+00
5.639373425451889472e-03,-8.453290788168490999e-03,-9.798546344417649934e+00
1.201603254098413190e-02,8.626869499377950784e-05,-9.806115205770833398e+00
-7.688832493978364768e-03,4.013295601663488185e-03,-9.784533827654650295e+00
8.405750056883234261e-03,2.687333792674498605e-03,-9.794808135876392541e+00
4.075287604092829932e-03,7.232390944263532816e-03,-9.793605035111596635e+00
-7.907779188701035897e-03,-2.018661723145046601e-04,-9.789042787742930685e+00
6.416528229016825804e-03,7.954576971096137192e-03,-9.788438816064514825e+00
3.956463074639392230e-03,-1.681379581518652883e-03,-9.785792714097389933e+00
-2.794872665176567801e-03,7.589109080705327103e-03,-9.798847194035525732e+00
5.673460564104806231e-03,-6.244978176083240424e-04,-9.804897992636687931e+00
7.053242956143598256e-04,1.839362174636291957e-03,-9.798267375299030135e+00
-8.199866195754485637e-03,4.788691811684647748e-03,-9.793117540883415018e+00
3.895178686766712084e-03,-5.020109629701037871e-03,-9.782513248326434763e+00
6.416610303065221031e-03,2.371398185445542858e-03,-9.788632827830470617e+00
-3.943795245859704930e-03,-1.520472744216537714e-03,-9.791675533836896150e+00
6.140590074163764997e-03,5.867200315080993780e-03,-9.791309483390991275e+00
2.800333301502613576e-03,6.278930327115307339e-03,-9.799556933311482254e+00
8.136426693847544946e-05,-1.108380330535282477e-03,-9.798126949890905379e+00
-2.502329391933266409e-03,3.995636139494697370e-03,-9.794515239679547847e+00
4.267980215450426808e-03,8.999645088255422629e-03,-9.798487949815102738e+00
3.770869909708226327e-03,2.442950020162919234e-03,-9.797892055076195206e+00
1.185260712860692180e-03,-1.834263097383097285e-03,-9.792773581551667661e+00
-4.598866034188113993e-04,-2.953519275475578916e-03,-9.793750095865176419e+00
4.995179269069125252e-03,-8.658236242111856315e-03,-9.793603675289094923e+00
-9.264399302002568337e-03,-3.993251825141858231e-03,-9.797962532700843497e+00
-2.505906353006985641e-03,8.348989335589992664e-03,-9.804265970204809832e+00
4.292679907423576149e-03,5.333831172858486888e-03,-9.791374477018955247e+00
5.126625104757826651e-03,-3.082853656974715497e-03,-9.800115024298394317e+00
5.240288882411850251e-03,4.868222373133240626e-03,-9.785168640558872255e+00
4.211935227457704566e-03,8.555240877344747613e-03,-9.793541958734888198e+00
3.265088266672577441e-03,9.019836929469907116e-03,-9.792014301952036703e+00
2.952850866459240213e-03,3.702739695167110105e-03,-9.798675717205268754e+00
1.366918345156188305e-03,3.671833473538135568e-03,-9.790752023832334672e+00
-2.437214325372649010e-03,-7.291436565336031558e-03,-9.789243719285925849e+00
1.528757459656156833e-03,-8.678650150877574316e-05,-9.792931908189078882e+00
6.300513287353242536e-03,5.130383345522569402e-03,-9.787409381811640330e+00
1.026507040598338520e-02,7.745800944427730199e-04,-9.800821030759898633e+00
3.672761373135562026e-03,6.586618305434716394e-03,-9.799691393094148495e+00
-7.848238774182486567e-04,3.090642562795446746e-03,-9.781554783207237591e+00
-8.004173718113072322e-03,-6.890250060695996947e-04,-9.789146446561963089e+00
-5.046849089847299692e-04,6.372204413075083056e-03,-9.793964393958844994e+00
2.965401029709013349e-03,6.433043525396428021e-03,-9.797535295545660716e+00
2.819135100082711173e-03,-1.219276390807196540e-03,-9.792958953166225555e+00
-1.820619388872823799e-03,9.686541584488790602e-03,-9.792903081076206107e+00
3.770194562104130752e-03,1.912322168750960625e-04,-9.800020279399264567e+00
-6.572106013329841873e-03,-1.222925008015584864e-03,-9.785297744648165263e+00
-5.528441259287538963e-04,6.228773459075681064e-03,-9.791611132401845552e+00
8.604565594858238839e-03,-8.601564752305979793e-04,-9.797062608891234703e+00
-6.176187225977869746e-03,5.053914694065620578e-03,-9.800171587882548607e+00
1.153424961210342556e-03,6.788030385873192359e-03,-9.794462918879229818e+00
-1.271666800113696507e-03,-2.871873023949946240e-03,-9.797148360186513472e+00
7.685884705511066700e-03,3.076344242579131649e-03,-9.800004164269996210e+00
1.738677890479342061e-03,-5.447019009889799909e-03,-9.790852114509643656e+00
1.669415855894377122e-03,7.148461838303381624e-03,-9.788967073686174913e+00
3.210576346945150702e-03,-1.182028576218808243e-03,-9.785658290177360996e+00
-2.867960137429281624e-03,4.253825270967149901e-05,-9.797712645437714585e+00
-2.519298662004528563e-04,-3.874433137525791146e-03,-9.793736276445871525e+00
-7.345823099522903396e-03,9.274406186076842099e-03,-9.792878408102362542e+00
-2.931504521005385243e-03,-8.185276900985903516e-05,-9.786283505248640324e+00
4.958902668635447632e-03,-7.295183649461511703e-03,-9.792920193348390256e+00
2.407004881164444277e-03,-7.692499270295289834e-03,-9.800993050151836528e+00
4.460706110518403503e-03,-1.335269321929900528e-03,-9.796755734802614413e+00
7.727461745951260536e-03,2.509767396853939889e-03,-9.791330206647085532e+00
1.988655285617366326e-03,-1.888654433328059660e-03,-9.788440307336159663e+00
9.471070410410899545e-03,4.989613621831915334e-03,-9.787446350140315943e+00
3.277283179146090516e-03,2.408342716714288994e-03,-9.794388737555751234e+00
-1.150514189705261967e-03,-3.830855760731513137e-03,-9.801475300740822405e+00
-5.981238738537986675e-04,2.883487070233053430e-03,-9.795371609489658127e+00
3.979862974152174535e-03,-1.311211453102611047e-03,-9.798332484930494246e+00
-3.160671491927712854e-03,1.115694276310695912e-02,-9.793035516845712607e+00
5.379844133640108474e-03,-4.282134582936863000e-04,-9.790033388699374228e+00
1.221402630543302371e-03,2.372292516217626608e-03,-9.792027466866198182e+00
-7.141884956626172627e-03,6.530573999585855514e-03,-9.799817737854953137e+00
2.559951912074918175e-03,-5.418094285063556996e-03,-9.793402555071757831e+00
2.163526557250088555e-04,3.829067941617547623e-03,-9.793262122274599690e+00
-2.389133867574273588e-03,5.661329874240832172e-03,-9.806056842306317023e+00
-7.799960567369914818e-03,1.855798919342193059e-04,-9.791536768622577824e+00
-4.377140307982640760e-04,-1.173606784294829383e-03,-9.790227708972983223e+00
5.764079751252763201e-03,7.475266517857846391e-03,-9.798752030585191619e+00
-4.118502158642986348e-03,2.535538226282245487e-04,-9.793401207974453015e+00
-5.475451397306237492e-03,7.403094541825000485e-03,-9.791824623514640891e+00
-5.230263524636328057e-03,1.267519258200119209e-03,-9.798052674804432982e+00
4.864525224645037567e-03,1.849715462954623028e-03,-9.798530570522739680e+00
2.903311109448098587e-03,-1.941216806759674205e-03,-9.793343347695465440e+00
8.985997545071721174e-03,3.624624145170696980e-03,-9.794981852634139230e+00
-4.222967830108602730e-03,-2.386115089095414490e-03,-9.794169611451300383e+00
-2.824164066026197632e-03,-3.263138830583801019e-03,-9.805963306294326998e+00
2.286710329881135820e-03,-5.628987215983250608e-03,-9.794518080446851016e+00
-1.894106706707997245e-03,-4.015772724129989396e-03,-9.791833079570372078e+00
2.678004962751967880e-03,9.811703189175432008e-03,-9.799875469431412967e+00
2.015831534042212842e-03,-5.327877128371881661e-03,-9.794230352726181366e+00
1.712796647479270309e-02,-2.268926084326343753e-05,-9.794311406605467951e+00
2.084669967176683400e-04,5.279792291005271261e-03,-9.797817195378522470e+00
7.003559350560384020e-03,-3.710603798719529136e-03,-9.787821230504917480e+00
-5.510799782892645063e-03,1.255039206449000367e-03,-9.789656336905112610e+00
-7.165719234358098114e-03,1.058567298069442060e-02,-9.782871444009931139e+00
-3.335675687371734803e-03,-1.904721423875860254e-03,-9.790254699224538726e+00
1.847654948760840514e-03,2.737591550268925634e-03,-9.784632594401774242e+00
4.366835841491634521e-03,-5.281741845531708838e-05,-9.799494979442108900e+00
-5.912876287323857484e-03,-1.722978721277871206e-03,-9.801619091417231644e+00
-2.137831582460653686e-03,-4.621200826363160846e-03,-9.800571836498003009e+00
4.344398709922276530e-03,5.649912910753117877e-03,-9.793924010699354810e+00
-1.524326821904489022e-03,4.428873934182211460e-03,-9.796210497878689694e+00
1.017522465040321053e-02,2.496163607041454024e-03,-9.802578238129155963e+00
-9.224082561279356961e-04,-1.896397585228417780e-04,-9.783194057709920344e+00
6.672833208337338243e-03,6.128585734025776555e-03,-9.800539533272601744e+00
-7.274126991428318464e-03,-4.068171931764589730e-03,-9.793260496293214601e+00
-2.250898789713089067e-03,1.313129043691089060e-03,-9.793812343851145741e+00
4.789947759568773458e-03,-5.316404745296433344e-03,-9.797904750095662862e+00
8.369394471203735805e-04,3.414049931683223356e-03,-9.783565436991432662e+00
5.266934988004568809e-03,1.948478414634180955e-03,-9.789780674121887571e+00
-1.527220019795040747e-03,-1.240982953231429056e-02,-9.788943875440674347e+00
-1.332255119389515012e-02,3.173433580811057479e-03,-9.790201615257599244e+00
