gyro_x (deg/s),gyro_y (deg/s),gyro_z (deg/s)
5.112718606538108057e-01,4.855792389575844803e-01,7.232681127281025413e-01
5.352480706903474106e-01,4.915402013085858335e-01,1.120055647958523304e+00
4.989618449389895960e-01,5.025772182091668983e-01,1.431784847215801459e+00
4.784024125424072293e-01,5.587188751465500536e-01,1.755570295290374228e+00
5.113571546023142345e-01,4.569849178977117843e-01,2.066200368468189552e+00
5.546295695887099031e-01,5.200201632905782079e-01,2.440758137835173702e+00
5.123631033657213285e-01,5.218186366090146189e-01,2.669952800946015170e+00
5.728730651878011226e-01,4.855315755721282267e-01,2.999796340663621663e+00
5.010388868882974522e-01,4.864012640742905735e-01,3.307496776410146389e+00
4.684686587618686060e-01,5.538498474936475180e-01,3.615771291670880405e+00
4.675121200904477914e-01,5.504916875620805561e-01,3.939268379847922219e+00
6.013067207458774321e-01,5.226075332173902854e-01,4.296788930751373137e+00
4.959526899596252703e-01,4.914380580806603227e-01,4.554897377799146163e+00
5.200540183343973499e-01,5.572955459867470207e-01,4.882664569651928410e+00
4.964944817609142635e-01,5.031098514846406022e-01,5.263872792731271844e+00
5.325226159462677078e-01,5.805435225102659746e-01,5.620221801433609166e+00
5.142716359960779471e-01,5.245155002247203768e-01,5.818227441936767441e+00
5.338859087783687229e-01,6.013911519074849332e-01,6.134299890219291562e+00
5.658986010061654026e-01,4.900746193237253134e-01,6.451976928702271685e+00
6.433725086973965945e-01,5.930679697527992955e-01,6.753772068475531576e+00
6.072815430592078956e-01,5.756516226344967624e-01,7.120681668773206852e+00
5.415963133403173257e-01,5.441442021453298805e-01,7.407943681232685762e+00
5.948074197484927161e-01,4.987431990042393015e-01,7.805233984696704930e+00
5.074400252749448059e-01,5.508585860762679198e-01,8.054480146939404506e+00
5.257754099923253044e-01,5.720994646709928189e-01,8.420935109530434559e+00
5.684128158691990063e-01,6.789955915994232427e-01,8.662185868091739849e+00
5.386167753640804801e-01,6.240217176130440357e-01,9.007651421841440964e+00
6.674663595866614507e-01,5.693565327063117021e-01,9.279313131340064302e+00
5.771723677226594518e-01,5.814942239757566744e-01,9.593226947235164559e+00
6.190836706950998414e-01,5.181368568481531378e-01,9.929929326831599568e+00
6.354472977956271418e-01,6.306538181867522574e-01,1.026413880662054190e+01
6.002584592702666644e-01,6.302842640215312597e-01,1.060780062823812209e+01
6.929265397057300380e-01,5.604435750846303854e-01,1.089757739169228934e+01
5.803338596356739654e-01,6.016522699022294196e-01,1.116952837258391185e+01
5.294041955318201653e-01,6.036047019299650707e-01,1.162389382257125092e+01
6.084894852904262352e-01,4.863060654983979436e-01,1.191021037366627944e+01
6.114864165093627513e-01,5.753627565233752073e-01,1.223523451443431931e+01
5.496573978713306108e-01,6.238045992799208239e-01,1.246291175998310230e+01
6.055517452391225852e-01,5.746645649928519006e-01,1.281579153470171839e+01
6.577744886872427532e-01,5.966483307338480424e-01,1.316775258066838816e+01
5.398776887195286811e-01,5.891736207857337648e-01,1.341661292544405093e+01
6.159865944720921416e-01,6.504929529237830632e-01,1.374924055886867968e+01
5.120678588932781050e-01,5.794152344598125781e-01,1.405904701404733714e+01
5.513348303239945514e-01,6.306767296125797007e-01,1.435106332629127479e+01
5.648521167910169893e-01,6.339425857788040242e-01,1.472043449921109648e+01
6.593645370055293276e-01,6.245759321071983061e-01,1.493034437484672239e+01
6.622611819167886216e-01,6.340044445949601926e-01,1.528290904833524166e+01
6.693039135456027022e-01,6.385277981090710098e-01,1.565343919636731407e+01
6.460674251418355718e-01,6.338910737798262307e-01,1.594878179717197497e+01
6.066988432723584568e-01,6.068655547397917571e-01,1.621142565440835881e+01
6.463903935645042287e-01,6.315303200864196276e-01,1.657072528709870340e+01
6.780154391624133581e-01,6.368703050211652616e-01,1.684950156163330348e+01
5.807360111553169224e-01,6.966585579223329994e-01,1.721320227107918299e+01
6.456096674297139293e-01,5.899537209931466908e-01,1.750279342031470264e+01
6.797010596841853713e-01,6.954473334934905271e-01,1.781856370014479296e+01
6.948658946770573941e-01,6.178458016889829540e-01,1.813734668407120054e+01
7.034532498413902379e-01,7.094337281848459575e-01,1.850342800292870038e+01
6.087923453712636990e-01,6.337917878920426018e-01,1.878161439665391796e+01
6.597232544586547620e-01,5.713530291860153820e-01,1.910022069010995693e+01
5.894102840519674924e-01,7.363591626225690634e-01,1.947497312553923265e+01
6.719129013805752448e-01,6.257036266904064670e-01,1.974473133917161505e+01
7.660578649625391368e-01,7.244676170311710184e-01,2.000526377836824921e+01
7.074333672649871785e-01,7.541955322624301905e-01,2.034155090135776689e+01
6.579767969171262942e-01,6.469878197613533333e-01,2.070054892210650976e+01
7.498573178571179554e-01,6.046512536697338236e-01,2.095836824485530414e+01
6.260724589185888700e-01,7.252941824166335705e-01,2.128570293481963205e+01
6.130955251016508845e-01,6.783454115483831259e-01,2.157272562554481965e+01
6.099611615287391375e-01,6.566534676831635720e-01,2.189384576777970537e+01
6.662297900802608419e-01,6.760153922565131923e-01,2.225584252515310979e+01
7.327945834557415550e-01,6.635414279087393785e-01,2.258855785623651968e+01
6.778566815608766394e-01,6.798867077067560771e-01,2.288678696287319525e+01
7.557327700728292408e-01,6.905409949341110298e-01,2.316100969918178976e+01
7.296986802202735101e-01,7.164590214256134626e-01,2.355465610702701085e+01
7.758975657429304507e-01,6.670274500895639891e-01,2.382626771591784731e+01
6.926197218677253575e-01,6.558052729667388503e-01,2.411660043548020127e+01
6.435327953070989482e-01,7.749074309521905013e-01,2.441846098443461699e+01
6.593218660059239067e-01,7.140760261485342708e-01,2.476923812288760374e+01
6.953725758965542125e-01,7.146469447717631596e-01,2.500108134665862991e+01
7.257550911026429130e-01,7.409794854649870421e-01,2.536020122036245539e+01
6.647816543094062780e-01,7.500275014211731373e-01,2.568904150400074826e+01
7.486959742768128923e-01,7.553749488995206152e-01,2.602825816277706394e+01
6.520658971458765940e-01,6.854035470975378130e-01,2.630435292230271926e+01
6.631777912617842219e-01,8.053146991257048581e-01,2.663310818502517918e+01
6.486326939471832587e-01,7.652419517905774127e-01,2.698072886342447774e+01
7.823274482230999638e-01,7.117280352095056717e-01,2.727763273909526376e+01
7.318191773494643337e-01,7.272777883974436142e-01,2.758555164520253200e+01
8.233680830030574160e-01,6.934838605565653014e-01,2.788104708125046827e+01
7.998891552599901589e-01,8.193536385666287947e-01,2.820585756591413329e+01
7.481550125721200262e-01,7.400967246430297797e-01,2.849440793200290756e+01
8.539513576299476716e-01,8.258242347477834366e-01,2.888616021980880078e+01
7.646705862577392043e-01,7.046917297080023124e-01,2.918402915168784872e+01
8.155682969689361794e-01,7.801280736445654895e-01,2.948767774657825314e+01
7.576813828273163409e-01,7.165869880437926165e-01,2.983201223843225236e+01
6.835006873937528038e-01,7.707310709756228784e-01,3.012311629353909481e+01
7.780438847566328864e-01,8.207076321049469048e-01,3.053312833810446847e+01
8.129091782786864728e-01,7.469140027878672372e-01,3.077418818210236040e+01
7.805550847266236048e-01,7.908673273771186230e-01,3.106656721588218772e+01
7.409741863745626933e-01,7.614764337201829214e-01,3.133714725250381150e+01
8.085556061212597623e-01,8.172970106057528827e-01,3.169598660184533045e+01
7.631600284479836960e-01,8.050567197150754195e-01,3.202709814628330065e+01
7.857297604114736878e-01,7.477658708456290659e-01,3.236306034031052548e+01
8.368316626409918468e-01,7.485256712088897979e-01,3.253246219688283958e+01
8.587693650368201093e-01,8.208308002049845564e-01,3.287760754175148037e+01
7.617917739961485024e-01,8.505421452900715495e-01,3.322352937950535789e+01
8.036822570600546944e-01,8.417243476971359994e-01,3.364301516359322619e+01
8.315503354065283403e-01,8.032063911507634213e-01,3.395483056812297917e+01
7.098112834038082797e-01,8.691373859677959945e-01,3.416868304324215444e+01
8.484684882492423696e-01,7.746321360087682351e-01,3.457517938474227037e+01
8.186695933054058960e-01,8.067372171665532221e-01,3.479513007152589665e+01
9.021905090472190913e-01,8.163161365579927331e-01,3.512540322086960032e+01
8.038302717421794696e-01,8.468904190048732739e-01,3.542713371225578811e+01
7.959267945186828674e-01,7.993802649719523590e-01,3.580258208574610279e+01
8.987449015114815642e-01,8.980333706163763363e-01,3.610207086819702482e+01
8.946630433809232841e-01,8.039103853241025277e-01,3.644361925388223966e+01
8.594518917735771701e-01,9.266979119146997457e-01,3.675335877979721033e+01
8.171316394929153404e-01,8.325273833156033865e-01,3.701209083679346890e+01
8.642387591889109100e-01,8.427500820914254342e-01,3.724912103582860823e+01
8.213886475197237358e-01,8.101825423301726170e-01,3.745863477436919453e+01
9.060647652008372299e-01,8.906672932107706497e-01,3.755853805170254134e+01
8.544370645282142185e-01,8.273978282944004503e-01,3.771508434466784365e+01
7.956058622157033966e-01,8.363695910487836116e-01,3.784777592894307929e+01
8.540901644497617129e-01,8.128021868147407014e-01,3.785263457107667762e+01
7.694561915514993578e-01,8.016028556505131464e-01,3.779573254570475882e+01
8.696419329645819207e-01,8.869322471403191521e-01,3.787927823125522764e+01
7.954337267416302648e-01,7.880558138037158100e-01,3.792319588720441459e+01
8.374070081082563011e-01,8.032989546777836720e-01,3.786909383253484407e+01
8.713223415730231292e-01,8.244437787600885637e-01,3.786777847501559080e+01
8.358007726439711238e-01,8.750295895333841667e-01,3.778860010061548991e+01
8.277495611447257540e-01,8.901154070837518084e-01,3.770346752153177761e+01
9.034153217098492838e-01,8.887703781291577121e-01,3.764287974033589279e+01
8.806857131938996552e-01,8.327139578810768272e-01,3.755326249571783848e+01
7.644932943667814840e-01,8.127397279315019540e-01,3.749599259033601584e+01
8.622771539097263682e-01,8.445665988609571961e-01,3.734341122118912182e+01
8.608082109042979324e-01,8.340739977372417790e-01,3.726367634920881500e+01
8.878853848106001978e-01,7.241181115760078058e-01,3.702576494985778766e+01
8.491260349187752521e-01,8.735957751333467414e-01,3.688504635342178517e+01
8.271204692065491360e-01,8.244371460909678540e-01,3.684856477188556312e+01
8.521067105607003089e-01,7.952535469522576950e-01,3.671888276494110670e+01
8.190259264184756027e-01,8.518341556037090090e-01,3.657455750242802850e+01
8.257886772305116363e-01,7.971937955345342885e-01,3.635452053575934173e+01
7.388326539850893493e-01,8.768916226798865177e-01,3.622842305871441937e+01
8.298682254999161234e-01,8.037329593961703988e-01,3.606515774837357924e+01
7.821666786291511242e-01,7.848116310191927125e-01,3.588976403954828953e+01
8.595252122484228208e-01,8.254096636259785624e-01,3.579280491771103812e+01
8.195122121135776094e-01,8.345246150625531545e-01,3.558531401752738077e+01
7.281447554636464314e-01,7.711854778514730668e-01,3.538753635819336552e+01
8.433298628751293435e-01,8.216273663990173448e-01,3.523743401235795858e+01
8.492239421849016034e-01,7.603066122253964165e-01,3.510409736803546110e+01
8.577264057474921488e-01,8.222454359653551537e-01,3.492989375506898853e+01
7.820056236643643244e-01,8.042423682030491738e-01,3.477340310525210754e+01
8.654406817850484046e-01,7.984233624547549812e-01,3.461722191000038862e+01
8.477654844047806115e-01,7.639621284609472429e-01,3.446351706098162992e+01
7.811245887251734299e-01,8.962937961884612781e-01,3.424362599408961216e+01
8.386944729277933108e-01,8.516487718673955154e-01,3.411850263743846057e+01
7.831118495836344451e-01,8.584307892875558954e-01,3.399001413849311604e+01
8.471008148183382103e-01,8.158654829706676326e-01,3.377245831988525993e+01
8.480844870017111292e-01,8.572701552779536938e-01,3.359407741840995953e+01
7.936094800169913865e-01,8.252277453653323880e-01,3.353747794916257163e+01
7.683060552406874022e-01,8.392927679777334449e-01,3.334638690505126846e+01
7.582978057954523621e-01,8.676129771758582798e-01,3.315471496790614481e+01
8.352131830565711068e-01,8.002214495432969921e-01,3.292813964054232656e+01
7.517297070932984493e-01,8.229294534176871956e-01,3.279507890430132022e+01
8.432340593363616410e-01,8.187825517371283279e-01,3.262571822718249592e+01
7.383544456459586458e-01,7.430097783055310545e-01,3.241596877617320871e+01
8.070909322601673708e-01,7.724103622892097842e-01,3.227769207002938856e+01
8.040158474878211781e-01,7.195710149789973364e-01,3.209580085727392884e+01
7.455744132811393809e-01,7.513204796010991560e-01,3.192978564074774184e+01
7.560159643519943629e-01,7.266120472316832668e-01,3.181369822648480294e+01
8.167269226984562591e-01,7.292795570393826310e-01,3.160028389213058730e+01
7.759160722008516808e-01,7.855802891281938871e-01,3.152633788999177256e+01
8.171181061491344932e-01,7.576492205404286029e-01,3.127868712753281244e+01
7.355883679230462713e-01,7.074368652972115035e-01,3.115894717790529711e+01
8.147925876009972646e-01,8.077867109394872847e-01,3.101048291302858928e+01
7.806756555195113467e-01,8.566276367575893502e-01,3.085707464501431829e+01
7.987717262397271423e-01,7.575094376288111775e-01,3.064164312547298863e+01
7.862311814724263215e-01,7.908447379802673316e-01,3.048234488008671761e+01
7.510704422537611835e-01,8.592711516748962053e-01,3.035043214370963582e+01
7.500208144094975271e-01,7.273372371546148463e-01,3.023011083639872609e+01
7.423747162019311840e-01,7.397757598483032382e-01,3.007527992738026512e+01
7.689628758444831957e-01,7.352859914298308652e-01,2.998341869259629178e+01
7.858569886475895716e-01,7.651110524648098155e-01,2.978355126949213982e+01
7.580450078488285559e-01,7.581175511834052916e-01,2.958782478778755021e+01
7.357451710160876068e-01,7.711290245787421060e-01,2.951795338949379044e+01
7.738167435217268020e-01,7.968255728064636001e-01,2.927321427704249857e+01
7.863048159606954579e-01,7.928944295055414537e-01,2.908440786144321777e+01
6.913822495403382229e-01,7.778660523479895561e-01,2.900837325799150790e+01
7.366122259615829337e-01,7.252703959963671121e-01,2.884490668664168922e+01
6.870400875287872022e-01,7.342477051955792478e-01,2.870188028014681692e+01
7.845225134837533476e-01,7.216854605291619373e-01,2.858684024990386519e+01
7.515085521587047124e-01,7.553184354583397653e-01,2.832691466767177602e+01
6.956525757776005348e-01,7.087837208011780188e-01,2.831121240630796265e+01
7.295624769012268862e-01,8.285002167472880208e-01,2.817570790339440023e+01
7.170053642263517490e-01,7.529873127796792298e-01,2.798709160352022707e+01
8.077319728617325945e-01,7.578153915268167617e-01,2.785254533091577045e+01
7.324736411721456397e-01,7.343554552066364760e-01,2.771210404552428486e+01
7.607451518843064697e-01,7.273703614321792577e-01,2.750182938652191567e+01
7.303855305497859440e-01,7.597723130155746851e-01,2.738258400460951236e+01
6.474178609870329115e-01,7.204293869290487873e-01,2.723447560218673758e+01
7.233741342709630873e-01,8.087708372235191678e-01,2.717736822513689532e+01
7.156682602213815247e-01,7.255940172595188864e-01,2.696277996159752632e+01
6.926706473804057351e-01,7.290179357117312353e-01,2.684951192378063567e+01
8.137736655782227269e-01,7.019208909807543861e-01,2.666693333868629523e+01
7.347351456605829556e-01,7.584299944423589235e-01,2.657996294960799588e+01
6.770403452522101295e-01,7.903082663071906433e-01,2.639577038699900413e+01
7.819290839483332700e-01,7.478719629543121306e-01,2.626211648540917309e+01
7.198992208002457094e-01,6.952453627224367549e-01,2.612127712050187256e+01
7.520703701593539625e-01,7.213834979351539944e-01,2.607992053948263234e+01
6.722102464980378445e-01,7.751899303373073202e-01,2.591716870939962192e+01
7.163099083909937326e-01,7.582745739856505685e-01,2.575559076492148591e+01
7.862289872731150764e-01,7.868501122729285591e-01,2.560285240528765627e+01
7.580953378410490995e-01,7.041659259414161376e-01,2.546417783326617723e+01
7.079790226051748681e-01,7.453912193255985974e-01,2.529685866495546520e+01
7.603034060708965258e-01,7.911109502228628187e-01,2.520975542433035699e+01
7.333995483924428127e-01,7.926849841987844147e-01,2.508565226813678350e+01
7.361934495111230881e-01,7.311764842964033617e-01,2.494454569780149455e+01
7.621080891129575763e-01,6.816113929400818838e-01,2.479489210154589074e+01
7.286395531319438401e-01,7.690438488525466187e-01,2.472344847126638356e+01
7.117533963285453957e-01,6.737409632374464774e-01,2.460694096687340959e+01
7.123209549428124454e-01,7.240463418589605515e-01,2.443266277830176847e+01
7.263410049805011370e-01,7.663728043127236988e-01,2.433916880153557472e+01
6.985595389566098268e-01,6.768808573500947334e-01,2.415506699621917264e+01
6.730305287606488385e-01,6.620962401157653998e-01,2.407274923695524294e+01
7.383907762599103419e-01,7.155272545408293272e-01,2.397578897700628531e+01
6.918950183166266976e-01,7.563221077542525705e-01,2.389763742068016938e+01
7.790092757450959304e-01,7.470201067610171553e-01,2.368552098984629239e+01
7.649555578633806530e-01,6.771728595283096341e-01,2.362643698933465686e+01
6.765479832627887546e-01,6.967316254672589748e-01,2.354176620784338070e+01
6.807904544766127941e-01,6.483223979683553351e-01,2.331322031534345030e+01
6.636679826993443498e-01,7.160525026730667486e-01,2.324690591171048482e+01
7.322280658589395141e-01,6.693915740832714345e-01,2.316625931326586851e+01
7.124984304695108905e-01,7.316150490669222073e-01,2.293538384599922608e+01
7.269305110029009587e-01,7.169741216143287188e-01,2.284524328581732533e+01
6.502752502368542853e-01,6.880492132324143029e-01,2.271935857396755054e+01
7.168688385507332450e-01,7.117977549682212857e-01,2.259433114345623750e+01
6.754640690460815833e-01,6.698527263610141169e-01,2.247647611488662989e+01
7.446219790571935171e-01,7.533935967324746352e-01,2.242971776771963377e+01
7.182231503791889349e-01,6.730660137454250735e-01,2.222478305639574003e+01
6.681184688258755555e-01,6.963666667588183090e-01,2.216397211683305102e+01
6.564128350884232965e-01,7.037448641603890609e-01,2.209885382171275126e+01
6.895149850193198482e-01,7.091093079683201683e-01,2.196912148054274638e+01
7.545029776349418960e-01,7.147320684413375202e-01,2.182385595575849280e+01
7.121391305107768188e-01,6.521945825924732043e-01,2.173260697696105836e+01
7.051361957753395915e-01,6.408136209181850562e-01,2.161595949468895128e+01
7.314029403949128261e-01,6.869952322845606085e-01,2.149708330046934890e+01
7.168593725187178967e-01,6.770083289667555571e-01,2.144351838171137814e+01
7.238626718574951990e-01,6.552964560807573724e-01,2.126456425243232573e+01
6.676623974707053266e-01,6.872402804821102773e-01,2.121224514583963483e+01
8.080086682354921113e-01,6.364343253335090766e-01,2.104377506662082453e+01
6.934235348415050959e-01,6.866121898134289747e-01,2.091778984217305393e+01
7.436609434190361023e-01,6.857887937315888527e-01,2.087939404608450999e+01
6.793318295431508558e-01,6.723873724551352460e-01,2.073712588880979268e+01
7.183677763570182062e-01,6.367362165874533853e-01,2.054793471441053043e+01
6.244761348721488137e-01,6.756981514323698867e-01,2.055571679884549141e+01
6.058279226752253388e-01,6.459811717538057607e-01,2.046733122899624391e+01
7.557975117990953784e-01,6.342203824065986151e-01,2.031847680744279927e+01
7.295954011839953512e-01,6.655563988693328215e-01,2.021064944871923430e+01
6.429702316569669840e-01,6.593775376384143350e-01,2.007761512484060873e+01
7.483365752316233355e-01,7.494622577124081531e-01,1.996642524033927302e+01
6.677266313921307317e-01,6.379665215863145056e-01,1.985974744911045775e+01
6.746631595718424190e-01,6.493021398287524004e-01,1.983616966914430435e+01
7.194196605133187372e-01,7.034760710614255119e-01,1.976238280296022154e+01
6.965251544196198186e-01,7.012408958012323890e-01,1.970153730647585277e+01
5.786538098509262928e-01,6.776173239817986360e-01,1.950661971407949835e+01
5.948142661168727141e-01,6.872249865701339777e-01,1.932159733149527980e+01
7.368122014706304235e-01,6.674925056985709926e-01,1.927269625301763512e+01
7.022222327571312483e-01,6.298136040826768367e-01,1.920243498881325195e+01
6.575842460371236209e-01,6.696729023873772002e-01,1.909769868524648118e+01
6.589938445078233897e-01,6.031674588153673744e-01,1.900944877748641559e+01
6.545551925352582900e-01,6.642872938955461937e-01,1.893317517042056153e+01
6.439336074852806124e-01,6.718053126994261159e-01,1.874725612360652249e+01
6.818677045878823728e-01,6.334071964547363098e-01,1.874372881320826778e+01
5.980271763734402724e-01,6.364942371960231604e-01,1.861379993209959238e+01
7.048156416599239416e-01,7.567406926586942584e-01,1.856429126872377822e+01
6.089563806324506112e-01,6.697066265579251221e-01,1.850825640506042546e+01
6.189840902720697979e-01,7.228193288232158675e-01,1.833002062590676218e+01
6.630985870877120769e-01,6.880392560194840135e-01,1.827754163403927379e+01
7.303919758540222684e-01,6.536253433801305635e-01,1.806021975731009377e+01
7.030216639255147948e-01,7.062454389598065152e-01,1.803491197677978874e+01
6.733894586877617883e-01,6.821774483063990369e-01,1.800254648834276949e+01
7.462293934231657433e-01,6.554360394999307893e-01,1.787280348899532001e+01
6.721698012752552742e-01,7.001253431114247139e-01,1.776811429000087017e+01
6.089085812418243426e-01,7.010053937642808375e-01,1.777431421080509111e+01
6.709420720760965740e-01,6.454303207772739137e-01,1.756329510609740652e+01
6.597012798010861712e-01,7.094050604857886633e-01,1.757184721847770703e+01
6.139969371907003648e-01,7.055613175044342933e-01,1.735787266430811115e+01
6.123026341685035012e-01,7.500369636710388921e-01,1.733401724521347731e+01
6.152792543080792820e-01,6.631924233085737530e-01,1.722069243254545867e+01
6.698089196014272995e-01,7.265093196257927932e-01,1.718825532775883147e+01
5.927709175512378970e-01,6.964065287878590249e-01,1.703957023105197877e+01
5.940774885373795167e-01,6.717092538861165751e-01,1.700627664836296660e+01
6.615689630449770320e-01,6.706737117917983548e-01,1.685834849567178395e+01
6.651283369555424096e-01,6.722134980704033147e-01,1.678668765235905269e+01
6.909292638151266486e-01,6.623552887503323383e-01,1.673755446856869611e+01
6.876171437669107434e-01,6.790740731697677557e-01,1.660608657854842818e+01
6.829477414304955252e-01,6.113561062990391370e-01,1.654125902796388914e+01
6.317271545952934941e-01,6.333806382481793618e-01,1.656681471738540168e+01
6.644819172399497598e-01,5.934759886541259855e-01,1.641334890406741565e+01
6.057732115451868182e-01,5.739894827117452136e-01,1.630732023507988515e+01
7.215524559413750705e-01,6.511401109703131018e-01,1.632049705304451237e+01
6.170553581457041137e-01,6.170763127069825993e-01,1.611754487899216670e+01
6.079712269822418191e-01,6.883544641217091975e-01,1.605742297365394222e+01
6.573407105109210224e-01,5.981550709220192497e-01,1.588830892202727441e+01
6.613616437042114660e-01,5.637094668290467681e-01,1.585299737838180612e+01
7.273200554022402065e-01,6.289498958569272880e-01,1.577366861489583094e+01
5.997194534870177174e-01,6.447626268323662924e-01,1.575130334819596811e+01
6.287666207126756390e-01,6.572926140342638668e-01,1.567386255541007323e+01
5.409599296279457015e-01,6.191605347496739187e-01,1.562305857116494145e+01
6.455387476425425985e-01,6.288778434777602122e-01,1.550332021601048815e+01
6.183929173601637741e-01,6.845003224974672840e-01,1.543057226758824285e+01
5.656856527774840604e-01,6.346687503713753786e-01,1.529103429060741703e+01
6.802157770801078307e-01,5.714413368834214690e-01,1.520661480435782309e+01
5.434830961144466732e-01,5.542618082475300190e-01,1.518208194863345462e+01
6.935309487955175767e-01,6.324130098493997432e-01,1.508803804338690568e+01
6.079335728260655269e-01,6.814384444281126330e-01,1.499546837068819904e+01
6.284609383223149770e-01,6.516387741719714688e-01,1.496855825678110108e+01
5.989909932452274210e-01,6.215347261120460765e-01,1.482782599796776246e+01
5.579247234445120496e-01,6.079391676514134257e-01,1.484128539468679620e+01
6.143944230232952775e-01,6.527475397643129895e-01,1.475809684551420453e+01
7.258452019647049225e-01,6.765997225534290394e-01,1.467664034036349285e+01
5.844566945160769578e-01,6.656548825216687115e-01,1.462918274587283562e+01
6.303598889017859586e-01,5.998566509198588470e-01,1.447861477195854185e+01
6.910735136424472902e-01,5.750309337038129742e-01,1.442223530514849550e+01
6.839339029686917204e-01,6.201416272662098050e-01,1.434099976102789142e+01
6.382544666739965455e-01,6.555888037069640406e-01,1.431042350462100643e+01
6.281054519503194156e-01,6.689017378298613981e-01,1.424652068154380657e+01
6.710250437188449713e-01,5.871311902445717212e-01,1.414685985478349473e+01
6.559222192505509419e-01,6.142262977486193654e-01,1.403720136829441500e+01
7.233735210431559981e-01,6.491836386514351354e-01,1.397335848576875961e+01
7.180261690277468523e-01,6.155170439937619475e-01,1.391911737219604461e+01
6.281199936490765579e-01,5.850304913535402385e-01,1.386472365043163890e+01
5.964316642752425235e-01,4.791271179468274966e-01,1.379455031358933681e+01
6.063997685925174297e-01,5.743302948131177033e-01,1.372690877590919811e+01
5.875262386413612203e-01,5.756145608009440862e-01,1.370798561567519869e+01
6.067657085783081383e-01,5.562359363465482209e-01,1.365573702001541179e+01
5.874480002429667280e-01,6.155362863285717134e-01,1.343459545526116550e+01
5.793800513960747356e-01,6.217470059002474514e-01,1.343991877168701876e+01
6.207214485973583384e-01,6.038202676557054005e-01,1.341117503844831660e+01
5.600289208200566193e-01,6.154532218491155504e-01,1.329781853873521058e+01
6.078669968825277659e-01,5.631528203186996206e-01,1.328647919277220524e+01
6.202040582135324165e-01,6.070828387056781406e-01,1.317164964112765624e+01
5.967388966312943133e-01,6.297422175091144103e-01,1.309868062218268037e+01
6.128252556407677298e-01,6.529537279450130516e-01,1.309090729556329258e+01
6.328610709933109035e-01,5.840504087570368430e-01,1.301270860013433328e+01
6.604037963619622253e-01,6.695439052289250403e-01,1.288883221911606292e+01
6.764790878960762477e-01,5.718475316626491223e-01,1.274376565850685239e+01
6.623762000228449187e-01,5.900584637046044634e-01,1.282797554555409114e+01
6.778685971703042323e-01,6.097581950688827357e-01,1.274870458973284215e+01
5.458423625695066894e-01,5.642681616974143388e-01,1.263346126274913317e+01
5.987173097034318436e-01,6.196601436108812866e-01,1.255981361664351859e+01
5.296966833705651911e-01,6.082479920956470609e-01,1.250301335648513223e+01
6.039821431674718966e-01,7.047198161979368880e-01,1.241835635548727623e+01
6.017702089245861030e-01,5.817576423943013886e-01,1.247008784678404680e+01
5.992242698416364588e-01,6.932165605246359830e-01,1.238606701786741837e+01
6.488569874078362609e-01,6.485282520752769786e-01,1.222637361298719405e+01
6.511097240673620057e-01,5.990027668606988653e-01,1.217007863661315881e+01
6.040037494933174766e-01,6.044976036823660470e-01,1.216182877718508237e+01
5.784285555532874268e-01,6.634923133567993681e-01,1.210510359131217228e+01
5.898319149112520865e-01,6.041008459341359327e-01,1.197366817980713982e+01
6.040262347317508773e-01,5.034415563549137218e-01,1.196851657783705747e+01
5.350856362235805186e-01,6.153316294634550987e-01,1.193539788184273576e+01
5.771532148407428897e-01,6.065494516397230695e-01,1.179727850701603664e+01
6.184811181192592100e-01,6.093933311288668442e-01,1.182938645680167333e+01
6.230536581885942615e-01,6.528317368644517282e-01,1.177158095964066753e+01
5.354378458624925452e-01,5.376040879157940600e-01,1.167250734682645508e+01
6.158209178954390239e-01,5.997089866275542303e-01,1.163537900969717498e+01
5.973939683677861323e-01,6.140421725158810018e-01,1.154235204196017861e+01
6.183837748285241354e-01,6.029443717536957514e-01,1.152726716563156373e+01
6.310709092069214377e-01,6.228601230461331406e-01,1.144468895777410467e+01
6.469900222731590489e-01,5.755056498720525493e-01,1.147850312853293175e+01
5.634267346961073786e-01,6.295660716308199012e-01,1.135391934749242893e+01
6.702322540607335011e-01,5.899825137871493874e-01,1.133429871495785335e+01
6.200559724504586256e-01,6.453735566413492108e-01,1.114028860884562633e+01
5.916546543084773013e-01,5.863040423766147091e-01,1.117276413306719718e+01
5.479306511974566529e-01,6.694523604882414158e-01,1.112888162731432651e+01
5.892524264053793370e-01,5.498567600993854443e-01,1.111730290919600250e+01
5.733397731399676456e-01,5.756446621766394545e-01,1.106376420063789823e+01
6.374361759105074965e-01,6.290734376009601281e-01,1.093818423014337959e+01
6.044553729234816153e-01,6.091670912477314959e-01,1.086543244837490896e+01
5.483472261068392806e-01,5.884475642878828072e-01,1.075831925303098657e+01
5.896676553717322689e-01,5.455765901270804852e-01,1.076414344130170697e+01
6.465560991895470400e-01,5.940015656613255590e-01,1.067786245684364843e+01
5.461324758082662933e-01,5.821385187167672504e-01,1.066277139207958591e+01
6.075216998280182912e-01,6.585123807957025122e-01,1.061466724106913695e+01
6.213398488115036145e-01,5.757596408015857037e-01,1.058988877686712549e+01
5.683698930221771084e-01,5.077092720620930422e-01,1.044791707155774141e+01
6.475657271445578456e-01,5.511686246089128050e-01,1.046231226380444390e+01
5.686774826223456314e-01,6.791230803938232974e-01,1.040933790089627919e+01
5.687466052066020294e-01,5.329508928424087078e-01,1.038170473537799232e+01
5.382296885065934733e-01,5.285011759905644535e-01,1.035063263974381975e+01
6.144986620126032806e-01,6.100671940776893898e-01,1.024865238921557697e+01
5.537799390184183768e-01,6.268632189510463526e-01,1.019034564852458047e+01
6.530437189384902252e-01,5.250534836555083018e-01,1.017827786491623421e+01
4.983615164442430356e-01,5.067843208412549094e-01,1.009500786412428752e+01
6.049442922295169556e-01,5.950729029604514553e-01,1.001134422819167824e+01
6.227533518751030561e-01,5.693201128284648416e-01,1.000567894867365659e+01
5.610443750699546372e-01,5.939447477140534781e-01,9.959178772668112245e+00
6.066272404690400410e-01,6.166496576883844227e-01,9.981288033993017450e+00
6.392034082560639208e-01,5.595078945240777868e-01,9.816226849102694274e+00
6.413209492541085410e-01,6.436831947941050736e-01,9.877737213040610698e+00
6.448598918687472592e-01,6.564132708204625244e-01,9.728223731523325313e+00
6.145646853930730735e-01,6.109829019396082472e-01,9.770550616772714747e+00
5.309332257468661886e-01,5.530342197956731320e-01,9.540987337953046321e+00
5.779547726118861029e-01,5.167592634682675046e-01,9.595387232668056043e+00
6.155698040562512796e-01,5.484294172050622196e-01,9.551806188923514185e+00
5.656911041720256161e-01,5.678937326409322361e-01,9.432552328227728822e+00
6.115789660279670192e-01,5.613998967144752106e-01,9.440520153432601091e+00
4.947191684288721469e-01,5.404516707896600547e-01,9.435151266192812969e+00
6.728298821981490985e-01,5.243591136436255296e-01,9.328532888319170269e+00
6.662322278165609957e-01,6.428839686340659387e-01,9.353898145950765297e+00
6.328719031714302723e-01,5.701724529428580102e-01,9.325385628652407277e+00
5.119478791835250231e-01,5.488382492697998494e-01,9.151669443564198758e+00
5.236562128587628484e-01,5.957311904576336747e-01,9.187972144489052084e+00
5.852478414831836506e-01,5.459336500563271022e-01,9.105384753152435451e+00
5.891607818279397391e-01,5.506445972333839922e-01,8.984194318933740320e+00
5.771132618820844495e-01,6.262519984955663421e-01,9.086333939930639758e+00
5.822863159732087901e-01,5.764150627925754833e-01,8.990757793962739441e+00
6.088257709316186039e-01,6.244812175661379472e-01,8.959950423581689805e+00
5.688997150171095640e-01,5.516825358398824708e-01,8.928495550880176879e+00
5.757857462574874630e-01,5.319938703636315491e-01,8.833777640967204192e+00
6.533035677741722003e-01,5.302908246609399079e-01,8.746597211735659627e+00
5.605654618037604342e-01,6.189969461325507405e-01,8.878946687800238990e+00
5.439576597516631029e-01,5.702159720486648098e-01,8.759376016388650044e+00
6.218942980278714394e-01,5.858166907534577694e-01,8.659118893300099984e+00
5.120084863488220117e-01,5.710129932523505536e-01,8.693835581003895641e+00
6.065472242514288181e-01,5.726567121455009568e-01,8.644979765683284967e+00
6.142110974992764927e-01,5.432851624094949816e-01,8.568346162558951207e+00
6.034411426192074490e-01,5.777713874067728073e-01,8.504301632601654504e+00
5.981461762163775564e-01,5.448256283313788195e-01,8.470727853376473604e+00
5.557246440897533057e-01,5.881601753413073785e-01,8.435491012602760463e+00
5.010080330091561951e-01,5.563187731268113279e-01,8.440077343917966601e+00
5.804604875907151129e-01,5.754750351620033788e-01,8.376185161968319193e+00
5.563869521367253990e-01,6.980933030078273482e-01,8.318328179954269430e+00
5.739659289418800325e-01,6.005220007288964990e-01,8.334204643304136795e+00
5.997413621278967488e-01,5.568526198002585748e-01,8.189341331781841760e+00
5.826475138201222537e-01,5.791897653374757926e-01,8.171539515254325536e+00
5.598310450730249466e-01,5.596216890517731191e-01,8.174811624629514384e+00
5.497397129606522714e-01,5.222729004661061936e-01,8.021721742891855911e+00
5.691652725026072890e-01,5.562776929685350202e-01,8.114348166964878928e+00
6.193152388706488765e-01,5.284337570165763553e-01,8.010050443161967237e+00
6.027588291087199179e-01,5.649166288329617869e-01,8.017099916022731421e+00
4.829536576290801020e-01,5.890677138599311746e-01,7.889429754078468804e+00
5.956014176767685520e-01,5.545654526396489592e-01,7.915298184338135812e+00
6.040458758490729885e-01,5.980389582142702221e-01,7.859764758814839603e+00
5.559446240239788173e-01,6.283519188261051935e-01,7.855304470735057443e+00
5.524395507756427737e-01,6.037377040055771360e-01,7.797150632044256291e+00
5.665274102506127063e-01,5.782114508158100463e-01,7.743762292436185746e+00
5.109136246338227272e-01,5.072049589664151537e-01,7.687191557483014748e+00
5.803181333743170356e-01,5.325624744639848585e-01,7.598753705249753132e+00
5.500105548724911753e-01,5.446699051432756233e-01,7.655400418103416094e+00
5.338159834642443036e-01,5.711282092509089026e-01,7.668201702631272099e+00
5.168481077862532302e-01,5.258249199413684849e-01,7.556718530555166069e+00
5.161219542876616106e-01,6.083563864330897575e-01,7.491569695840851750e+00
5.638184715584647622e-01,5.154405177005796368e-01,7.458650438524785820e+00
6.281560198082206670e-01,5.947244638874776834e-01,7.437883832786731375e+00
5.165800752079712233e-01,6.066418870589211920e-01,7.444216319818283800e+00
6.018100942364149608e-01,5.919102930946367191e-01,7.451912986311622689e+00
5.593739841115884515e-01,5.817139969402234101e-01,7.327754905742883906e+00
5.755228046422926624e-01,6.079685606939745357e-01,7.265387318773033343e+00
4.680688165657966304e-01,6.059869765772749606e-01,7.189929249540424117e+00
5.664498442378350651e-01,5.200124499673821621e-01,7.207888094339955920e+00
5.541496192801022014e-01,5.718737462031608931e-01,7.263555845876831896e+00
5.107792895049213522e-01,5.756507863355287968e-01,7.189013305620157723e+00
5.892753009033655509e-01,5.525241481811367095e-01,7.130790739248619836e+00
5.840390130402463020e-01,5.636472284606840466e-01,7.072478300019530373e+00
5.297350243200881215e-01,5.400450723914803630e-01,7.072577598429456103e+00
5.363635139604693292e-01,4.637148469084564906e-01,6.989637296179713744e+00
5.632798150755051747e-01,5.241732685379462131e-01,7.073268111042025019e+00
6.553675903882641984e-01,5.622699624589103662e-01,6.962338974381026446e+00
5.541602589048477689e-01,5.689910629944958664e-01,6.951154089878706088e+00
5.820800070997491638e-01,6.163572671178394469e-01,6.848287704623837513e+00
5.705789878495801659e-01,4.725663986615127876e-01,6.858310729370277414e+00
5.845427655271167033e-01,5.755485078630850904e-01,6.866719917214866520e+00
4.959259153993318403e-01,5.719648150560451283e-01,6.773326400367392530e+00
5.385639615796929958e-01,4.832809745307270477e-01,6.771327769612991432e+00
5.960810780028166223e-01,5.382297016826074199e-01,6.747879894419693159e+00
4.841173795298521210e-01,5.317119104329516288e-01,6.699063215624082801e+00
5.281354798970514519e-01,6.221346260232143432e-01,6.634759870689018513e+00
4.975548755831925574e-01,4.827884972576605427e-01,6.652232360579240833e+00
5.560530255289952706e-01,4.415642386597055657e-01,6.584745704464738836e+00
5.648773521955265942e-01,4.914470898713610980e-01,6.585859275228573395e+00
5.326488515596964346e-01,5.282790734588246329e-01,6.565649041013032594e+00
5.448096762204596155e-01,5.795350438030689721e-01,6.496456855127619612e+00
5.841552805828332806e-01,5.217183272102844382e-01,6.490028570056590951e+00
5.375941943097963804e-01,5.273959502814803413e-01,6.483582945468705283e+00
5.315799912121013104e-01,5.397148342264814769e-01,6.394775702469903678e+00
5.171567229104665486e-01,5.109567077656597123e-01,6.424091464247308814e+00
5.425947197621130424e-01,5.118304015199527379e-01,6.314088417579650780e+00
5.211102780119732936e-01,6.255726077473643398e-01,6.299752622778131084e+00
5.640043428137599957e-01,5.972982280087673068e-01,6.355292868934774297e+00
5.237566978035462784e-01,5.754296534717175948e-01,6.264881602786851467e+00
5.062956447361477430e-01,5.620682967495260751e-01,6.240325263849861415e+00
5.546045377182987623e-01,6.127600001264295049e-01,6.213514828451022431e+00
5.561009050295027123e-01,5.787097254778436062e-01,6.278759037031162116e+00
6.197912830309453280e-01,5.653900869986473454e-01,6.096394640133950382e+00
5.580422336848769316e-01,5.682406905832281252e-01,6.146751952357292659e+00
4.932474021608445058e-01,5.275722963914565300e-01,6.074386991979706885e+00
5.207991481378733134e-01,6.148414082366380207e-01,6.039593735309007450e+00
4.996804503316655266e-01,5.861314825404595474e-01,5.992732124788975767e+00
5.849087218191229010e-01,5.309691181123632475e-01,5.995703359380909703e+00
5.296235190653313385e-01,5.279559429412945537e-01,5.996403751474318256e+00
5.850669676202435721e-01,5.659338553457391452e-01,5.843843286334405640e+00
5.652220967009669028e-01,5.346927278178665865e-01,5.913164269180564148e+00
5.226628941079408674e-01,5.736709784547443514e-01,5.933761509631395370e+00
5.725783420736527685e-01,5.877986312373114641e-01,5.827902086047154206e+00
5.114029992997336516e-01,5.526336108466800567e-01,5.798641780639735011e+00
5.773956463050907706e-01,5.215964185158781241e-01,5.742204402858306800e+00
5.426843717100929831e-01,4.796606373034179582e-01,5.663215616560878019e+00
4.687964823959578919e-01,5.574411440270090612e-01,5.734424136273178263e+00
5.457908800384836390e-01,6.052035168255449626e-01,5.676232204384931812e+00
5.279354955478463562e-01,5.046485843079285827e-01,5.683128384105391895e+00
6.168990885606454588e-01,5.184317001915096368e-01,5.698859179243993545e+00
6.025646311347405693e-01,5.192208428482484317e-01,5.638197653884870597e+00
5.216862986874267749e-01,5.402939004134125200e-01,5.533538015147690281e+00
5.541471840857512543e-01,6.009030259195223822e-01,5.474797311100000563e+00
5.520349939127102701e-01,5.603993141099736786e-01,5.542863927178824035e+00
5.781336593311529048e-01,5.432439478844789393e-01,5.531347077057137795e+00
5.339404775080112131e-01,5.056243468563154098e-01,5.474579741917528608e+00
4.918952974488352559e-01,5.376686346721487597e-01,5.460365176633778184e+00
5.543742266211927339e-01,4.697409124703851857e-01,5.430434732770692108e+00
5.581389715270166363e-01,5.362972237262905173e-01,5.382919237233459775e+00
4.802728370507097777e-01,4.690963476922990205e-01,5.313415818824513082e+00
5.219985463641479972e-01,5.645318387343524202e-01,5.330476729423637039e+00
5.372340582428657418e-01,5.578793109088316937e-01,5.315225608741195096e+00
5.952431480142047482e-01,5.796704868673607791e-01,5.325282417722362105e+00
5.332791995749074365e-01,4.990694875237065564e-01,5.312005141820470122e+00
4.980031495272416175e-01,5.444327700561458760e-01,5.322857392768383100e+00
4.732880995259142187e-01,4.893488010753923034e-01,5.286981923316008469e+00
5.043803957488840473e-01,4.852980223259038550e-01,5.253422057285158431e+00
5.434173869710583471e-01,4.714361101385793895e-01,5.282092826284797482e+00
5.646927135673529552e-01,5.667218135728808726e-01,5.136338721092607251e+00
5.176403935625306652e-01,5.639484107782460898e-01,5.169751905956498028e+00
5.833373712114934273e-01,5.595429190611762582e-01,5.081418768714027756e+00
5.493739423724044446e-01,5.604623205841047229e-01,5.096243490945686183e+00
5.975859449778240240e-01,5.064126024287072259e-01,5.043859016255149541e+00
5.918808140106595062e-01,6.002146990085881484e-01,5.034629164249935229e+00
5.499262187616081876e-01,5.622173856964468586e-01,5.090124447908110916e+00
6.022114247194660930e-01,5.640083664657047358e-01,4.910901126771572756e+00
5.121416146583885887e-01,5.968909136503697255e-01,4.849891517787025208e+00
6.193911556254346751e-01,5.455419673481661791e-01,4.996987323184901797e+00
5.367479069942890924e-01,5.135603637428052259e-01,4.898829183078484917e+00
5.210910167382548641e-01,5.299344221935635701e-01,4.854960147170211293e+00
5.305185759153209224e-01,5.292014445266776113e-01,4.877199285628017300e+00
5.473731836142280427e-01,5.520230969473303162e-01,4.850362984024087609e+00
5.410931567987699031e-01,4.909085305294383361e-01,4.833205292724067625e+00
5.388370090476684027e-01,5.991734973104698714e-01,4.771001692016684004e+00
5.557622683032756861e-01,5.747765115439922301e-01,4.736207909640199887e+00
5.515593508747903551e-01,4.968810988985531418e-01,4.789694216098797419e+00
5.267908987080359706e-01,4.772136621383049060e-01,4.653574234831824974e+00
5.020262625557554426e-01,5.281585434025412029e-01,4.755556623396396176e+00
5.728787765178612323e-01,5.231292006184823373e-01,4.658367157626817523e+00
5.045905931339986772e-01,5.253240818113693589e-01,4.671924016729171569e+00
5.406764856244865580e-01,5.366966026938724266e-01,4.680682136407703808e+00
5.871794476928987594e-01,6.030382336216665307e-01,4.553991118679300065e+00
5.158863766114337723e-01,5.674001462491850001e-01,4.592433060948341250e+00
5.827033705280642017e-01,4.764648118495010687e-01,4.535720449725749504e+00
4.911906091626654369e-01,5.645434750239952670e-01,4.553690733676089231e+00
5.241874193010069849e-01,5.564500439973157908e-01,4.569085026594264853e+00
5.911797981696619297e-01,5.361070532621770024e-01,4.564375665115504965e+00
5.695119242573841722e-01,5.529096882167390259e-01,4.494279102194232323e+00
6.077172142489434270e-01,5.062593195760974885e-01,4.438405657829374462e+00
5.421280948336093530e-01,4.671238010870217283e-01,4.452746659239654292e+00
5.109611998349284923e-01,4.962297388196965642e-01,4.516134212719268071e+00
6.188360632246728832e-01,5.302066680364151408e-01,4.462548194742422147e+00
5.533009843248983817e-01,5.717766133713363397e-01,4.378786704304683752e+00
5.647548516976934607e-01,5.050039681662243929e-01,4.401050259822482325e+00
4.949846624725429134e-01,5.160905431488458373e-01,4.421905616229048874e+00
5.268542142352753421e-01,5.462311020409518214e-01,4.316950471192663841e+00
5.996264969026464664e-01,5.121347663125374039e-01,4.282554341755109739e+00
5.238114025446225508e-01,4.829519908622231794e-01,4.281503941054197959e+00
5.274814863388332942e-01,5.968339053528060045e-01,4.288302575594022059e+00
5.278259274533205758e-01,5.120852135522168114e-01,4.280629174540570681e+00
5.057117262883182862e-01,4.780573097758490375e-01,4.291222630432530494e+00
4.802489038916858410e-01,5.686610446041834299e-01,4.130036560468793638e+00
5.526036105756054750e-01,6.041162862026255853e-01,4.213644660250766449e+00
6.252915499821557477e-01,5.554509856659118894e-01,4.160143143688147305e+00
5.927184264560618754e-01,6.116167590224366180e-01,4.134166085534931590e+00
6.025447636809184715e-01,4.435445454101638596e-01,4.158212784887378888e+00
5.355220910471644169e-01,5.847716163005899359e-01,4.089203870712780464e+00
5.617732137759713362e-01,5.284555230980797491e-01,4.144660274028594493e+00
5.083476490857965491e-01,5.153929029715600407e-01,4.115928649188561828e+00
5.599191062977385558e-01,5.181227246212276594e-01,4.012233003362676520e+00
4.873852349408556717e-01,5.108254526666488049e-01,4.055882009175359570e+00
5.006521656398903453e-01,5.560011957389947579e-01,4.029280879953796912e+00
5.441839764794685896e-01,4.773839331683024656e-01,3.939993352670003723e+00
5.317320300432840652e-01,5.446039588319797620e-01,3.975163852292824984e+00
5.319653717589172270e-01,5.147398746140015025e-01,3.953940152416340226e+00
4.619360021851041664e-01,6.009816425715577282e-01,3.948410251346008870e+00
5.677753253027287839e-01,4.654919616281184003e-01,3.948104697692437437e+00
5.121546605299771571e-01,5.262170444906633104e-01,3.964871000824518710e+00
5.560566659526920974e-01,6.045053608116980337e-01,3.968958882398104571e+00
5.781820494322570392e-01,5.531946663748378290e-01,3.959025069332643199e+00
5.158558780924848985e-01,5.417588775413029190e-01,3.769273377224774180e+00
5.128347517723664817e-01,6.003948609475273646e-01,3.816349669263072730e+00
5.672378850918989857e-01,6.508384689386425004e-01,3.848819510316899173e+00
4.925249670304432392e-01,5.230094257778867828e-01,3.860952385519043073e+00
4.821852792953891242e-01,4.673213744596871333e-01,3.844861142429148337e+00
4.354150272246695152e-01,4.812186670044618086e-01,3.840981479735050996e+00
4.882872388527600416e-01,5.928845685565576895e-01,3.797194085729763025e+00
5.920778497293048837e-01,5.017367153439674654e-01,3.782293183522646096e+00
5.762152661827716349e-01,6.030478584195470004e-01,3.770063742757764125e+00
5.486051209088550484e-01,5.101671610147308078e-01,3.714699440828227672e+00
4.796895408751671863e-01,5.665241599584364129e-01,3.715523822323492542e+00
5.815480080325095003e-01,5.002162860780675624e-01,3.644872800111618183e+00
5.163613045596806561e-01,5.606335604461843980e-01,3.662798191796474701e+00
5.279865841869199050e-01,5.603241898839029789e-01,3.712869914428091889e+00
5.750960176588061357e-01,5.332747968576849740e-01,3.628548733444729724e+00
5.991620568936895097e-01,5.948524189019195330e-01,3.648410744376349601e+00
5.180405949315491920e-01,5.300090520271336647e-01,3.561598753542372986e+00
4.437213499931319527e-01,5.214006865858955564e-01,3.565250718314019629e+00
5.444903680068891028e-01,4.834437308288988544e-01,3.553854740554263536e+00
4.739144063457151890e-01,6.209908796595441371e-01,3.501155847156637080e+00
5.467999206574009063e-01,4.620070831074807871e-01,3.506333051907521980e+00
5.154994661858028904e-01,5.444786263166077056e-01,3.527922425731478295e+00
4.736338090756466168e-01,5.914645966203657679e-01,3.495932496023193892e+00
5.091749273971715173e-01,5.636309014985536603e-01,3.492727901443988703e+00
4.463879383265206280e-01,5.544051998076567900e-01,3.506858672263233778e+00
4.980903904817169381e-01,4.948548593528035444e-01,3.452380246306950173e+00
4.996502632385810272e-01,5.009829040907123332e-01,3.421008394944796915e+00
5.320122110772255164e-01,4.726766624890497148e-01,3.440359370957548624e+00
5.897796259392442675e-01,5.821017267463644007e-01,3.473610296841692424e+00
4.942015729833927895e-01,4.864559341475822585e-01,3.335123838135627405e+00
5.959414605402794107e-01,5.463869239962900748e-01,3.391205780520867297e+00
5.610964806867202448e-01,4.808243364875290360e-01,3.363539676020869784e+00
5.250143919663302627e-01,5.267956778166102971e-01,3.347319502411522762e+00
5.344433240660683149e-01,5.729717615021308053e-01,3.376001714954583566e+00
4.942895715620584385e-01,5.149888389534860167e-01,3.284326873685623482e+00
5.186178504848443227e-01,5.324374270701101031e-01,3.267076745772346413e+00
5.517468718397551264e-01,5.852368966807995898e-01,3.351605961663982836e+00
5.217692473904494976e-01,4.575591136309908880e-01,3.312449386354774372e+00
5.674784828405357029e-01,4.880186847642467018e-01,3.338868396240302960e+00
5.070560944733456532e-01,4.760504636365145981e-01,3.225161868655212150e+00
5.249282892621769392e-01,5.978866147270713860e-01,3.215879101557874709e+00
5.199784531378577324e-01,5.507760062655058242e-01,3.189580216866532147e+00
5.401512804637748077e-01,5.336890622572800780e-01,3.203683372207360325e+00
4.609094609250392049e-01,4.829157278251140495e-01,3.154096052689180585e+00
5.499466873417679924e-01,5.121663746928863947e-01,3.142116650796114463e+00
6.076867905700199524e-01,5.776138795757489452e-01,3.171226771754186657e+00
5.588771104631000686e-01,4.262583711449336454e-01,3.223920592280018038e+00
5.977881164122891278e-01,5.035889964436657262e-01,3.153638664760065602e+00
5.171840032154975120e-01,5.517080504969059662e-01,3.094338090112226158e+00
5.282678314160129673e-01,5.455676312693524821e-01,3.134022661295677636e+00
5.427375841459308736e-01,4.825319064601750751e-01,3.055852433839730597e+00
5.558475644182150344e-01,4.935400821161820550e-01,3.107889874206253733e+00
4.943430529810235452e-01,5.154790473651844618e-01,3.073598530289705533e+00
4.520571866929403160e-01,5.656161357383496791e-01,3.007466761332858063e+00
4.675060057264407432e-01,5.871491434652197361e-01,3.061474014365097140e+00
6.412579593121017218e-01,5.769262464228431808e-01,3.014537043091396473e+00
5.173834739907251512e-01,5.758120946481380953e-01,3.000134100427100936e+00
4.587236284184093571e-01,6.627857868743418646e-01,2.994574519188973660e+00
4.500389581523843163e-01,4.145208922951733044e-01,2.978610739079051939e+00
5.037907546323099339e-01,5.624873861671843001e-01,2.947255970549472082e+00
5.060284633931889653e-01,4.699795535602347418e-01,2.912894196244832035e+00
5.099174462817473996e-01,5.859717220187206088e-01,2.942506287412180566e+00
4.666138386508850155e-01,5.751986906014632250e-01,2.919620367371596359e+00
4.993087246768804222e-01,4.303219001587914039e-01,2.932339203222695811e+00
5.070131724711292032e-01,5.733051195919793841e-01,2.907362374709527852e+00
6.154987663866211545e-01,5.276248962805089038e-01,2.905221977361899466e+00
4.884793875890532933e-01,5.253572246098955345e-01,2.909840772060762859e+00
4.929522541543160941e-01,5.608669761227864647e-01,2.856400021759172070e+00
4.799795597722723572e-01,5.240507307099753209e-01,2.902384841219879608e+00
6.248012051970741609e-01,5.438019448096163000e-01,2.896766187614345789e+00
5.188509279600014290e-01,4.958717506768928196e-01,2.829835030291096842e+00
5.279850929067497756e-01,5.363342218191371469e-01,2.805734027948523224e+00
5.529950275829711437e-01,5.721591986277727582e-01,2.784482047737807608e+00
5.490623592125201125e-01,5.311421414723408452e-01,2.719425332236937276e+00
4.895388394553652489e-01,5.516147615738433707e-01,2.804631360389075567e+00
4.849665944092760861e-01,5.500499365921874828e-01,2.752260839785592328e+00
5.467337433152702486e-01,5.221735888180096818e-01,2.800419042479241671e+00
5.661958895023337934e-01,5.272233365585300424e-01,2.700099288530377617e+00
5.308633440524617164e-01,4.366289626708761418e-01,2.681542861063025196e+00
5.853649564863530053e-01,4.948119218845631329e-01,2.734018930834658967e+00
4.643302085267880241e-01,4.951275113877643963e-01,2.705409924922256959e+00
5.777032804338916305e-01,4.899092091282630235e-01,2.805771883753126250e+00
4.719186634857602258e-01,5.174307891401996873e-01,2.721337583905687030e+00
5.266056855336069820e-01,4.500176831864166616e-01,2.674051487564563789e+00
5.026995864744353559e-01,5.491274716569868319e-01,2.641440803508659840e+00
5.465985073132685335e-01,5.034979390063283322e-01,2.653158082216500180e+00
5.784603965131747128e-01,5.167380486013425367e-01,2.611830900666224142e+00
5.187455894495233144e-01,6.199468500986250463e-01,2.650260163979490269e+00
6.047821339186636447e-01,5.175058382577696348e-01,2.598916749312548014e+00
5.605501825958868478e-01,5.170950007215834310e-01,2.633020543713515238e+00
4.671237422695886377e-01,5.176355073555825026e-01,2.587849678156330047e+00
5.005622176780094579e-01,5.079963524193662483e-01,2.569444978909720678e+00
5.274805660074312064e-01,5.762188658162873400e-01,2.555549229526783428e+00
4.968358073279359188e-01,5.290511893278799782e-01,2.547515615927088639e+00
5.490355233992048056e-01,4.941524948606774714e-01,2.607518404369306708e+00
5.432053647269978747e-01,4.375119851882938171e-01,2.547978437375858718e+00
5.844926904591452033e-01,5.404412642866239791e-01,2.585640312692321530e+00
5.531529520387645782e-01,4.650620458838903848e-01,2.548346352374599277e+00
5.822904072242142126e-01,5.405922053413255712e-01,2.447123845158473365e+00
4.982891180437216128e-01,5.219577344723312917e-01,2.472058299607135634e+00
4.934344390205451791e-01,5.201970327504228386e-01,2.528582551210037277e+00
4.597802990437444004e-01,5.635551416775500533e-01,2.460044397943318639e+00
4.944111156383493855e-01,5.489591149563678441e-01,2.454494590618723215e+00
5.411128019330887495e-01,5.052341935444421006e-01,2.412680571606466096e+00
4.496950062095391165e-01,4.769077904989227901e-01,2.431079269057260905e+00
5.148833044894064459e-01,4.550781068035103516e-01,2.450576350504697132e+00
5.165673005906723514e-01,4.640392600329886208e-01,2.449565832175748525e+00
6.214164383791349611e-01,5.557189847163408469e-01,2.429423669716269885e+00
4.948386638182563635e-01,4.549259734608953054e-01,2.374483350847623964e+00
4.949913872449346885e-01,5.400574146574251833e-01,2.397417295427758166e+00
4.860383297558151794e-01,4.876512762303503168e-01,2.330695825525352927e+00
4.901291850674107664e-01,4.924857388733347441e-01,2.346013254755444422e+00
5.269850939236969678e-01,4.852563033349595600e-01,2.354567428065471368e+00
5.218715793172000739e-01,5.436422485052544440e-01,2.383553644447562014e+00
5.800105033523983433e-01,4.980437689856950789e-01,2.277197377016448421e+00
5.318645702966360300e-01,4.660446005707537531e-01,2.347924571166133845e+00
5.142701694932596546e-01,4.682375672495890928e-01,2.458443910001286703e+00
4.785115259590775882e-01,5.267523517739772787e-01,2.280756378083790281e+00
5.532716984667183091e-01,4.745506131738431166e-01,2.329485855165370545e+00
5.096556606877111761e-01,5.628518646871217834e-01,2.381629413946868112e+00
5.878857297336552712e-01,4.499087471061123944e-01,2.235563236130883702e+00
5.307904817567713485e-01,5.648135188207810131e-01,2.248426668766893677e+00
4.861478474262063143e-01,5.170316518116201410e-01,2.291131591082330665e+00
4.402511127114074330e-01,5.357533254205616435e-01,2.241994187105682546e+00
4.202131983369256640e-01,4.688578821693493714e-01,2.240583401246110551e+00
5.384945644563333689e-01,5.375542059017053287e-01,2.303013318329327763e+00
4.640508950516414322e-01,5.469422142514738239e-01,2.198084451576847176e+00
4.555292837480612311e-01,5.278174924429187564e-01,2.303938805062787143e+00
6.070348214863455771e-01,5.288369612309351542e-01,2.179000481187626903e+00
5.233875408293826581e-01,4.853247372263099213e-01,2.157079035605634409e+00
4.989991013027618716e-01,5.342709941411933894e-01,2.175509937750333744e+00
5.493104768316184883e-01,5.074270788000287968e-01,2.281141150120501671e+00
5.196113541964091365e-01,5.236032584797449818e-01,2.235383831820989986e+00
5.355364435418483726e-01,5.023960273052728853e-01,2.196246781704920270e+00
4.641946626167705592e-01,4.100909908246237467e-01,2.216000118973279864e+00
5.067047494333866142e-01,4.864158188476271905e-01,2.114557875841509560e+00
5.144323450722191327e-01,4.637974515222248462e-01,2.131767613229670566e+00
4.961664542093945918e-01,4.137779085766399856e-01,2.118395561521515980e+00
5.137991000377581940e-01,5.629132703905198598e-01,2.080152545504280415e+00
5.472015725576632184e-01,5.490150190638353189e-01,2.133822659159462454e+00
4.946758276389067177e-01,4.630928964606625398e-01,2.181760688627660372e+00
4.708182062065899842e-01,5.360646960371129310e-01,2.108744881869283105e+00
4.925622934716438195e-01,5.923782449712383658e-01,2.101963869167344789e+00
5.303573539128858538e-01,4.831356365748306625e-01,2.101765641902824111e+00
5.553780551097978746e-01,5.461086100318643943e-01,2.176545404404748307e+00
5.074308946063371684e-01,4.914253653382413267e-01,2.087366732832345306e+00
4.776251897462509555e-01,5.387987295049453396e-01,2.020210656071056654e+00
5.456076490718564376e-01,5.160370848023114743e-01,2.065770139261017935e+00
5.902611665314828615e-01,5.957248831609498474e-01,2.065817790436712986e+00
5.079006621468162841e-01,4.608701983793349610e-01,1.981074016316695330e+00
4.620369274788621583e-01,5.228408191919718950e-01,1.981357277431530894e+00
5.466864531635253766e-01,4.967776887916380280e-01,2.042538357579552155e+00
5.208253175865039664e-01,5.765927806449204773e-01,1.989427057247359798e+00
4.424726761907798456e-01,6.191558870593809605e-01,1.996962845279308230e+00
5.346598187034935501e-01,5.643016872750887813e-01,1.958758010622741796e+00
5.673452111798188424e-01,4.962513578159553629e-01,2.107336445903340127e+00
5.895261296526366213e-01,3.615782341628218655e-01,2.007242296999050879e+00
5.208051833110999285e-01,5.667899935234679276e-01,1.947759403787617138e+00
4.475769063464351549e-01,5.651204926732326106e-01,1.955279434376601122e+00
4.819818542834379826e-01,5.450123607385933822e-01,2.034061461017071082e+00
5.826323946661771114e-01,5.216672346166321139e-01,1.886865491896483116e+00
4.881543529228064560e-01,5.518005430400019229e-01,1.978943519913485494e+00
4.898263157096738318e-01,4.704764297368173032e-01,1.915090191719911905e+00
5.728625537803558876e-01,4.401811145757548172e-01,1.867558554767328127e+00
5.604252959377706844e-01,6.034552706070096528e-01,1.952373613626294135e+00
5.021407996607326618e-01,4.658096430038348168e-01,1.912673055331510330e+00
5.538420571043701779e-01,4.460905416672241719e-01,1.929724733201824360e+00
4.740085964809181429e-01,4.916329689549141513e-01,1.919594094385909555e+00
5.131375980025532080e-01,4.800566482060885098e-01,1.954424787052668977e+00
5.234063464816035571e-01,4.966617853284017170e-01,1.821849199299669486e+00
4.661318431304176113e-01,4.866339714261197491e-01,1.914671685441920346e+00
4.875576135214915174e-01,5.410217188470481942e-01,1.852800408193201465e+00
4.182209482910976273e-01,5.252789199344604087e-01,1.889224283499243429e+00
5.260902069214660193e-01,4.928868704414146040e-01,1.799785761654004723e+00
5.016799175853106085e-01,5.230770452243355129e-01,1.818857984679651540e+00
5.661290688086024758e-01,5.238558818171371589e-01,1.916605669001786527e+00
6.146171514843172812e-01,5.463168121472464778e-01,1.869231756533692668e+00
5.285687382620866126e-01,4.922135996647266643e-01,1.861460271584886694e+00
5.877534053925353996e-01,5.486886204305696513e-01,1.751626491582692902e+00
5.376097432892436023e-01,5.593409137933418318e-01,1.740644695502398198e+00
6.140837427791147052e-01,5.114696543761924064e-01,1.821734925034254937e+00
4.971225772088496142e-01,4.862002849608471622e-01,1.720089318516577981e+00
5.414587891038962209e-01,4.729157265561758083e-01,1.763895308225487124e+00
4.429607089407349707e-01,4.974206005874558523e-01,1.781809912115252859e+00
5.042037730545286811e-01,5.388027266738670829e-01,1.768342028545246025e+00
5.006915233045938773e-01,5.826835114337027832e-01,1.779868177549151165e+00
5.737150495331168054e-01,5.855314140993366223e-01,1.729789935806905765e+00
4.477906822845489909e-01,5.021338166550591842e-01,1.748695751696040412e+00
5.638443891451718759e-01,4.535217457940269314e-01,1.809750368238184581e+00
5.099761779306269949e-01,4.226760594277864658e-01,1.746082355511956674e+00
5.443330108859655292e-01,4.888005586152069371e-01,1.689769486886588234e+00
5.320016499646564867e-01,5.119212449025624112e-01,1.746902515159337588e+00
4.927729452282756384e-01,5.571246243508460871e-01,1.678390763719683321e+00
4.268215551570889166e-01,5.222569085735456751e-01,1.753744531665307305e+00
5.748186410062838814e-01,4.998297639994269126e-01,1.712090064112497201e+00
4.836709001724479040e-01,4.969355004027946610e-01,1.609346388527413074e+00
5.035248416681569195e-01,5.394939182006339706e-01,1.624077553657931938e+00
5.049115759287180483e-01,5.539237864323758309e-01,1.730855883775976212e+00
5.561995604216154465e-01,4.331092843098284240e-01,1.678554369534922763e+00
4.996621353896746331e-01,5.009564584528432007e-01,1.714645212279351627e+00
5.487283927269982486e-01,4.949767401193114202e-01,1.618062474514724292e+00
5.680172372597033226e-01,5.202445859176123566e-01,1.654588981452497665e+00
4.673045938716047232e-01,5.061602913275938809e-01,1.695493827692778455e+00
5.556113759391489992e-01,4.713880916281208422e-01,1.665272558446852180e+00
6.116359551033979658e-01,4.494950393573037273e-01,1.657029465467370954e+00
4.565800448713501769e-01,4.711717593852304820e-01,1.590996006163014176e+00
4.856120836872429014e-01,5.061622640821353825e-01,1.650241862589463704e+00
5.306463011130114760e-01,4.590637687917011878e-01,1.601788372255324111e+00
4.492224718035744968e-01,5.546346543582624244e-01,1.592824827624952366e+00
4.737025541650879412e-01,4.423050214759993159e-01,1.580561867390918751e+00
4.902841415746669318e-01,4.593306764848011370e-01,1.592012754259539697e+00
5.101674181642956718e-01,5.832561115809529184e-01,1.593093467536677244e+00
5.351530538778443979e-01,5.670002605593462697e-01,1.616134217334462164e+00
4.634925779927503431e-01,5.070820411052483490e-01,1.639019901316695504e+00
5.177219244322566194e-01,5.440845716250898301e-01,1.559960172655489696e+00
4.772448724896850014e-01,5.078399918337717089e-01,1.554144238051871074e+00
4.511952041925881285e-01,5.493400888781742042e-01,1.572536222283461349e+00
5.169230728588561918e-01,5.031227719446248470e-01,1.582236993399184222e+00
4.874732460500069697e-01,5.046663058187222939e-01,1.588248259586387379e+00
5.414170130833255712e-01,5.245975407919786226e-01,1.540622314486000954e+00
5.469724182030011317e-01,4.911561389663537947e-01,1.506159383872682112e+00
4.730278545136419877e-01,4.792311355322460553e-01,1.529899705913947860e+00
5.635634781788516623e-01,4.794924788353243095e-01,1.430417809415600372e+00
5.110825576332901354e-01,4.293620383613354630e-01,1.561704052565517031e+00
5.424678975878252096e-01,5.205434538028269609e-01,1.546681234556872120e+00
5.275621799790813915e-01,4.853074591908370650e-01,1.525676524113297683e+00
5.169028133979298723e-01,5.562504144046637178e-01,1.576219338146480631e+00
4.556407602485137431e-01,4.807630546381855274e-01,1.477989900129634826e+00
4.854206846041604351e-01,5.701425784877854896e-01,1.477177449586446922e+00
4.654458066329751897e-01,5.251826984192520253e-01,1.594072599183713024e+00
4.457598492362164766e-01,5.379383357215932193e-01,1.582274905488361139e+00
4.975274488653478877e-01,5.136911123959568837e-01,1.437413492718288666e+00
5.602135066201073821e-01,5.000706228411815335e-01,1.449697053172050554e+00
5.221001116763771543e-01,5.081727835373195390e-01,1.520386546479606027e+00
5.459063114336702993e-01,4.201874400330338766e-01,1.453511887723574425e+00
5.309336501158496979e-01,4.875653561501000488e-01,1.425564585513997562e+00
4.290594440561208422e-01,4.603532990683765203e-01,1.470558115751800621e+00
5.270487117240375552e-01,5.584354958804045310e-01,1.459738119719266258e+00
4.496459712757083227e-01,4.275986363143198243e-01,1.478071905685993670e+00
4.134161755199866062e-01,4.945607912449194732e-01,1.433399350139540784e+00
4.776059319354948873e-01,5.827549926617062725e-01,1.430114423218001862e+00
4.699463638704233226e-01,4.480596115487481268e-01,1.422322534668995164e+00
4.605372116446727060e-01,5.484265669715250313e-01,1.469953982810291437e+00
4.762618746930972757e-01,4.956856731929232263e-01,1.429352616864155490e+00
4.719200624381670872e-01,4.665784826469033253e-01,1.473962171783435249e+00
5.107657674193440966e-01,4.763532515460680572e-01,1.465303830443938082e+00
5.460041704447263777e-01,5.262108023973961490e-01,1.377622892505128815e+00
5.197145056159044874e-01,4.962959196166861209e-01,1.419257916684775633e+00
5.136593034911600686e-01,4.839784799975802021e-01,1.418525186188874798e+00
4.486522948768121855e-01,4.622447866113292836e-01,1.379733671594174149e+00
5.293422036649366724e-01,5.754809657080501850e-01,1.456476576495155939e+00
5.439944573384510873e-01,5.604828379140817107e-01,1.465750001681175752e+00
5.181016849474201491e-01,4.970157475935278457e-01,1.289550055033673370e+00
6.062014086022715631e-01,4.916389736452271286e-01,1.412554702997053768e+00
5.795426177525763167e-01,4.832105634357676260e-01,1.344922084981488020e+00
4.320869600198722349e-01,4.815916567591917441e-01,1.393353342218493607e+00
4.500693588333203876e-01,4.949577930890393107e-01,1.454854104539294646e+00
5.028309671976296524e-01,5.561085634956366430e-01,1.319196096305019106e+00
4.171368792910987167e-01,5.571101063671460851e-01,1.336331916348053594e+00
5.058297096972156348e-01,4.900978901352059935e-01,1.387094765899031135e+00
5.182125810189756043e-01,5.507111259515377055e-01,1.329159534624970940e+00
5.529934829855746026e-01,5.577292124794118733e-01,1.275159433425210986e+00
5.444072945518645401e-01,5.568870684841065177e-01,1.351058395692535496e+00
4.904151981776769809e-01,5.787124794530352778e-01,1.382526849958115367e+00
4.819685857744318014e-01,5.261172532409874592e-01,1.290964383887296840e+00
5.453553537157720399e-01,5.237450230480980018e-01,1.340126095470448142e+00
5.011952143679254679e-01,5.577352310337339025e-01,1.312676021209258304e+00
5.706565517119061015e-01,4.733462012981479172e-01,1.342177443006703053e+00
4.745331572425764421e-01,5.119451979484070936e-01,1.301238185400779290e+00
4.570989155317855546e-01,4.779516732347362518e-01,1.291939336011781014e+00
5.026737576932543972e-01,4.578839286727223734e-01,1.303786923815120069e+00
4.753952661812204661e-01,4.960244262675068683e-01,1.238628895375426309e+00
5.408415129701797941e-01,4.969783684655083023e-01,1.296096222894643990e+00
5.582653605192565704e-01,4.738999508473778488e-01,1.295835167610555727e+00
4.753520564612101484e-01,5.430879727747139896e-01,1.269465503431418174e+00
4.961953064887923981e-01,4.787781125069712762e-01,1.300200695904058179e+00
5.693683582274361443e-01,4.766205392095919646e-01,1.282531451058448013e+00
5.430604463365564794e-01,4.001865577197797341e-01,1.306543007032589854e+00
5.949332464513569230e-01,4.513918162408353529e-01,1.262305622735324429e+00
4.482797485534502080e-01,5.073632008001643934e-01,1.258206006313906666e+00
5.341352917527284472e-01,4.894195404982865094e-01,1.270266577525645202e+00
5.359163678566166711e-01,5.783381863991600147e-01,1.285162383860965596e+00
4.884203760903353952e-01,5.117695281751013514e-01,1.314360889110617769e+00
5.224536999093140066e-01,5.059094383080271484e-01,1.220577251609639147e+00
4.769255689823673205e-01,5.020524370880014020e-01,1.257923866074830865e+00
5.580742618643034225e-01,5.130845039565697929e-01,1.224109095897693233e+00
4.575315701222507081e-01,5.615645209775026458e-01,1.276635270433363223e+00
4.845800993634288290e-01,4.650554460278163438e-01,1.246774646922840457e+00
5.294491165084077577e-01,5.659067388155776257e-01,1.201754197978678329e+00
5.334970857915712905e-01,5.324092403565661158e-01,1.189473626846277776e+00
5.027752247466188429e-01,4.488624778851846298e-01,1.196575166891677311e+00
4.539555683330533387e-01,5.252409118183455350e-01,1.219783361721133552e+00
5.648300806801924701e-01,5.051237261023677760e-01,1.193156313871760466e+00
4.901026258923969481e-01,5.343231041249038027e-01,1.246525386301419625e+00
5.228299220372153444e-01,4.071730430531462219e-01,1.160659882207947691e+00
5.143769271972199464e-01,5.001776106091498919e-01,1.264936050921779076e+00
4.764776248038786743e-01,5.949149702002882734e-01,1.238313809290741530e+00
5.675405732709132289e-01,5.184694504954383554e-01,1.183170196106694050e+00
4.396232441689751913e-01,4.595496730209619463e-01,1.177144509156812235e+00
4.906144184269467523e-01,5.015553462172305244e-01,1.170060204165295437e+00
4.951112304632677152e-01,5.111640803675686628e-01,1.237090097372609776e+00
4.395051978611210219e-01,5.246189602821708098e-01,1.195653823910416635e+00
4.875414258347247620e-01,4.948453793627116126e-01,1.164498335104981352e+00
5.396784948707129548e-01,4.031028550110373199e-01,1.109954481284442629e+00
5.218388341353724647e-01,4.602572105864930485e-01,1.184780146861431849e+00
5.204089361075391329e-01,5.205980593434520465e-01,1.155462905987894917e+00
4.459036102697803705e-01,4.656827622430149693e-01,1.175387897659737391e+00
4.560945080071092672e-01,5.396470392195461541e-01,1.143347187964849798e+00
5.520708744730501438e-01,4.825227845111362268e-01,1.143113610782492406e+00
5.050082080289464148e-01,4.950258682977582980e-01,1.161109952883015994e+00
5.385898388234201528e-01,4.725887081638151521e-01,1.174516016751951497e+00
5.520500437729355392e-01,5.331804906649111331e-01,1.161297550100387710e+00
4.896934848583833211e-01,5.032008611950343768e-01,1.201629738628336774e+00
5.292060270092492358e-01,5.030549529424892530e-01,1.149484924480798087e+00
4.684572223501011767e-01,5.224027159468244141e-01,1.193413039370083917e+00
5.413470558084318984e-01,4.955853816012391055e-01,1.191817312906190640e+00
4.852728385408754952e-01,5.585416215059361145e-01,1.175503892980235943e+00
5.188961594166560110e-01,5.524325571092933984e-01,1.172416162369462667e+00
4.761522283776954412e-01,4.986185774866828124e-01,1.112956534888402071e+00
4.516580494606723395e-01,5.185744065495627719e-01,1.177952695537103134e+00
4.307642716445223008e-01,4.445849871754457561e-01,1.101013432854872853e+00
4.681022963864556741e-01,5.132542238594429707e-01,1.206922997179856738e+00
4.336552478691817480e-01,5.056199456555522387e-01,1.109115173335908588e+00
4.890258889938230435e-01,4.927339327621759191e-01,1.120447597286815533e+00
5.577746554323403938e-01,5.315202989415193091e-01,1.129966015350371666e+00
5.209551122965574432e-01,5.286315019342369137e-01,1.088593794882071641e+00
4.866395314461307020e-01,4.455817299494644335e-01,1.121697524674075019e+00
4.893737083136937005e-01,5.086671253491141798e-01,1.107730753041126892e+00
4.981186228859084131e-01,5.093395870410770687e-01,1.115204807027288636e+00
5.790574934904179072e-01,5.208905099755357648e-01,9.975016038308180955e-01
5.603784447493057597e-01,5.727249276326145111e-01,1.013884116010645320e+00
5.132210265623383671e-01,5.485453406727678338e-01,1.093222273245931575e+00
4.708388238368766965e-01,5.150233845713367842e-01,1.071748816922458269e+00
4.581617094014219793e-01,4.988592542307481725e-01,1.178158606990586055e+00
5.132217799705058869e-01,5.740352363655670809e-01,1.051655182324131577e+00
5.577064623244888386e-01,4.654774021310357779e-01,1.092879021885966750e+00
5.148588910887068604e-01,4.964983486859428918e-01,1.011359580341263831e+00
5.962053734199730393e-01,4.640963384864423835e-01,1.049545707620703316e+00
5.640293212878757512e-01,5.501298186541900836e-01,1.032772404920569098e+00
4.486427025176229488e-01,4.030955782226215423e-01,1.115184563432694898e+00
5.443138877323777658e-01,4.962816513029621457e-01,1.100375802288204863e+00
5.223499156693286460e-01,4.848767622583869397e-01,1.159497526358866715e+00
5.667136933156843304e-01,4.795712870170121822e-01,1.039426918521204168e+00
5.056942879968429061e-01,5.102182813033314668e-01,1.045695782840872168e+00
5.298961800849627535e-01,4.760888166440346292e-01,1.062688280292303888e+00
5.332852189255052888e-01,4.643941860033086733e-01,1.011295978378125460e+00
4.823396940480181860e-01,4.983370977402054036e-01,1.135547631547291880e+00
5.398890209731125323e-01,4.957552889657347861e-01,1.047685244855396602e+00
5.130385385337822290e-01,5.299203110172137077e-01,1.049599492109098531e+00
5.278025301618936016e-01,5.571422871520397280e-01,1.034634713690241181e+00
4.670838411112059885e-01,4.497613106383110959e-01,1.082208444616904686e+00
5.009280844268624300e-01,4.960094905962176837e-01,1.121274374612349245e+00
5.280328704772445647e-01,4.054945004771720041e-01,9.622626716963544879e-01
5.378846179585315967e-01,4.133735461293604474e-01,1.059631076108402015e+00
5.237509377088521711e-01,4.399275722608185779e-01,9.943474908409208890e-01
4.983490844358357541e-01,4.805023926662279621e-01,1.006504003903494038e+00
4.450736065775773298e-01,5.173127797790407767e-01,1.045563504732186511e+00
5.422254392968519632e-01,4.588944765264470482e-01,1.060125953348931560e+00
5.334850270843223274e-01,4.479009880210049754e-01,9.559133267954847968e-01
4.649807976204088367e-01,4.847777569960694533e-01,1.057187687709985724e+00
4.967100114963952651e-01,4.497220931303408387e-01,9.973088718910766426e-01
4.766696574894467298e-01,4.154887778528823516e-01,1.042134479776563261e+00
5.048553340792946154e-01,5.109775521837029988e-01,9.833253533430901250e-01
5.193735242694415000e-01,4.926441958287584022e-01,1.034387821325356782e+00
5.663940982845975247e-01,5.370941041721916109e-01,1.026766180159487396e+00
4.597878867779714440e-01,5.099300279087746190e-01,9.189956080563312923e-01
4.845625717721866454e-01,5.261751527216707025e-01,1.001196100609402118e+00
4.830908447606989675e-01,4.812903608356075558e-01,1.009172102484208633e+00
4.921264637806134212e-01,5.183322987565877060e-01,9.789833328845409799e-01
4.749506367105074123e-01,5.582708688570664490e-01,1.035593153276934908e+00
5.378946071278229990e-01,5.325333740525715065e-01,1.017742202737158319e+00
5.407158526172400892e-01,5.133754758843090960e-01,1.046750614811315705e+00
4.993221721469264796e-01,5.361598067805575241e-01,9.808418466758112020e-01
4.818496077145437706e-01,5.657260127334802213e-01,1.009892249519187102e+00
5.189938018779336470e-01,5.135266007464632798e-01,9.923265863414509891e-01
4.041170640053186047e-01,5.246531732771426704e-01,1.011686680079916245e+00
5.051608275763289635e-01,4.945917537035599554e-01,9.575138006278024472e-01
4.635061079392999162e-01,5.491088907221783888e-01,9.503904972392477335e-01
4.668909394868045459e-01,5.570118416458681443e-01,9.996691742887383603e-01
4.592514112582907204e-01,5.229554097456541317e-01,9.278429790969132673e-01
5.643636253086635746e-01,5.089928200101592193e-01,9.691695841179162052e-01
4.269981937073145106e-01,5.043416243475159488e-01,9.850804680551719095e-01
4.401997921340106146e-01,4.387361949951463780e-01,9.688984987284176009e-01
4.886959213102571864e-01,4.585025902226983474e-01,9.519172140803433546e-01
4.971716203592209116e-01,5.759570034333482136e-01,1.064654020551641489e+00
4.877707586759099101e-01,4.327780192241835744e-01,9.743409445596381557e-01
4.110222963927503970e-01,5.019738788508131266e-01,9.049969895972054257e-01
4.482968789073253357e-01,4.372353148171156390e-01,9.795062262788044594e-01
5.471002148889189121e-01,5.164195709637843246e-01,9.543614818213357331e-01
5.387124124570658035e-01,4.834388741536017609e-01,8.808270195473116848e-01
4.547516469024506236e-01,4.768889775285067856e-01,9.657546244701271654e-01
4.757439718958597075e-01,4.534632483923844437e-01,9.688624681364381708e-01
5.491244626331202028e-01,4.585249013568858389e-01,9.519396713920599273e-01
4.495249040706556509e-01,4.921629646914930656e-01,9.286175428584266811e-01
5.065656548085935018e-01,4.568098531346644897e-01,9.231343646917327117e-01
4.904145097539268083e-01,4.273681736488678662e-01,9.183885485604160737e-01
5.270391160608280945e-01,4.955302906416138020e-01,9.623620483294220707e-01
5.599498374235085674e-01,5.076951216834724168e-01,9.244386653089015082e-01
4.656300064614798950e-01,5.161704145274128575e-01,8.993883091873683400e-01
5.430289082857828742e-01,5.244539922559662282e-01,8.826794843813392522e-01
5.279332454483630643e-01,4.606805686815514389e-01,9.432656812487615339e-01
4.595121164576824180e-01,5.261326383998108369e-01,9.343720513831486052e-01
4.499049635875842501e-01,5.239724033947044113e-01,9.445517847570199521e-01
4.466950302631191305e-01,4.798674354549218313e-01,9.008683041256160262e-01
4.547052688163518708e-01,4.491440847897051891e-01,8.611894111955451514e-01
4.935804166249130320e-01,5.281951037329370990e-01,9.827308848518460094e-01
5.163485217510249692e-01,4.721942354269995090e-01,9.367179615056094866e-01
6.051367864444521238e-01,4.772203928698912079e-01,8.402839953435996545e-01
4.545016699050468123e-01,5.394372454251543658e-01,9.114265374852880131e-01
5.152117609056607872e-01,4.776991339913177481e-01,8.855654423223013882e-01
5.162030983074767931e-01,4.430379938828318820e-01,8.434480423472370259e-01
5.254400305807702676e-01,5.049287768654749931e-01,8.532200171703959724e-01
5.693594006447388889e-01,5.183523409951100724e-01,8.318916007401123691e-01
4.864244569132388785e-01,4.524397688927026540e-01,9.586824899792111276e-01
5.080750774704666517e-01,4.747003900414916155e-01,8.970876795024584904e-01
5.254627608664612648e-01,4.513647244782189594e-01,8.206635096665607643e-01
5.222958540866615706e-01,4.738036888389388079e-01,8.416784151516651935e-01
4.749266062182748160e-01,4.971881349981505660e-01,8.370574065404161601e-01
4.723388875048181168e-01,5.745818068340067253e-01,8.190891667822289834e-01
5.242125559190238260e-01,5.160646395058217095e-01,9.247540760028760687e-01
5.599767866813236683e-01,5.174691171044244475e-01,8.963658706897964512e-01
5.215768441601006389e-01,4.286376266559216996e-01,7.961524974205764771e-01
5.654834529351602246e-01,5.725626187698912295e-01,8.725914549580899848e-01
5.303960077576634902e-01,5.912552535817298116e-01,7.885641499696683931e-01
5.623181777545928073e-01,5.073919081034320433e-01,8.971354980834548298e-01
5.437632868061466063e-01,5.215527495999743302e-01,8.724024736759380394e-01
5.274716624204792703e-01,5.492095628667702512e-01,8.496985981319220560e-01
5.070127417057033181e-01,4.747995827036560201e-01,8.507062208882509857e-01
4.380973243973681486e-01,4.731258835052422063e-01,8.210164654101063109e-01
5.038207406468440119e-01,5.505232377564889257e-01,8.154166619680300876e-01
4.762656050467428681e-01,4.815298273194315026e-01,8.493961309496234069e-01
5.240863697210517147e-01,4.652323415959752073e-01,8.980102523048854035e-01
5.432216054547642781e-01,5.431274349856983763e-01,8.548642877344071467e-01
5.138235292268668042e-01,4.331766982427268653e-01,8.394297680159569230e-01
4.976557908022881671e-01,5.393634336237961291e-01,8.613386918590479890e-01
5.128553375043095608e-01,4.309338962054468647e-01,8.104879749060056593e-01
5.287135167694706483e-01,4.719888778731535783e-01,8.102385001608582993e-01
5.793662606543086291e-01,5.182156001497133513e-01,8.377053991105336550e-01
4.677606479393475736e-01,5.446852060700008158e-01,8.598444554139853535e-01
4.879717679362813310e-01,5.057359170452561115e-01,7.912805628217945975e-01
4.614039198400379238e-01,4.523377854208727178e-01,8.483040114828112044e-01
5.342719979038098588e-01,4.766301735292214903e-01,8.206039384596297559e-01
5.375275037403252076e-01,5.296490556010982065e-01,9.604612426363496880e-01
5.609569367332586376e-01,4.834500212966940658e-01,8.751617487524658845e-01
5.685944629129374706e-01,4.653139469669278494e-01,7.781317285295623609e-01
5.622292447572834195e-01,4.232566520948659594e-01,7.713290254081547337e-01
5.545454246216191541e-01,4.677252721253412071e-01,8.950227724804016294e-01
5.222523561713435791e-01,5.539055606747289584e-01,8.577922312933780047e-01
4.870823456255122252e-01,4.577282100350871241e-01,7.865378197015853168e-01
4.946100990084437710e-01,5.047432012077530672e-01,7.676224570996094121e-01
5.718441204027944202e-01,4.813874976147518581e-01,8.580600132237063971e-01
4.218242910601857631e-01,5.187072437743318609e-01,7.384561603216618364e-01
4.886216485993635228e-01,5.429789362752697190e-01,7.538103263483830752e-01
5.268962139737001227e-01,5.218076804331363006e-01,7.499675842012675231e-01
5.139287411929331917e-01,5.074688662411728224e-01,8.402429811266987070e-01
4.935266907810137993e-01,5.211603639579960312e-01,7.989011489361262930e-01
4.756911231122167294e-01,4.874867256973405283e-01,7.424549417275861929e-01
4.470717830713886176e-01,4.402507733874210794e-01,9.055283126025027718e-01
5.138580640207673911e-01,5.435162151020168642e-01,8.715444498458881917e-01
5.069843434013646677e-01,4.948242352446777237e-01,7.710509475567135507e-01
5.585307787750628528e-01,5.907112155720893876e-01,7.945580543352509517e-01
4.972448716708933736e-01,5.686060236378085442e-01,8.300549242489946300e-01
5.659800428680091811e-01,4.790312902390196359e-01,8.383891198950770285e-01
4.695390925048017472e-01,5.798536576223091155e-01,8.125266310839772688e-01
4.671798971793959532e-01,4.567890655273115219e-01,7.743618348392766748e-01
5.678285747936382410e-01,5.224804327250284208e-01,8.293140693532005114e-01
4.978032297848302146e-01,4.768461018819638575e-01,7.819258695918128721e-01
5.357601926882032961e-01,5.107707252750044447e-01,8.044948195196207630e-01
5.152968556073802553e-01,5.280322309407781134e-01,7.591155433068841329e-01
5.941545232498182116e-01,5.069728516684746111e-01,7.907683748489813258e-01
5.057629682842252894e-01,4.970183934645213131e-01,7.349904587795951239e-01
5.776979710418573832e-01,4.779579016372867417e-01,7.381541279837353642e-01
4.679286356282735815e-01,5.075629178420328902e-01,7.714569195508084176e-01
5.102207032574945789e-01,4.175529335797347197e-01,7.262025365727707849e-01
4.670258869150454295e-01,4.416020681796742897e-01,7.458865911320882169e-01
5.529718086472703575e-01,4.782894457226236629e-01,8.126933408978507245e-01
4.624765589886857264e-01,4.820112795005824791e-01,7.438628105608869889e-01
5.282099091357587151e-01,4.759667411969384365e-01,7.602478382347871433e-01
5.151167256477634515e-01,5.076117506262651791e-01,7.351194616605701837e-01
5.357199129957902484e-01,5.356859455916733737e-01,8.047028745667849092e-01
4.605047904459104169e-01,5.073036856310516596e-01,7.481299531972526173e-01
4.354615826599048667e-01,4.747228182767264659e-01,7.748297383893535395e-01
5.146485643308660318e-01,4.881565745738531414e-01,7.855929352906624308e-01
4.802678946857524833e-01,4.931760573914441559e-01,7.480689410773815329e-01
4.702305334939999026e-01,5.452138801724309980e-01,7.536343026962819547e-01
4.521494803470297308e-01,4.711930804641472625e-01,7.385919232592939032e-01
4.995418314027517681e-01,5.338171685930287458e-01,7.116077028325997755e-01
4.854074548936698763e-01,5.119691477626312492e-01,7.595833912832961055e-01
4.691741005230142258e-01,4.554884965606238456e-01,7.658669581951874639e-01
5.643214838891364993e-01,4.409197612930945698e-01,7.615356876443203360e-01
5.479948773180631783e-01,5.086132855260726560e-01,7.708735693674313438e-01
4.714728836775857745e-01,5.539614960898423535e-01,7.398033038450823051e-01
5.361100808408022500e-01,5.005788503609095441e-01,7.982035472224751071e-01
5.368789762014235523e-01,5.669051734181302926e-01,6.785601661430932241e-01
4.952103330966833861e-01,5.538568686415356046e-01,8.268690342014358707e-01
4.684868025531957469e-01,5.546039982141660607e-01,7.899684580755161889e-01
4.853775308709724623e-01,4.824354578806363536e-01,7.737474263014566533e-01
5.328811251879870259e-01,4.590956918600123116e-01,7.350703941719778367e-01
4.528470370520921162e-01,5.330734268172049317e-01,6.849109311615113604e-01
5.100668777341048621e-01,4.751485818303609610e-01,7.096806244497740890e-01
4.975730734512493481e-01,5.061976304865252185e-01,6.392556622977183522e-01
4.961963223621370100e-01,4.915965496908948351e-01,7.137009137545141657e-01
4.226982127085838203e-01,5.156457589410674558e-01,6.496613580954158085e-01
4.300337657181873552e-01,4.759671447861936744e-01,8.041779963956638966e-01
5.345486178770185726e-01,4.709975255789210502e-01,7.360774112197682184e-01
5.460561036169254701e-01,4.597660191877305236e-01,7.342908016864821974e-01
4.551388776037085804e-01,4.749835498536376654e-01,7.421168023678562653e-01
5.148583858466030394e-01,4.298123273712698422e-01,7.401749040381564448e-01
5.307440195038234387e-01,4.749555392358414396e-01,7.036360480784308313e-01
5.215524486742395549e-01,5.502293952982491021e-01,6.570782284032071763e-01
5.248165549668654117e-01,5.008040808939152599e-01,7.501454773886973015e-01
5.320571536236338162e-01,4.302278707593925611e-01,6.866105642567504885e-01
5.154786492995760971e-01,4.379002447627793893e-01,6.602261478932153205e-01
5.482982355142470565e-01,5.218673921648107061e-01,7.688471888250146824e-01
4.971265015094541995e-01,4.642070522402088062e-01,7.602635722414723407e-01
5.768345733964118649e-01,5.069676940449379110e-01,6.880155623067706339e-01
4.805231828273365813e-01,5.159314474319968147e-01,7.649346332429561857e-01
5.457575766232822811e-01,4.946057819258296573e-01,7.400957623536051910e-01
4.838698145215362678e-01,4.603622516353214622e-01,6.891616034785923439e-01
5.002394163012520156e-01,4.785478673718691067e-01,5.964043918819346146e-01
4.910618427150861831e-01,4.969955783356052037e-01,6.662464895304237578e-01
4.802727041414264764e-01,4.789818322839872189e-01,6.572727281541685951e-01
4.991418747973810355e-01,5.708580755196361878e-01,6.710486990302394483e-01
4.713611347733200341e-01,5.117592347727294433e-01,6.694478942374375574e-01
4.921992264291445429e-01,4.996499649632430429e-01,8.177318106301491030e-01
5.300719512477679585e-01,4.993645801259756212e-01,6.788714393159200888e-01
5.154998973782214389e-01,5.210733115840354701e-01,7.098241601559980296e-01
5.217365477617175173e-01,5.371705100456655169e-01,6.643786515090637224e-01
4.897642210292358356e-01,5.015155898979122284e-01,7.097226545086477989e-01
5.125284730113354170e-01,5.831722901131830561e-01,7.253948004023192953e-01
5.129073793430858341e-01,4.658390050501793334e-01,7.150226012876012005e-01
4.949098175499144769e-01,5.523907630280446845e-01,7.039121389629362513e-01
5.026417550655537525e-01,5.008872243657355172e-01,6.914165273658913202e-01
5.061611647368801092e-01,4.446297166579188942e-01,6.312173775137863707e-01
5.289449253351827807e-01,4.746370809819419057e-01,7.136814252401260106e-01
4.858028354710830499e-01,4.561616627046818917e-01,6.896444971664581480e-01
5.860287497753442487e-01,5.066272451244335784e-01,7.407093768211749918e-01
4.442134683110564586e-01,4.656052981895008602e-01,7.553906197642442644e-01
4.832858073690007861e-01,4.448469087995480242e-01,7.562960686663684484e-01
4.727989672475650940e-01,3.836677509124500340e-01,6.494422917415916263e-01
4.881818398626650013e-01,5.117200479568529969e-01,6.473085039977113375e-01
5.655684870984040158e-01,4.216832754977892783e-01,6.072277692273085892e-01
4.141726488776101278e-01,4.974041069607161858e-01,6.714332131239701962e-01
5.467277098981174754e-01,4.299227727362741058e-01,6.924075192615287699e-01
5.224608101564501839e-01,5.573217100711891359e-01,6.714353055703121687e-01
4.108669796990670475e-01,4.304424355652050060e-01,6.288309933361559967e-01
4.699768196561371347e-01,5.276612070431925261e-01,7.144910137396693894e-01
4.742656551273288223e-01,4.886418908956057239e-01,6.892684981872758687e-01
5.680543146242331698e-01,4.845885359359656253e-01,7.619045459832332057e-01
4.383299431048969241e-01,5.597329864779327924e-01,6.628855365185964965e-01
4.359596589631076213e-01,4.562714876970048739e-01,7.367751012872765237e-01
4.112583702631555371e-01,4.605103519274526547e-01,6.150939845432336073e-01
5.711723834336424055e-01,4.758752288003542663e-01,7.273224042756815111e-01
4.816195201403852821e-01,4.613862079762380275e-01,7.891479814524515746e-01
5.357930164502285875e-01,6.141768644547475064e-01,6.474867757341941088e-01
4.974972567758059183e-01,4.953230294899646502e-01,7.049109134608206872e-01
4.873266709377443440e-01,4.863858083565658630e-01,7.050850750149519897e-01
5.169998777929603051e-01,5.478398378438055216e-01,6.894820007850592791e-01
5.340188347095622401e-01,4.741673744400025647e-01,6.437693273296525298e-01
4.661504041869408699e-01,4.917700907682174272e-01,7.088726453786852177e-01
5.509139994108722682e-01,4.708461210212404047e-01,6.303064027788207735e-01
5.045215375725433660e-01,4.487696851994348868e-01,7.098567079851808570e-01
5.118395260090763399e-01,4.319377997915943568e-01,6.463302978937693899e-01
4.498811374561236254e-01,4.867094046700901622e-01,6.875126238098767661e-01
4.888049504819679258e-01,5.066557991621449819e-01,7.414407566269596295e-01
4.753358687435573771e-01,5.154481837524639287e-01,6.390668643572154917e-01
4.233584169498715855e-01,4.090552030688516250e-01,6.532667178590941814e-01
5.013964927406763250e-01,5.305748014798077339e-01,7.271612785998319284e-01
4.432484566909378199e-01,5.490968860253917505e-01,6.478346524120668359e-01
5.604281213748356638e-01,5.123805501493672310e-01,6.874430117648951954e-01
4.846270286116645121e-01,4.609556958781352298e-01,6.715471940479352808e-01
4.844007683556946220e-01,4.252913361856207053e-01,6.628843629467635612e-01
5.170196125201972359e-01,4.560320764735185661e-01,6.936151124178444594e-01
4.307800745524278385e-01,5.180812392975181480e-01,6.080873387483430870e-01
4.768613886319446604e-01,5.193593030158379920e-01,6.857717536349189347e-01
4.972334330749237363e-01,5.080174686334216760e-01,6.771766859211179046e-01
5.557593399329618933e-01,4.092423209941243867e-01,6.576863799250951548e-01
5.360229662301947418e-01,5.224254559712481205e-01,6.855884576847673939e-01
4.925359545229525682e-01,5.652280328530829845e-01,6.181111621865901240e-01
4.843966858940777498e-01,4.733436657508829914e-01,6.058083022503605308e-01
5.409993862560569244e-01,4.664879160634694544e-01,5.662902299826342301e-01
5.526817689156392488e-01,5.725212791642231291e-01,6.380276746965001244e-01
5.415295222555590593e-01,5.623602158656256789e-01,6.049546434978368969e-01
4.261444043049681385e-01,5.073907097612665451e-01,6.425766855803936028e-01
5.248195541599958158e-01,4.557888253434772552e-01,6.261556044129505949e-01
4.866781783247461912e-01,4.341521504802584031e-01,6.890382141326529819e-01
5.194883658668444371e-01,5.244089051175198080e-01,6.579939840737938361e-01
5.065040341548480152e-01,5.028564102207245812e-01,6.472293024959113739e-01
4.845446657766958598e-01,4.710619567791786699e-01,6.132391187248580344e-01
4.928118010397448123e-01,5.933610392795263255e-01,6.517636086069267254e-01
4.952823529281966675e-01,4.658386032605929539e-01,6.641351524092230507e-01
5.647521200545012610e-01,5.035002393483596350e-01,6.815161088241659115e-01
5.228012674793407477e-01,5.363735106983305023e-01,5.921498053350998658e-01
4.991293998305974533e-01,4.329492127198914520e-01,6.342938022204903659e-01
4.637215632809418286e-01,4.803397502986782586e-01,6.738675598778426368e-01
4.569223642194955581e-01,4.884620820704487776e-01,6.747030030228614583e-01
5.255822697996972437e-01,5.055102870768217738e-01,6.344953529310413121e-01
5.409914790520536920e-01,4.916851713085347853e-01,5.770986084485797418e-01
5.049592771930734303e-01,4.790017935892740275e-01,5.943715240070526207e-01
5.127411672140943510e-01,5.417106131636838517e-01,6.738933070857375807e-01
4.136648437455365257e-01,4.414703076656478764e-01,6.692186701010139904e-01
5.513521862693961939e-01,4.865607605357661902e-01,7.488507909150750042e-01
4.803260441439975992e-01,5.326532717846238496e-01,6.702934347895277423e-01
4.090586493218356101e-01,4.863011297114192000e-01,6.446469290197703872e-01
4.602137729447011161e-01,5.528071009170063554e-01,5.982305882782439355e-01
4.454614712958253064e-01,5.350242625727514856e-01,6.921838044089834163e-01
4.879878776731887413e-01,4.841952745558246729e-01,6.264593190743448226e-01
4.416985447531442954e-01,5.049554038957897451e-01,6.153719132623055588e-01
4.477901631851522457e-01,5.704103555352461052e-01,6.731722472604589891e-01
4.470829045717509276e-01,4.705644176009374791e-01,6.934446411721072456e-01
5.154924449936636455e-01,5.714787565245693646e-01,6.004086678293095725e-01
4.326340368584316032e-01,4.925596822403137676e-01,5.981481432228822337e-01
5.396215689375766233e-01,4.772568473934685196e-01,6.184709462785267231e-01
5.106975016881186713e-01,4.913875377537969547e-01,6.097831320690833001e-01
4.897090352582705863e-01,6.012807996298789037e-01,7.104329609960919889e-01
4.623861563158154775e-01,5.390682413393611538e-01,6.287085085519124039e-01
5.015955717883975318e-01,5.843780848582628140e-01,5.919475584507577492e-01
4.659131360179051273e-01,4.990890073755138712e-01,5.992067480644959199e-01
5.386666446401661146e-01,4.898794661567397735e-01,5.870293229258555234e-01
5.234559432006857804e-01,5.421338127974101306e-01,6.743609871351514684e-01
5.095818360454572593e-01,4.785883576756732594e-01,6.393369051924071567e-01
4.485935340059959975e-01,4.550214358663974279e-01,6.302821029158611754e-01
4.241108343800705227e-01,5.195540565065190908e-01,5.204629400117340987e-01
5.443826460236088627e-01,5.274369776529583831e-01,6.899678913391394941e-01
5.003326020352901748e-01,4.047074139365062218e-01,5.645272983763063301e-01
5.279375198402458391e-01,4.237401808575094742e-01,6.406164959312642404e-01
4.749592090181519177e-01,5.111652535597697167e-01,6.493464088829069558e-01
5.149653206476583200e-01,4.905906651639602711e-01,5.856055383449567664e-01
5.055620908647803224e-01,5.238004369025017759e-01,5.740424811191128240e-01
5.506405181536928595e-01,4.888078748821382269e-01,6.232858284840773200e-01
5.049885943871823546e-01,5.327944029277822402e-01,6.185657384019239702e-01
4.786984410798829637e-01,5.316806567734194688e-01,6.512143573944108033e-01
4.788960250705261434e-01,4.741062309735050162e-01,6.753573806882603447e-01
5.176068358103333988e-01,4.962327277405249037e-01,6.181576516222136997e-01
4.784677801430701760e-01,5.474818279725405246e-01,5.850271545438427978e-01
4.870162473382569357e-01,4.698480447496450330e-01,5.664689698597040746e-01
4.327734483215819883e-01,4.997902418321214513e-01,6.676302876811173181e-01
5.064229308457472989e-01,5.304992430615745880e-01,6.282033641962465609e-01
5.831973973025071922e-01,5.188995448209250405e-01,5.334424397075723245e-01
5.070345772198595613e-01,5.090598865207935919e-01,5.494058933797185684e-01
4.620185385035877057e-01,4.896176903383184786e-01,4.585829854355308877e-01
5.261907545421499188e-01,3.493460034426398297e-01,5.757163667087135117e-01
5.582169955266607086e-01,5.051288461718584921e-01,5.348819573707840336e-01
3.861396698591652576e-01,4.723244087290455751e-01,6.612305843454664434e-01
4.824650364217690779e-01,5.236408967829443428e-01,7.010205424532920393e-01
5.307140920174041598e-01,4.498463998670363395e-01,5.503331550571202158e-01
4.735350757717023962e-01,4.773576279785541887e-01,6.014636162355536664e-01
4.825864098162738203e-01,4.472252792875113792e-01,6.698776300381052984e-01
5.337871312573284621e-01,4.971847192282941030e-01,5.372261350668287028e-01
4.920417991513689748e-01,4.735438312291428975e-01,6.349679397853514873e-01
4.911507146855443318e-01,5.355790410663596735e-01,5.952112154506501440e-01
5.093795701272468834e-01,5.159975269596195346e-01,6.374445093376391869e-01
4.605334772032725899e-01,5.463202179230512989e-01,6.316557702169247612e-01
5.392954389101194401e-01,4.656006610879073748e-01,6.748756365706677363e-01
4.617336049799475317e-01,4.687230225066820188e-01,5.763042815303468513e-01
5.145153423546480198e-01,4.926876238510679573e-01,6.892631253673699998e-01
4.884499322221697581e-01,5.030387683398875875e-01,6.063710988028723214e-01
5.322039647660855577e-01,5.302758587036155991e-01,6.069803133265626593e-01
5.504625337440456345e-01,4.690817888093785082e-01,5.537326716631232326e-01
4.960168561330655645e-01,5.268645164364026412e-01,5.512717338765776853e-01
5.113722777474841719e-01,5.414993101527495467e-01,6.729959304740730230e-01
5.038146658835975789e-01,4.998433269077669494e-01,5.862336464568582706e-01
4.711489028016812020e-01,4.449871918588364506e-01,5.675431597162029496e-01
4.509138564953080186e-01,4.789766221657677514e-01,5.862904041780165887e-01
5.593983588485647029e-01,5.037333637662602115e-01,6.068742699217412051e-01
4.709241288355885402e-01,5.204730000001611678e-01,5.539652645345998216e-01
4.893897250142961730e-01,5.606362643106201915e-01,5.930273348678694045e-01
5.501183218647879292e-01,5.305733841141879736e-01,5.723447518193320871e-01
5.287859948692518186e-01,4.648396273118872712e-01,6.480446636699469520e-01
6.132661985572999130e-01,5.317896971514711746e-01,6.365102735853304106e-01
4.520646200678083981e-01,5.746022920714897175e-01,6.103679419987727561e-01
4.995009620218655577e-01,4.860146966299050408e-01,5.738057048912766911e-01
4.714845693392261117e-01,5.055452855230390119e-01,5.611120693737451370e-01
5.028501237052072081e-01,5.171314501922459339e-01,6.175818024459768241e-01
5.040228760151717058e-01,4.578090115719193887e-01,5.442342189902779070e-01
5.538565908254755588e-01,5.066258663041182109e-01,5.696366286479795926e-01
4.465804133115988117e-01,5.172019157811814649e-01,4.977451886952095617e-01
4.920557171800351015e-01,5.691960638611308632e-01,6.771546710678525427e-01
5.327152618085726488e-01,5.164130428437260223e-01,6.835123830216102148e-01
5.097204240700623501e-01,4.794520698692726901e-01,5.542315370470273228e-01
4.504435755461202451e-01,5.938933427418375821e-01,5.804922355716395366e-01
4.994975962942286851e-01,5.161449775211996993e-01,6.176199229771718313e-01
4.787324593383461835e-01,4.341022724960160728e-01,6.708433871614245536e-01
4.659620736583959255e-01,5.162359810339470778e-01,6.186692205876831441e-01
5.366060497912299443e-01,4.616292865208256324e-01,5.353954030467530378e-01
4.587849371801995813e-01,5.343777681339045849e-01,5.452308165752488556e-01
5.266278630971593655e-01,5.222064273566097148e-01,5.433400201939425633e-01
5.483315649715225781e-01,5.173281853360336413e-01,5.603494734909801878e-01
4.572469843776314491e-01,4.568348402884662152e-01,6.186299183615974195e-01
5.420111022329545669e-01,5.161317998418374353e-01,5.344925127528196152e-01
5.008380077415786058e-01,4.943049627896698994e-01,6.135184004923526224e-01
4.953531879917636993e-01,4.930495141687588623e-01,6.193006420623338171e-01
4.343035409270736280e-01,4.167794188886418949e-01,6.125998658818614384e-01
5.546055674933249025e-01,4.606533056502483126e-01,6.084855179958044147e-01
5.256177284784387949e-01,4.568603271116922215e-01,5.807412756277593457e-01
4.878258544821619247e-01,4.773104984467132494e-01,6.435266134771477908e-01
5.264958808334956331e-01,5.469251693787593460e-01,5.905047879981368819e-01
5.546011824789986999e-01,4.524256717430131247e-01,6.025779182891378705e-01
5.033475034598662301e-01,5.338265306353138229e-01,5.251413030903543389e-01
4.993549102993648514e-01,4.489830375027102360e-01,5.709983005477059503e-01
5.538462036505574781e-01,4.977950867259775536e-01,6.752775404572782803e-01
4.396855843236209260e-01,4.833610265545332241e-01,5.350285176810732901e-01
5.239427027099941014e-01,4.963864585343778502e-01,5.960484331215851750e-01
5.102937154398051733e-01,5.065551420811327255e-01,5.353371187041825463e-01
4.007500951161822034e-01,5.010952077159734896e-01,5.846069975371526173e-01
5.086625198509829859e-01,4.449013735384089729e-01,5.237206169719088589e-01
4.832671967780038380e-01,5.172444217269940303e-01,5.729859666991573564e-01
4.940887092973316186e-01,5.492988910934604174e-01,6.227769355063161871e-01
4.374782232575197827e-01,4.973404116997246494e-01,5.418771419354300178e-01
4.497452638169741057e-01,5.029304804093760461e-01,6.457173483196939623e-01
5.560202720400136966e-01,5.150210492820979091e-01,6.458586416139683317e-01
5.026036890301541771e-01,4.999493111650075705e-01,5.601120890722142143e-01
5.590823569411085270e-01,4.786711592750244604e-01,6.289132154393719532e-01
5.584338791039149541e-01,4.810252198001449542e-01,6.254547332213657995e-01
5.559769650319877909e-01,4.722031851841659300e-01,5.667378081266835066e-01
4.630283474308550251e-01,5.058563348911812030e-01,6.013012556720009893e-01
5.271465912270110188e-01,4.718622907437050040e-01,5.296693918043451355e-01
5.522936895619653397e-01,4.405044959217420120e-01,5.681340244359474045e-01
5.028805130743881913e-01,5.167008941889997820e-01,5.546206810970344403e-01
5.268019500351833750e-01,4.684060201491722641e-01,5.428211551703072679e-01
5.292671028647886189e-01,5.402846557585605503e-01,5.215087174147570170e-01
5.281132744759780007e-01,4.939618231429002138e-01,5.643667859715763013e-01
4.745007877549798359e-01,5.249097201976776761e-01,5.646543805481404332e-01
4.622977920431166066e-01,4.487137807379442678e-01,5.560389599855031229e-01
5.467485510542614557e-01,3.923153324176685275e-01,5.454654355662953424e-01
5.211601769240753468e-01,4.342007779473117668e-01,6.479766057094483722e-01
4.785509947296611721e-01,5.369618394271888917e-01,5.831919490623361790e-01
4.615752980701880448e-01,5.024243528708423057e-01,5.935769797970793515e-01
5.170633958199873925e-01,5.304223863140435924e-01,5.380090695928337885e-01
4.910011960648861251e-01,4.386817725811939517e-01,6.193273302222296328e-01
5.199460727792284409e-01,4.855540650910353251e-01,5.965818383998200414e-01
4.999463382302912207e-01,4.251563207407386691e-01,6.046997119792795194e-01
5.677600408198333337e-01,5.941772920358736609e-01,6.014942183805336295e-01
5.403269731815780741e-01,4.720428160440563459e-01,5.886563235805628569e-01
5.213019989392274622e-01,4.071671721376040054e-01,5.747665289720426118e-01
5.034962559016560313e-01,5.499293114940055904e-01,5.740525729893126705e-01
4.915608153295306093e-01,4.733627970340358870e-01,5.266527111992025389e-01
4.768610020532057514e-01,4.841487757884812559e-01,5.344757310794999716e-01
4.508767000205557984e-01,5.102672096817434388e-01,6.036074297542914913e-01
5.157327762895944634e-01,5.375326455172944051e-01,5.866709146061249713e-01
5.180744749660122217e-01,4.119500398997262280e-01,5.725299609926870481e-01
4.375497536061081494e-01,4.902053892515284561e-01,4.979526510832613106e-01
4.847724282060669188e-01,5.380367661684583025e-01,6.046169537230212665e-01
4.251240193764250774e-01,4.981397353063950484e-01,5.711826441453310421e-01
5.118092155717123282e-01,5.566606302477832280e-01,5.685056166783928333e-01
5.139824473876810629e-01,5.346901959627410328e-01,5.320387020895053221e-01
4.982348630536771461e-01,5.605080430989842766e-01,5.009510558960891258e-01
4.914619491306265742e-01,4.661988839415900365e-01,6.452291784660748597e-01
4.994861629765176558e-01,4.316300386596117478e-01,5.130356244118687847e-01
5.259057226014464126e-01,5.286120285839891464e-01,5.053061475444603490e-01
4.501410203448426572e-01,4.829879539021516011e-01,6.508748857409614175e-01
4.912905077747914406e-01,4.999274476531780920e-01,5.381369317629471904e-01
5.232131346299434549e-01,4.603293142075414734e-01,5.232374918657001217e-01
5.648250853793485016e-01,4.719810583222700529e-01,6.153190003101636218e-01
4.991139811561328132e-01,4.797738582089350334e-01,5.488643650755369308e-01
5.095197878301489514e-01,5.233224179070553594e-01,5.334113993886298033e-01
4.891601684759311341e-01,5.050272765686568688e-01,5.497346924334576279e-01
4.940748200540121537e-01,4.820477422926432998e-01,5.646254891583681879e-01
4.959908032632905917e-01,5.866043337208985964e-01,5.901961788168976764e-01
4.516411486417872267e-01,4.844606580703855192e-01,5.620018478058688149e-01
4.391464844409760371e-01,5.206544375182795559e-01,5.805867278123452158e-01
4.976725813064361015e-01,4.854889039900801562e-01,6.269308365634632674e-01
4.812708860995773552e-01,5.572789799810955458e-01,4.896344299832787184e-01
5.368787725657099275e-01,5.337779298360828539e-01,5.155580749370965998e-01
4.358437648500238515e-01,4.240892034216084960e-01,5.236909564346703405e-01
4.465962001988131869e-01,5.776919573754267789e-01,5.445256678829620833e-01
4.883542769220342583e-01,4.669845397955814104e-01,5.546398935232409455e-01
4.801522436060991494e-01,5.097799571331549373e-01,6.115165536884562547e-01
5.434911352246547533e-01,5.099218685346186275e-01,5.922711851581022868e-01
5.067496698134148492e-01,5.378338169798326796e-01,4.874353055528227174e-01
5.619188646902347761e-01,5.377304403986796766e-01,4.961450426478639653e-01
4.983895672297051771e-01,5.252197019141180423e-01,5.287089193810553533e-01
5.182531264076333244e-01,4.581488452343979723e-01,6.027399606651044905e-01
5.508303220799934952e-01,5.098200326560542450e-01,5.115385644968354351e-01
5.709138868225180907e-01,5.169635122588007725e-01,5.590042150088470052e-01
5.227931578245649247e-01,4.786036342160770451e-01,4.906807229869996068e-01
5.089010805375433488e-01,5.499728567826365211e-01,5.034893861410670857e-01
5.191825956910004480e-01,5.506806979514865530e-01,5.671122732260246435e-01
4.350418583229151426e-01,5.604597063150510428e-01,5.490272439786271219e-01
5.713522869039560081e-01,4.640416955162681156e-01,5.322762927487084683e-01
5.116040143507436522e-01,5.798443147135523557e-01,4.985312546138016554e-01
4.595985484321655212e-01,6.203131623518555182e-01,5.058811378940527570e-01
5.403244691194267757e-01,4.743387380911389672e-01,5.613091257172201365e-01
5.170842826216650590e-01,4.539785703602666755e-01,6.289227740136992262e-01
4.107674896786280838e-01,4.515929910001748038e-01,5.757921373312236968e-01
5.799193803711216733e-01,4.260870009079114062e-01,5.123189022154868155e-01
3.895887077845910929e-01,5.939750272453850899e-01,5.437785157619001719e-01
5.038785508381645739e-01,5.529611719720188834e-01,5.185393259440836955e-01
5.729680899996256738e-01,4.869365301877378593e-01,5.282109053415504629e-01
5.307222823291963820e-01,4.517678860302349331e-01,5.873531176861928049e-01
5.273779955657269536e-01,4.614359265949492528e-01,5.996594818371221436e-01
5.444255767520755906e-01,5.419850950682356672e-01,5.767802514075216491e-01
5.122819573751943301e-01,5.324846050371315753e-01,5.405989962540904692e-01
5.241742570929612821e-01,5.056335169489889481e-01,5.306820290547806795e-01
4.878174502922668632e-01,5.036243413326201290e-01,5.715258038510575567e-01
4.800861671868543179e-01,5.257186706662013709e-01,5.733037675188401572e-01
4.861260995083589997e-01,5.084845476630539540e-01,5.955342322043871706e-01
4.748524457880166638e-01,4.759982567794154851e-01,5.968815345304089304e-01
4.876879595641098741e-01,4.962796252610764403e-01,6.287691547013747329e-01
5.837360436075038628e-01,4.826793853288697256e-01,4.954158446299178897e-01
5.257186745745571210e-01,4.667571904382156744e-01,5.044808206763954361e-01
5.796527495486151205e-01,5.032743986489897070e-01,5.121744745682180744e-01
4.219179709178265680e-01,5.391191863525317540e-01,4.925983464096863607e-01
5.172898100948821742e-01,5.398564245694881247e-01,5.841263540508856433e-01
4.620105652860729828e-01,5.665769588509276256e-01,5.051836543418151138e-01
5.354079545134007301e-01,4.709239454328024155e-01,4.876308742918550876e-01
4.941359875127915302e-01,4.542059736536485093e-01,5.241800200752275707e-01
4.063187710438698752e-01,4.665061672335500953e-01,5.809271803517344068e-01
4.699399623621885458e-01,4.415313739442998098e-01,5.765861301692295493e-01
4.221433312621385436e-01,4.674827444164950108e-01,5.452980491037671129e-01
5.333885607500575832e-01,5.367150398755956564e-01,5.743055698376650087e-01
5.479023380270611199e-01,4.733313907158531175e-01,5.517512489880195270e-01
5.133865608394597713e-01,4.672168988065653061e-01,5.513385941198940543e-01
4.730498531625406677e-01,4.748078184241653621e-01,5.826646830118129561e-01
4.886070032862414592e-01,4.972171970775770555e-01,5.378777797968565810e-01
5.192588830351108076e-01,4.223473473483744245e-01,4.756231833216207350e-01
5.133809716546542390e-01,4.756331316745501803e-01,4.769832526267761552e-01
5.233162805453311917e-01,5.286523840515288120e-01,5.582452235188081202e-01
4.944594088595857251e-01,4.511494036820480336e-01,5.083312960330296226e-01
5.162936285501468214e-01,5.544171364922603207e-01,5.087621255858499891e-01
5.190728076718796880e-01,4.810158173881743382e-01,5.465719064360369250e-01
4.298980672138680292e-01,4.591080454551698664e-01,5.239771566279267656e-01
4.912575047884957247e-01,5.574519467590559607e-01,5.037793846856370994e-01
4.570589142690652529e-01,4.914829643750974753e-01,5.806198700709813698e-01
5.310168240734808309e-01,4.174148374875224499e-01,5.334352973752954918e-01
4.876832038065542219e-01,4.306020549036167488e-01,5.086399382975609340e-01
5.376463811142551119e-01,4.513957607902805425e-01,6.137206046611904942e-01
5.171383826681900109e-01,5.418619401488262710e-01,5.352354646111485703e-01
5.125605737577348942e-01,4.441947723594361630e-01,5.490837837501361118e-01
4.502662000066552928e-01,4.839981668418978367e-01,4.956957371439668081e-01
4.413799369638525816e-01,4.690825846386676434e-01,5.565919172844233653e-01
4.856191026641838437e-01,4.968380657544379519e-01,5.132703800939760752e-01
5.556258597147983869e-01,4.921568902350048624e-01,5.459781510544248206e-01
5.122393073382313089e-01,4.633973896543129301e-01,5.925194023380104813e-01
5.162253719948484143e-01,5.112791362391109207e-01,5.129130699529172999e-01
4.592535001028112407e-01,4.918362579586416095e-01,5.313386821274022065e-01
5.218403759681218279e-01,4.593309142770405917e-01,5.197755593951236541e-01
5.168574606723815856e-01,3.911024742268481291e-01,5.383960900242027448e-01
4.323389404670664460e-01,5.057507182863042461e-01,5.177784440685042622e-01
5.244732509181956326e-01,4.481150515806351931e-01,5.129952320234182350e-01
4.094635361648249483e-01,4.856064326636081452e-01,5.791698439119021824e-01
5.476246092920746822e-01,4.405471907922511865e-01,5.619756316947581709e-01
4.733646289366013060e-01,4.679697442900310755e-01,5.393044948432880181e-01
4.279024610513254001e-01,4.827271925515828621e-01,5.492318083474595491e-01
5.579827804670297597e-01,4.862991785204566209e-01,5.417336156249835666e-01
5.299482485103785834e-01,4.506728716507684140e-01,5.287281412062191377e-01
6.087406752980829561e-01,5.270537887316210091e-01,5.434752901454776852e-01
5.242791246197882060e-01,5.105324485372315646e-01,5.256666490746233489e-01
4.552689964881655449e-01,4.798964487567717874e-01,5.629966687095149247e-01
4.498814917988622764e-01,5.638429847007110363e-01,5.801326819480205899e-01
5.042163845446140380e-01,5.516149505242855522e-01,4.889001118853114058e-01
4.436797980808720454e-01,5.470102765383992871e-01,5.705264510313055037e-01
4.986899385070324153e-01,5.666055738611289749e-01,5.993196813062475758e-01
4.851944185590492120e-01,4.322512512431987974e-01,5.622559309964683116e-01
5.162454690971546301e-01,4.802168356380019376e-01,5.455568201576361798e-01
5.164706414660787948e-01,5.386558874474165481e-01,5.438128513227350469e-01
5.312544144284474523e-01,5.155872352740010767e-01,5.972023820651325421e-01
4.925137862285243195e-01,5.079765175061924376e-01,5.457684010627412707e-01
5.048202346252669281e-01,4.942354679037620491e-01,4.961819457304950665e-01
4.450873595540441041e-01,5.182408112386653887e-01,5.315166373908206676e-01
4.884366625846213728e-01,5.604534127972372604e-01,5.028653857313082343e-01
4.856181738091790434e-01,4.892232037180594406e-01,5.767175187875809295e-01
5.074868091945115012e-01,5.011542811996286817e-01,5.308485199838679502e-01
4.415613586274571567e-01,4.476037627774718253e-01,5.719120709282635717e-01
4.591448884899869132e-01,4.746251874018418970e-01,5.391834552168639494e-01
4.884016294710091244e-01,4.969575734085978080e-01,5.197703288153965318e-01
4.721340985379754995e-01,4.847148970104755428e-01,5.144609307665000131e-01
4.921319664197795207e-01,5.470082189290255137e-01,5.448187234782010391e-01
4.737036236018162816e-01,5.757459311552542980e-01,5.576563050483422934e-01
4.921942936873815455e-01,4.847573556304998754e-01,5.192417201794715664e-01
5.703266106694405702e-01,5.300175943043679005e-01,5.728015686875282952e-01
4.529404571345954644e-01,5.200416863456307492e-01,5.318732624555212452e-01
5.274180489910128555e-01,4.791335251386451555e-01,5.287707690853599152e-01
4.933007890232340986e-01,4.670382585417380272e-01,5.168633254986982895e-01
5.723230161460439724e-01,4.640922601859198138e-01,5.820049626453556169e-01
5.835959255023975834e-01,4.510704717683077791e-01,5.088031059714899218e-01
4.977097330986575696e-01,5.410507409031973802e-01,5.569487476047880747e-01
5.243322973426678413e-01,5.597840607859367879e-01,6.215052747764757690e-01
5.171910927335466868e-01,4.654301182625981137e-01,5.617094751135428554e-01
5.341780355830075822e-01,4.529544151908354022e-01,5.675749471909486976e-01
5.074732738911373886e-01,4.746219684139521555e-01,5.385803241673047248e-01
4.786268558542699503e-01,4.942936995748617446e-01,5.226610878103066238e-01
4.969889088389217724e-01,4.842539050958890590e-01,4.903001011708357781e-01
5.096261021310208861e-01,4.849968646107638559e-01,4.584014452988444677e-01
5.138843766481785424e-01,5.673719953820516304e-01,5.945898938323077587e-01
4.793028570323235038e-01,4.619968252341352666e-01,5.653965374953949796e-01
5.673655330601548030e-01,4.763497251971459678e-01,5.347645974281702852e-01
5.337994405804372677e-01,5.236923068468799514e-01,5.518392665279168163e-01
5.359063095502355489e-01,5.386129357246584037e-01,5.520020938557246293e-01
4.501367778022593025e-01,4.429867999910435672e-01,5.131080386577915320e-01
5.205709717227847699e-01,5.437295149030670904e-01,4.905146524552137510e-01
5.480563596920163816e-01,4.836684650702846588e-01,5.522553152977753843e-01
5.518545163633242767e-01,5.093562391266241995e-01,5.575006817239724910e-01
5.594570279171392491e-01,4.311489997869812352e-01,5.157090407467229687e-01
4.736188164064372152e-01,5.028569649903467109e-01,4.544305191739335115e-01
4.689290732301249487e-01,4.659159182696906987e-01,5.540165849155100908e-01
4.903173676626403354e-01,5.743513943610181194e-01,5.242123564101272004e-01
5.025324919557666581e-01,5.162844333335488978e-01,5.778647721127018189e-01
5.164030554642572435e-01,4.599126352284350627e-01,5.187780085688545872e-01
4.940014361849209279e-01,4.741686775391918962e-01,5.320909276728230664e-01
4.471533754596300203e-01,4.706679388142383513e-01,5.940307613150315191e-01
5.075087958892140483e-01,5.415728865261574265e-01,5.489458033953776850e-01
5.738457065810046442e-01,4.698482027234309188e-01,4.805900754087253923e-01
5.050058085366666560e-01,4.564628076551484614e-01,5.038395413877271301e-01
4.813339295469306056e-01,5.322824799771151971e-01,5.158197335714468368e-01
5.084099113060874808e-01,5.724859361434695426e-01,5.178269026428243826e-01
5.038773608870442677e-01,5.411643110833430637e-01,5.490115126467867146e-01
5.499909558160992473e-01,5.411319033275748813e-01,4.826116290560893973e-01
5.032723923487848472e-01,4.471523685742774257e-01,5.883215409605080382e-01
4.583965361942144989e-01,4.904359219994808838e-01,5.633414640954860220e-01
4.964617656274694646e-01,4.281308581515860245e-01,4.746295017586290022e-01
5.100346646931375183e-01,5.389826312123230379e-01,6.021605980242579204e-01
5.160783726937087090e-01,5.299195484435367254e-01,5.066192260483697307e-01
4.088527875169878922e-01,5.160808587403128422e-01,5.045865765284508475e-01
5.155673626931031039e-01,4.854591607579433199e-01,5.042378645457611386e-01
4.626528128154275277e-01,4.741655572840862698e-01,5.555369821516629170e-01
5.979736960652533018e-01,4.942347611022622766e-01,4.940487195473122206e-01
5.721527866335548440e-01,4.389439219641772527e-01,4.463428918401579071e-01
4.262137989147332662e-01,5.203973009741683642e-01,4.591774525588601663e-01
4.509411094700228051e-01,4.984983087700087245e-01,5.174423570966707464e-01
5.099442340460509371e-01,5.432331849025331394e-01,5.998618194059394115e-01
4.648125827229045437e-01,4.983369061069066741e-01,5.776838854018017111e-01
5.568871118560418942e-01,4.685154370105458765e-01,5.521796690981503053e-01
5.456139219184699130e-01,5.282858538948057570e-01,6.183268371449731626e-01
5.211655667122632174e-01,4.183834989899356538e-01,5.938494520291399681e-01
4.555130505967895926e-01,5.028748910359666091e-01,5.558470465685617645e-01
5.022788129698690929e-01,4.416721554061502908e-01,5.019210003504593898e-01
5.446177380898860054e-01,5.192821320814423602e-01,4.862894827773569517e-01
5.100998469532184165e-01,4.794666045188500370e-01,5.842040583813146171e-01
5.704167188286388690e-01,5.047186144450590550e-01,4.882374286457601409e-01
4.644747149727722069e-01,4.388593788803319962e-01,4.588348654438227370e-01
5.213138096799859733e-01,5.208624755100612624e-01,6.265757128263774733e-01
5.756418659843347552e-01,4.573338513035115072e-01,6.147176124265698594e-01
4.772395338784707342e-01,5.005024938140162361e-01,4.997779346456827643e-01
5.049491843834057470e-01,5.252989355994436282e-01,5.405542579253023172e-01
5.885394270810904160e-01,4.528232295144614117e-01,5.289378339322301503e-01
4.622564084740718449e-01,5.166645102261314682e-01,5.551992900810341913e-01
4.112343500865692225e-01,5.085361734270967826e-01,5.558782122445556917e-01
5.214781852820095098e-01,5.030109506938381658e-01,5.665846223775768964e-01
4.788067198792951840e-01,5.416559780151548598e-01,5.600357307668574203e-01
4.511951636128892495e-01,5.326986904345433205e-01,4.377168511463400691e-01
4.642152444411309364e-01,5.143355890974006250e-01,5.730046254033827058e-01
5.171283914235147439e-01,4.873949767285721824e-01,5.410547453453729005e-01
5.422090763097998645e-01,5.122099435758956654e-01,5.378812166575674958e-01
5.168579526408466629e-01,4.977199210908972993e-01,5.067109074451081607e-01
4.424093060098013286e-01,4.881281393849966066e-01,5.680922259521782314e-01
5.085596993510435038e-01,4.984814864041708371e-01,5.441857272055492523e-01
4.588303988937146305e-01,4.453483611890693417e-01,5.377437496085515356e-01
4.415515990178987549e-01,4.636392517187257201e-01,4.842975953931039079e-01
4.785840344229573273e-01,4.217696736759991571e-01,4.769284115874664609e-01
5.146723658670574464e-01,5.021833640645435581e-01,5.193952897672744484e-01
4.447015034494212204e-01,5.076513819510073411e-01,5.599679754866235815e-01
5.215398560857531507e-01,5.047441182245727687e-01,5.381576489026991261e-01
5.298035500299976830e-01,5.067588400666157566e-01,5.332100112667104153e-01
4.845330060646095283e-01,5.138650864348953684e-01,5.315831123959912086e-01
4.756757113080858912e-01,4.876460874798789202e-01,5.402101767587355052e-01
4.622692290870467069e-01,4.440441240367873910e-01,5.595584889505839099e-01
5.713135163148710394e-01,5.067966158854070313e-01,5.629650125369082270e-01
4.954017533911598270e-01,4.990926804941641093e-01,4.842863987844042151e-01
4.459997521169175028e-01,5.167590830796398027e-01,5.003473289292577064e-01
4.882690343943164590e-01,4.431179220923912587e-01,4.890699184693670376e-01
4.707656348509476341e-01,5.915113029216209073e-01,5.159048436584697805e-01
4.993844605312057761e-01,4.802027491981487040e-01,4.771957220921323461e-01
4.061800864719072868e-01,4.727868435505057088e-01,5.549571192844812151e-01
4.505157537830814518e-01,4.677044535940177994e-01,5.137256072934861528e-01
4.926162608295203693e-01,4.826078564245984137e-01,4.878247172094384854e-01
4.895765204135356097e-01,4.595026023614995347e-01,5.153946441547000434e-01
4.830600943846531936e-01,5.621778252755410543e-01,6.423621908466989883e-01
5.588045615660756082e-01,5.018078426381161750e-01,5.616880096069034600e-01
4.437545479763412848e-01,5.423347804730309640e-01,5.330189440817406643e-01
4.748879889519465602e-01,5.207657714239148916e-01,4.788442265586956292e-01
5.385182748282509868e-01,4.671601635167164090e-01,4.988028314919326633e-01
4.937662613809413736e-01,5.293263120550408818e-01,5.145173856908863419e-01
4.932793024821700567e-01,5.659142222225354013e-01,5.578447526479328733e-01
4.235795063998298859e-01,4.307468648137304790e-01,4.975434642281343356e-01
4.152181557416255719e-01,4.157830891401341211e-01,5.230207308610418382e-01
5.046238081282883314e-01,4.969510818161227972e-01,5.805054814257997187e-01
4.835052197894741943e-01,5.121382543501663553e-01,4.988863350191581336e-01
4.695878948361795757e-01,5.146584543871659534e-01,4.749273386999472990e-01
5.382364827876431335e-01,5.027157318426143107e-01,4.395842462256151495e-01
4.904655111113432886e-01,4.877738265108621518e-01,5.525926836234562600e-01
4.330484487212642453e-01,4.544859630647988813e-01,4.826753371155832473e-01
4.975504613306598878e-01,3.967691987423003774e-01,4.587842182695648363e-01
4.361455146692677087e-01,5.163927778101897736e-01,5.329647620864024216e-01
5.408376512922854484e-01,5.189510972505532171e-01,5.366630749285651314e-01
4.580721305283793066e-01,4.941733257640656962e-01,5.634178496006244652e-01
4.820204509360480061e-01,5.022136760008735212e-01,4.941202844317862941e-01
4.678915648239754810e-01,5.320222478044838166e-01,5.170260800124293343e-01
5.200333483370793708e-01,4.931137478114164807e-01,4.677720796983929064e-01
4.269403586288038621e-01,5.200081144167730818e-01,5.614396883303995889e-01
4.290823592373836926e-01,5.069306396914280421e-01,5.267251168360411739e-01
4.617243732497766096e-01,5.000383413761601004e-01,6.207722276604072942e-01
4.845184158794844098e-01,5.572037215852115866e-01,5.510608554917434398e-01
5.000199978469497264e-01,5.176162644170791971e-01,5.309189833956443616e-01
4.495779037179188364e-01,5.038616455816667949e-01,4.692983007165751341e-01
5.603233908988610734e-01,4.156116806126248786e-01,4.862352840375807617e-01
5.050983500402289605e-01,5.400033004471445075e-01,5.421513148644716562e-01
5.297163174452976797e-01,4.829639606123948825e-01,5.716655455818943077e-01
4.931016422118933429e-01,5.472709689572469172e-01,5.257554046809167492e-01
5.297739225585019751e-01,4.692444191881041671e-01,5.541451287205657605e-01
4.456392842462250092e-01,4.789126344499112786e-01,5.549370116855275592e-01
4.787463204397706673e-01,5.041279920033229223e-01,5.053652554998651070e-01
4.910099510881051899e-01,4.456126086362410810e-01,5.298615641779658159e-01
5.467516257134392710e-01,4.909292053296144820e-01,5.070311925610297976e-01
4.381143601175823132e-01,5.574428135166671350e-01,4.690186445273553106e-01
4.253320124322169105e-01,4.527552583413246290e-01,4.976411760825047992e-01
5.666856652908526248e-01,5.009683531267098422e-01,5.291102035527546210e-01
4.983122828136952176e-01,4.986331330048076604e-01,5.088559398362687558e-01
