accel_x (m/s^2),accel_y (m/s^2),accel_z (m/s^2)
8.911611055394171033e-02,8.818309013268887497e+00,1.006023909324273435e-01
9.525268033854972227e-02,8.806295873898019266e+00,9.428601789892711305e-02
1.051352854792329261e-01,8.810522581015680643e+00,9.802150753575437914e-02
1.047976030327929381e-01,8.812739578957543785e+00,1.048135835502011642e-01
9.048174813326866073e-02,8.820975115515071963e+00,1.024288133668610767e-01
1.064709232415549101e-01,8.819269904052667641e+00,1.024554523457007482e-01
1.082126522860552553e-01,8.819656132499819279e+00,1.008963896464643573e-01
9.285593738564161537e-02,8.812217173825423799e+00,9.973059137711391686e-02
1.050794399456156936e-01,8.816228893909467956e+00,1.112723607728655223e-01
9.518498327668682701e-02,8.807563719930483259e+00,1.032391074827590377e-01
1.002301577192494936e-01,8.814599834890989527e+00,9.047207424436046197e-02
9.856172760599180016e-02,8.818527592057654019e+00,9.129964758210395992e-02
9.721338540657895044e-02,8.816363865012736056e+00,9.290968721512593564e-02
1.014041218841859882e-01,8.813506555490164374e+00,9.535644959487268868e-02
1.029569360294190355e-01,8.825525656628618876e+00,1.002211796930320559e-01
9.289501145060982679e-02,8.814410778704928617e+00,9.659455688819071351e-02
1.030202334332738501e-01,8.814817959680103954e+00,9.619122864950255258e-02
9.285944179099717144e-02,8.812054304489135959e+00,1.051330544341170375e-01
8.645542801534433774e-02,8.819933489729100629e+00,9.888821632576898224e-02
9.994337220710537706e-02,8.818324210727627843e+00,1.091317059663125533e-01
1.023674271100996763e-01,8.801516947013032777e+00,1.032795666785182309e-01
9.948104248189471033e-02,8.815126965123500469e+00,9.854836593687182900e-02
9.960952807303918854e-02,8.810294098085151404e+00,9.792932270457599397e-02
9.053116914888058309e-02,8.811742030720251861e+00,1.010583827625701620e-01
9.742564431199374209e-02,8.814931781755673157e+00,9.598540606199612579e-02
9.599340891549354438e-02,8.819426685243797692e+00,9.483041879377948624e-02
9.687753281283384421e-02,8.810489562827436671e+00,9.409791925633040344e-02
9.376810333863030977e-02,8.816346600523681687e+00,1.016040341099147398e-01
1.030182049742655592e-01,8.820792178352197865e+00,9.660987195816876649e-02
1.051166215487521899e-01,8.815605482808035021e+00,9.450784926649291595e-02
9.557425642684617972e-02,8.820501764392888688e+00,9.120379625503294285e-02
1.037578657572040819e-01,8.812580816142553175e+00,9.071162448158578973e-02
9.950932868083116334e-02,8.817931762471921786e+00,9.951061614214141982e-02
9.724573105968396802e-02,8.822931858974047969e+00,9.565743817345200017e-02
9.800369989918426838e-02,8.816874901848466450e+00,1.055336089184747833e-01
8.697793232597847424e-02,8.814849457107269970e+00,9.794042982975458000e-02
9.977783530382963728e-02,8.822805184435674519e+00,1.022661196075544676e-01
9.677721808867713327e-02,8.823742847668341938e+00,8.768550901451069302e-02
1.067514770298108595e-01,8.817558728827499692e+00,9.797383917203238146e-02
8.558162654147789816e-02,8.813939888758874019e+00,1.036829198775219701e-01
9.367938200288718209e-02,8.810717640883753532e+00,9.787214697110384332e-02
9.653195300684595803e-02,8.812451937985841255e+00,9.409844523608930367e-02
9.450276259862991357e-02,8.817590190703569419e+00,9.587543294872817590e-02
1.008708614968579498e-01,8.814877331891242562e+00,9.320579491201180788e-02
8.346824343949760250e-02,8.809336306265690197e+00,1.035406758388779935e-01
9.740017301011112683e-02,8.819609967378221782e+00,1.059682814193139144e-01
1.011614948212711945e-01,8.813928454040267368e+00,9.275937340828964428e-02
9.581028130007143706e-02,8.813376679338267294e+00,1.021000043856146872e-01
1.026695441629825317e-01,8.814162997256788756e+00,9.629961884764920432e-02
9.981105617101804217e-02,8.824906829704469047e+00,9.789431469916966277e-02
9.743946322641998392e-02,8.827035428487992164e+00,1.012895703311295081e-01
1.059951306994442732e-01,8.815063467525259711e+00,1.040125230299851627e-01
9.778412349075096821e-02,8.823868164624300903e+00,8.640847016754152343e-02
1.041182229237490181e-01,8.816953856447446114e+00,9.593683363555766119e-02
8.878537256399485211e-02,8.810884895740038303e+00,9.014301650133577093e-02
9.115015549630264835e-02,8.817853601584877410e+00,1.033231544287298853e-01
1.027734691162042052e-01,8.814659770577636166e+00,1.057144346625226577e-01
9.653397604496179174e-02,8.815486702067197200e+00,1.040479947044909981e-01
9.557704662778221394e-02,8.817260172777498184e+00,9.543565149455526808e-02
9.787335509547380463e-02,8.815904358301040133e+00,9.691197933221828986e-02
1.026520617966722726e-01,8.824780565467968074e+00,1.006671504357029429e-01
8.947325123796136259e-02,8.813934698667441836e+00,8.931765368874351740e-02
9.815488295033468480e-02,8.820406740743502283e+00,9.864799639651465613e-02
1.009685987042362731e-01,8.810480620922659156e+00,1.090671221008306657e-01
9.965466285247455425e-02,8.816398386236917517e+00,9.218112779290363323e-02
8.277147542634480382e-02,8.823362747401709782e+00,9.436875112850667824e-02
9.968150392609131938e-02,8.812008324355140587e+00,9.764174705870622140e-02
8.749937693976075903e-02,8.818000457592081176e+00,1.053350973087558151e-01
9.150297793148347292e-02,8.805673911708762347e+00,9.857186463270886656e-02
9.290342026446340995e-02,8.818684337468207346e+00,1.024886170897244680e-01
1.099558095810547892e-01,8.806201533959667316e+00,9.725808128737969960e-02
9.377948860367407713e-02,8.806269643692550275e+00,1.030880394555228757e-01
1.112978671369928702e-01,8.808953364692966304e+00,1.032185554365175201e-01
9.341832853144177440e-02,8.817070491339716654e+00,1.025817693982659651e-01
9.179151214385784796e-02,8.809252223913013324e+00,1.015747186299863769e-01
9.270556218394020165e-02,8.816829372315259761e+00,9.561987322288667546e-02
8.713768016883602363e-02,8.825860964206031056e+00,9.637642160023095206e-02
9.310278984407627245e-02,8.817595016028867860e+00,1.033282222199721628e-01
1.006209186338150735e-01,8.815383514822615396e+00,9.478661921747608132e-02
9.826991471934029554e-02,8.807146526798499409e+00,8.913874585668760120e-02
1.039634703061156906e-01,8.810895565678638519e+00,1.005575900327312783e-01
1.038186401272551407e-01,8.808177168946031088e+00,1.071405077678986156e-01
9.853026646491792884e-02,8.824173496912942838e+00,9.678123269005617368e-02
1.062899948317658216e-01,8.812559010224616074e+00,9.471852123143403857e-02
1.017807690828675532e-01,8.815497588096965487e+00,9.819279226442209629e-02
9.638292764555260461e-02,8.817064211522255945e+00,8.879372001600630004e-02
8.985951188223628705e-02,8.811691343297875179e+00,9.667883126700900498e-02
1.022488289028409131e-01,8.814679124663124199e+00,9.772838853097393086e-02
9.369046351276420770e-02,8.818235280392283215e+00,9.333614498660283698e-02
9.417886159836992566e-02,8.818144969685397072e+00,1.010214899549614909e-01
9.521897591124126037e-02,8.818300159982134900e+00,1.102518677019389132e-01
8.863465514043646076e-02,8.812511558188013794e+00,1.021586245742330812e-01
1.037850094424137004e-01,8.810833912870627671e+00,1.018537879472665997e-01
9.771482519803217914e-02,8.813285855975282246e+00,9.379118423702891005e-02
1.025892681582072086e-01,8.816660227823465590e+00,9.833038984536941751e-02
9.527166594567176849e-02,8.820118676051839302e+00,9.584294932174007575e-02
9.344311824046988568e-02,8.814248922516155105e+00,1.033820827144755899e-01
9.997823276905064283e-02,8.813171533671953384e+00,9.583242157756852175e-02
9.879450799261112193e-02,8.821662903379857923e+00,9.714604322705495953e-02
9.223651383783762481e-02,8.812053074483429782e+00,1.046424544774547244e-01
9.949899137962484041e-02,8.809601653676912392e+00,1.015431664938792056e-01
9.590533924547671452e-02,8.810907841744972657e+00,9.407524163692738972e-02
1.007246521389016936e-01,8.820394160594705824e+00,9.653178092108906372e-02
8.863545281088205940e-02,8.817411033614186877e+00,1.053781881676320725e-01
9.883995188722172198e-02,8.814448877385581582e+00,9.910687474663186503e-02
1.038829172448939714e-01,8.819716163111683827e+00,9.941664852561078736e-02
9.999180481499449213e-02,8.813372175284023058e+00,1.001147483863886328e-01
1.004004931925646937e-01,8.814367409583395485e+00,9.921072329865295025e-02
8.890585524708752296e-02,8.808954380655585226e+00,1.018567866429713059e-01
9.612398806687501296e-02,8.816096674046546511e+00,1.040049598313400880e-01
1.012862672403649078e-01,8.813002109028323261e+00,1.011024790329297790e-01
9.600808874120103642e-02,8.817466834953270549e+00,9.907708304865789350e-02
9.588332287395817666e-02,8.808770551797573845e+00,9.263997063666221110e-02
1.028730932628523081e-01,8.813129487145022978e+00,1.007715923248900247e-01
9.659746651117664951e-02,8.816116934242574033e+00,1.001463534930395055e-01
9.666418348992519838e-02,8.818099602654800862e+00,9.917357561580106284e-02
1.001179819944133381e-01,8.824628265203561028e+00,1.049378679245984436e-01
9.430195927457410421e-02,8.814038735040520933e+00,9.914021833522781990e-02
8.942109325318925439e-02,8.812698912519143946e+00,9.234597159416754741e-02
9.051828899325831124e-02,8.820683363104857122e+00,9.785380119605262272e-02
1.050847460163797931e-01,8.823965743426562369e+00,9.760209431866587182e-02
9.958769646880384629e-02,8.823695249888459102e+00,9.284709273842051136e-02
9.282391019096665474e-02,8.817211902687239089e+00,9.670440894891195460e-02
9.705412455631957924e-02,8.814547859203546665e+00,9.186483406097611937e-02
1.108785093067327643e-01,8.811704613681106579e+00,9.854730468768337082e-02
9.938756030411094455e-02,8.819952537973195561e+00,9.876033581640077108e-02
1.028439214360955672e-01,8.813385699335302803e+00,9.796262459229906905e-02
1.015823514939180050e-01,8.809451950346712579e+00,9.668219570202904456e-02
1.041994806988098821e-01,8.828189121076684742e+00,9.874623251335337693e-02
9.502026935583006428e-02,8.806183566002134810e+00,9.906964318485773913e-02
8.814390709504535404e-02,8.816463687757790879e+00,9.277642128372916297e-02
9.828462082565055102e-02,8.818054244779951034e+00,9.235896551356935491e-02
1.002984314490335677e-01,8.818243511715428085e+00,1.102780797146284686e-01
9.427535749320686831e-02,8.815589403693017800e+00,9.375909949233614260e-02
9.781516728179795450e-02,8.815424929131163267e+00,9.927387724634142985e-02
1.019726554173407129e-01,8.821062559992670415e+00,9.209302949675599037e-02
9.123747219843653111e-02,8.817090780607347966e+00,9.724510349691220523e-02
1.021168881795958411e-01,8.823731165145062505e+00,9.945270360372408802e-02
9.349314462941614445e-02,8.822597825023915874e+00,9.387057223096446912e-02
9.765248956666806868e-02,8.810670840352067046e+00,1.046531669026131151e-01
9.896143937079707187e-02,8.823841013410516965e+00,9.407406466856980953e-02
9.235694721259417317e-02,8.813158950301925643e+00,1.038114898040592010e-01
9.879496151100505830e-02,8.813918681535612976e+00,1.000024564884836736e-01
9.915597065954444289e-02,8.823995504503988840e+00,1.042358158269282437e-01
9.273392672016661509e-02,8.820744334759044847e+00,1.018858351607261487e-01
9.825365318408614546e-02,8.818095968578298027e+00,1.022630741632669232e-01
9.778200637337769452e-02,8.808180850108216831e+00,9.429175489790769804e-02
9.119820321950006248e-02,8.809522059275719741e+00,1.039728490357727797e-01
9.571408906708135655e-02,8.810321768716528723e+00,9.303889618113661553e-02
9.860664508447261611e-02,8.820897252025401869e+00,1.034831868715827552e-01
9.674470334171342278e-02,8.816161325374539004e+00,9.402808616375257778e-02
1.004954176854643555e-01,8.822552556105684118e+00,9.867080420862750501e-02
9.475305720630934625e-02,8.809185599842306758e+00,1.003886766067872277e-01
1.057508207887117718e-01,8.818116789826678570e+00,9.595109908907255292e-02
9.278771102341902555e-02,8.810862551547618438e+00,9.977493168962553449e-02
9.349479335307105121e-02,8.816503609015208909e+00,9.863120848531765905e-02
1.009719837683245580e-01,8.817120850874703208e+00,9.938228788516724477e-02
1.044369016452321580e-01,8.818358192937285622e+00,1.038017783600535815e-01
9.143437256275603608e-02,8.812469553989233262e+00,9.707274566566793939e-02
9.424580847463145949e-02,8.799713940651688659e+00,9.087602522429333307e-02
9.671114175620355857e-02,8.815638526126340579e+00,9.377635403734652098e-02
1.040951300993757378e-01,8.819717263967776333e+00,1.015428820165590190e-01
9.878778530960626025e-02,8.817695642947533941e+00,9.829382815270254481e-02
9.531491484390963720e-02,8.818922591997674587e+00,1.009625736120986494e-01
9.764220530933069575e-02,8.815126031691407960e+00,1.038136759243250828e-01
9.677249018295057403e-02,8.827018528758452831e+00,9.863162465124815370e-02
1.026020052998662252e-01,8.816066590791585611e+00,9.958524456555105375e-02
9.681275328230326549e-02,8.815830396086417053e+00,9.952045870154142826e-02
9.461390427692559224e-02,8.810749492337876632e+00,8.299581844417272536e-02
9.919311929814778050e-02,8.817553512402955818e+00,1.045233769568739701e-01
1.036901272378428912e-01,8.815500846540999191e+00,9.942231703362391926e-02
1.025201666045705562e-01,8.816646336338028078e+00,9.328912045273797526e-02
9.329364634852790883e-02,8.815415059220864435e+00,9.651313756342938532e-02
1.003446192391295455e-01,8.814258117376631674e+00,1.055805135862469546e-01
1.005902558235948485e-01,8.815241806554791282e+00,1.049604703870603006e-01
9.288244583840321589e-02,8.817836691854475717e+00,9.926439668204420363e-02
9.779604257173110660e-02,8.819584850091240824e+00,9.546672149183225986e-02
9.031480737018435234e-02,8.827400444440391070e+00,9.153625565308054490e-02
8.935209079918303432e-02,8.812666568481590801e+00,1.094898352164865030e-01
9.296133317159877008e-02,8.817906657844572393e+00,1.052703906862119815e-01
9.966364286217938018e-02,8.822665652371316725e+00,9.918674472270772036e-02
1.030347900994855875e-01,8.819615731135854730e+00,1.014610931325154036e-01
9.624468774335329102e-02,8.823928558868828986e+00,9.552465777348706499e-02
9.471083509147201762e-02,8.821775333188554669e+00,1.055464489816392987e-01
1.069856028630823547e-01,8.820826986628517830e+00,8.913414171666753094e-02
1.038302899187070610e-01,8.819215182449593016e+00,1.045678506059685431e-01
1.042606342229174116e-01,8.808036535167639514e+00,9.726719292415812734e-02
9.574119804479937212e-02,8.815071875887264596e+00,1.028689424888416665e-01
9.813383316798574008e-02,8.820620683752602886e+00,9.438105295542072171e-02
9.709699611592843838e-02,8.816515424570312121e+00,9.626423893318539204e-02
9.475129471019445859e-02,8.816578913200027401e+00,9.355415288174485922e-02
9.829578053185979158e-02,8.818149645732299646e+00,9.629967617807769220e-02
1.002370284562231623e-01,8.817454152099806208e+00,9.001441451499897495e-02
1.005650519733041343e-01,8.819890962096003761e+00,9.806152424494718467e-02
1.003891668917412661e-01,8.815456068251483757e+00,9.213670501318775574e-02
9.606181416008616192e-02,8.816511133416895518e+00,9.927318790254682779e-02
9.943135234548991508e-02,8.814588868058296001e+00,9.433530786868954410e-02
1.007831299839718614e-01,8.811433662875028716e+00,9.954269992887387897e-02
9.645940219350923606e-02,8.812579431811958131e+00,9.818023372796148840e-02
9.881793528415300232e-02,8.810409169128295304e+00,9.698347292986725376e-02
9.505182945689727436e-02,8.817190098607893489e+00,1.010361913005405204e-01
9.659101434027896060e-02,8.820961680735567967e+00,1.022301058797645129e-01
1.030674257910228764e-01,8.820616910067039740e+00,1.032508257592003598e-01
9.230361222636225549e-02,8.815981380016511437e+00,9.236157233292574542e-02
1.004437633396436103e-01,8.818475543676688844e+00,8.952114483730951033e-02
9.549642761923385348e-02,8.811375674397305957e+00,1.057727303685327691e-01
1.002442560836946661e-01,8.810743937257660363e+00,1.039205564198831255e-01
9.470332843930301392e-02,8.822149862801145659e+00,1.022385825947560306e-01
1.041582001318445277e-01,8.833863187534767292e+00,9.678697626940512000e-02
9.720134731826379770e-02,8.813157026405571415e+00,9.227191570588695602e-02
8.992296817094022621e-02,8.812783582877182553e+00,9.603320978471252545e-02
9.388906005648828268e-02,8.817345731851990109e+00,9.027723489488152786e-02
1.073653963799695576e-01,8.821871075000011331e+00,9.609671251136789327e-02
9.608024650967697533e-02,8.815169853173362213e+00,9.489702732223652404e-02
9.610970936507763629e-02,8.817656747130071082e+00,9.112279093103063665e-02
9.244453129008171899e-02,8.819257161302401116e+00,9.553513250088199737e-02
1.051675406484892800e-01,8.816675649697463868e+00,9.145900003149251556e-02
9.337829749744049057e-02,8.812201462715471223e+00,1.041269266308461339e-01
9.831611279906418699e-02,8.819026075775667550e+00,9.949917279262140979e-02
9.989609249227104915e-02,8.818056716238629633e+00,9.898784714362698911e-02
1.023317073523092452e-01,8.819216009307933035e+00,9.597474528159243012e-02
8.719659657659835361e-02,8.818828893482789866e+00,9.871765345943338266e-02
9.649484377792155732e-02,8.812026699241277683e+00,9.232155449217345489e-02
9.773714778043143814e-02,8.821454911615273176e+00,1.063422414607231581e-01
1.010333094547451183e-01,8.810313659084929583e+00,8.357160504644636778e-02
1.058286210851005216e-01,8.808490689424882447e+00,8.691745159153746458e-02
9.690331593605590321e-02,8.802959566912791800e+00,9.319200077861340692e-02
1.018027480327833439e-01,8.818176096289050747e+00,9.283026774082853150e-02
1.030337511914350135e-01,8.816185551759126326e+00,9.867973453788733695e-02
1.078496684868514022e-01,8.819900234827933616e+00,9.314309958401569001e-02
1.002096287782083539e-01,8.811284001456142434e+00,9.254558929920114752e-02
8.720459144855965961e-02,8.824768030776834138e+00,9.684339357148021021e-02
9.598966541909363659e-02,8.818971673771129005e+00,1.008586770131768562e-01
1.008965910436003255e-01,8.810713342288604366e+00,9.259166884216717130e-02
9.397431911520308379e-02,8.824455444722593356e+00,9.283089165509425533e-02
1.026007942453828620e-01,8.814814862103649062e+00,1.029391883792429019e-01
8.984998378878866765e-02,8.818436783211865304e+00,9.996332293902118749e-02
1.015602209195087674e-01,8.819625304861279602e+00,1.006749625971962991e-01
9.914851289200099504e-02,8.811216148492142963e+00,1.001895408942937160e-01
1.018097357136848596e-01,8.816237378318128037e+00,9.386065552674920098e-02
1.087992791736675513e-01,8.827371161361609708e+00,9.871856598838109342e-02
1.009314990111517957e-01,8.816385711465009933e+00,1.082629614698231296e-01
1.017406693741391005e-01,8.812501521062513277e+00,9.491504177884202420e-02
9.472358846830199186e-02,8.828627387604930377e+00,9.318957726494379867e-02
9.840699671024651096e-02,8.822518528914175207e+00,9.544669622395884900e-02
1.067757273918978206e-01,8.818084629498899929e+00,8.283598158947057255e-02
1.010242385593823206e-01,8.812568526099619604e+00,1.040293618662614938e-01
9.923537225608670964e-02,8.820208312343378765e+00,9.761865095265749581e-02
1.025828268991474945e-01,8.809634010212342048e+00,9.451384061411478854e-02
1.019574291517468811e-01,8.814125743058790263e+00,9.762462879307720609e-02
9.555351773403704396e-02,8.815800634283446513e+00,9.127350893432406576e-02
9.780718129293367036e-02,8.814046365701823760e+00,1.007205055952447581e-01
1.049721480149838626e-01,8.813723924298610513e+00,1.049434305619226654e-01
9.184503727356860270e-02,8.816379871632186394e+00,1.016083605592842803e-01
9.651946531246118066e-02,8.817201154070120950e+00,9.619369088195495188e-02
9.060820608298315870e-02,8.808410827529314702e+00,9.744251903004140514e-02
1.016313308200155890e-01,8.811589661925774308e+00,1.072955674858705188e-01
1.030622439800015361e-01,8.821616263290966486e+00,9.730547792707511245e-02
9.795676265091422807e-02,8.820098105084479556e+00,1.079332728041617756e-01
9.633498971926079957e-02,8.823038594721644756e+00,1.060337888382353599e-01
9.466744119344643049e-02,8.806278675207098061e+00,1.024154199464312187e-01
1.039160249479028353e-01,8.810448407924971193e+00,1.000049662683881180e-01
9.251448747732510247e-02,8.818821777332622958e+00,1.021933843161192540e-01
8.984215952616626810e-02,8.820136778826205060e+00,9.143020518035817334e-02
9.527763354709888055e-02,8.826659072941181350e+00,1.017070025085289597e-01
1.027454665006755641e-01,8.814534998481498462e+00,1.093602434681925778e-01
9.150744507535110706e-02,8.813184956911729984e+00,9.310870756620567845e-02
1.019665603621275479e-01,8.823071094166659023e+00,1.092779914092816690e-01
1.002856409346393335e-01,8.819070220815637740e+00,9.924052565868966835e-02
9.944998240891515795e-02,8.816141700897764721e+00,1.016306545443469572e-01
9.608655106565235082e-02,8.825372722478654453e+00,1.025476227669219476e-01
9.198703079878556288e-02,8.813196692537243138e+00,9.707627673720986561e-02
8.964942368421242869e-02,8.816905299935404727e+00,9.807413935920139547e-02
1.043305492177624971e-01,8.819896377725115144e+00,1.073075078737635024e-01
9.240467943007360518e-02,8.819171749810086780e+00,9.405259802312082584e-02
9.545673483661751280e-02,8.812588299640959022e+00,9.938548300040361827e-02
9.771101636236081966e-02,8.810844124229531005e+00,1.081540278176773284e-01
9.506529578054649654e-02,8.810440212996242693e+00,9.680741824251509753e-02
9.623585609369113281e-02,8.816311620145416583e+00,9.410063941262127030e-02
9.117526926876896864e-02,8.810441611289345332e+00,1.124722969247370502e-01
1.118917871177999290e-01,8.821145437377861498e+00,1.018911809805335550e-01
9.337510592843834001e-02,8.822556718404076292e+00,9.227889698125656126e-02
1.028812315751887474e-01,8.816571011640430555e+00,1.013394110141618842e-01
8.455615478549260988e-02,8.814478760980666294e+00,9.981864234318385543e-02
1.039740866906325167e-01,8.811048569031843414e+00,9.727896839414447439e-02
9.738285394140071272e-02,8.818152102904653233e+00,1.026007551029528841e-01
9.985394530695702875e-02,8.818823001947563966e+00,9.247470336974933369e-02
9.585802997595731234e-02,8.820346371880461334e+00,9.791659223711920990e-02
8.836113835786015003e-02,8.817933002507921003e+00,9.847350527330886449e-02
9.628531811382493033e-02,8.826051352100353853e+00,9.815100087885486602e-02
1.063230392998930351e-01,8.822437020348848691e+00,9.369319833006903298e-02
1.064777932681126860e-01,8.812461138110757375e+00,9.601474687537646380e-02
9.490562687277863396e-02,8.807823168249504064e+00,9.824099177023322416e-02
1.077879566142895540e-01,8.814027121730822145e+00,9.557597576860010768e-02
1.047067957006628802e-01,8.812758441004993060e+00,9.370166505968798021e-02
9.492244718087923527e-02,8.813737621588799698e+00,1.012937320203445429e-01
9.904861642981586944e-02,8.815717374692278341e+00,9.180460212816876631e-02
1.013994704135521840e-01,8.814717500510798942e+00,9.031172743909453293e-02
9.590037527592608357e-02,8.820237006895066401e+00,9.899009382231102605e-02
9.938991741047656370e-02,8.812158561625333064e+00,9.842341708207587303e-02
8.944165490693503640e-02,8.820175312140557722e+00,9.454278669305835048e-02
1.016322096089326416e-01,8.819689058788712899e+00,9.952809193645828501e-02
1.002880032146162004e-01,8.812987807752138636e+00,9.659947927920620181e-02
1.018972710772423074e-01,8.805552242651105033e+00,9.815125876520194859e-02
9.538992708590206260e-02,8.815438299307729153e+00,9.926356325974677874e-02
9.780460161188332668e-02,8.814846342181619221e+00,8.165432951038970044e-02
9.562339216201852510e-02,8.822349067806175782e+00,9.921907773020828547e-02
9.806930105791904217e-02,8.823676159239324690e+00,9.804664631336289238e-02
9.346719738390944776e-02,8.817067903832802145e+00,1.110617803478958637e-01
1.016416924041406711e-01,8.804572942660978896e+00,9.669728919929310162e-02
1.022007202766269246e-01,8.811516053524686143e+00,9.921133847747852508e-02
9.801636136908403740e-02,8.814727359198903045e+00,9.889006720632549652e-02
9.762755933875953696e-02,8.820789377842070067e+00,9.754697329590399091e-02
9.252983582917534422e-02,8.815292515896480552e+00,1.007286817017027797e-01
1.014620324914299460e-01,8.820068327367911465e+00,9.996542997432968092e-02
9.986198248224820162e-02,8.806945766200412251e+00,8.725441030132073672e-02
9.797036938268391393e-02,8.811141943671669807e+00,1.047464128957875246e-01
9.751072645817492057e-02,8.808426924075192233e+00,9.328920667022863600e-02
1.059155165161292378e-01,8.812731915217211665e+00,9.382402111069503003e-02
9.467784924036101724e-02,8.830910921852105133e+00,9.887762532244599722e-02
1.002913359553111727e-01,8.814108676635807882e+00,9.645133536673325403e-02
9.691573945558787373e-02,8.815989658978072185e+00,9.551970406616355769e-02
9.854194252061687642e-02,8.823258031740225604e+00,9.624091031920996298e-02
1.033355140293656521e-01,8.816511070994552668e+00,9.672716179845411433e-02
1.048661541654689611e-01,8.819431764678714813e+00,1.015615029021008781e-01
1.006406578436717381e-01,8.812639644416128348e+00,1.070323668603763434e-01
1.159224322949927166e-01,8.821420476842023461e+00,1.078341697614996209e-01
1.102323147326944724e-01,8.816173606171615162e+00,9.478190772241548712e-02
8.361780659923388759e-02,8.815916759174269757e+00,9.969660341681274573e-02
9.930129255074714167e-02,8.816308370462188293e+00,9.354754694403104309e-02
1.055555725587873361e-01,8.816564612517813870e+00,9.760006506834327522e-02
9.404589408087483948e-02,8.812822199609174234e+00,9.681964328075573500e-02
1.015085527647570790e-01,8.807593697108996977e+00,1.049385892318700636e-01
1.022165759733978524e-01,8.814949145434960442e+00,9.734890713390559336e-02
8.928859495199850671e-02,8.821761432913662659e+00,9.771584306301817069e-02
9.428612624135210285e-02,8.818887633711465668e+00,9.557028919470933470e-02
1.015938840584872105e-01,8.817225023742027545e+00,1.033606441864169806e-01
9.193154625536588409e-02,8.819162721583886366e+00,9.950817883247539686e-02
9.309708121824593341e-02,8.817678147394717669e+00,9.586000983151700405e-02
9.468924843873245678e-02,8.814033989398978974e+00,9.407429893819170552e-02
9.336600042242715336e-02,8.817156710006409881e+00,9.797113570458980403e-02
1.020138835627180246e-01,8.816271898527233475e+00,9.210494039598042526e-02
1.055330426303971170e-01,8.816922346933669274e+00,1.004357966722908280e-01
1.039246029201103538e-01,8.808956196751912771e+00,9.617396276773224062e-02
1.055461443436769009e-01,8.820039615488168394e+00,9.877537059897383009e-02
1.028893161910766768e-01,8.810111525816552103e+00,1.065731785410602983e-01
9.024889060939218777e-02,8.816491751727818738e+00,1.055304329818385900e-01
9.560110734433018009e-02,8.804177459607245737e+00,9.723042920898959662e-02
9.219267396907090961e-02,8.814507457516263855e+00,1.027696321382574329e-01
9.924460960076515736e-02,8.816806760677902588e+00,9.364892280034485539e-02
1.034378432344974091e-01,8.813490667711253224e+00,1.007254491661931095e-01
1.000368532503286695e-01,8.815103364106361639e+00,1.080539517243976622e-01
9.668852284255574636e-02,8.812961343553212146e+00,8.540162743707266357e-02
1.019412376596274955e-01,8.819297310516779120e+00,9.359360952261207289e-02
1.006893389764764862e-01,8.823072574653842537e+00,1.012484034494658125e-01
9.030360903671985628e-02,8.823792620857579649e+00,1.007020800386211612e-01
9.949535317278153379e-02,8.812336889986152499e+00,9.723127348696322669e-02
9.131552878567433806e-02,8.814219099452435202e+00,9.875980544867883626e-02
9.013655104122457462e-02,8.817425463517116313e+00,1.015823401081301647e-01
9.603608973471358667e-02,8.821240114655227060e+00,9.549695563896470896e-02
1.039425256252327623e-01,8.817865911215497121e+00,1.004664510439386982e-01
9.230743767072797923e-02,8.819108221192863084e+00,1.045837208760760223e-01
9.072332227136367666e-02,8.810647429990499546e+00,9.161483429511545207e-02
9.226469462524305998e-02,8.810398618302867746e+00,9.816166222556027554e-02
9.081170943136512852e-02,8.815480534204498397e+00,9.651733044830732022e-02
9.687541835977032945e-02,8.812566985321430124e+00,9.583611791956692105e-02
9.594306258236784402e-02,8.815990105640109320e+00,1.028815902824731648e-01
1.013667526106218075e-01,8.810969404005630778e+00,8.987126815738329111e-02
9.647103214510177605e-02,8.818834456986825998e+00,9.010399063879641346e-02
9.609589866241571854e-02,8.817994195923589018e+00,9.370154481165772486e-02
9.696036727432641444e-02,8.811922831949102530e+00,9.908965385714665897e-02
1.033450432634532151e-01,8.819744384757580491e+00,9.436660140880727410e-02
9.010390373689136645e-02,8.814126300236942768e+00,9.733407304492859569e-02
9.825946297775488281e-02,8.808196672374304370e+00,9.589399642118488776e-02
9.504491193197017740e-02,8.811035468878545274e+00,9.435176540378353849e-02
9.326831358637935332e-02,8.815219078740870629e+00,9.490090427493058645e-02
8.414669825306754503e-02,8.814937346998060974e+00,1.017690011837331238e-01
9.396676199895843962e-02,8.818133752712842721e+00,9.593939286146593859e-02
9.167525860501202217e-02,8.816040856253998470e+00,9.952999708520045286e-02
9.949230540286134461e-02,8.813054584768165611e+00,9.918938289129698715e-02
1.047187653200393753e-01,8.816008263749910867e+00,1.073481984784779020e-01
9.801300044884243834e-02,8.817125020502095012e+00,1.050986238748219670e-01
9.764545087346887531e-02,8.825481587919147941e+00,9.889539135075399445e-02
9.596548660691132937e-02,8.819135317295129894e+00,9.768539809190085466e-02
9.738929093294938777e-02,8.810019330583457986e+00,9.463613877873880420e-02
9.097880497154028911e-02,8.813655235279570732e+00,1.044867377816641463e-01
1.019389652000173563e-01,8.827392891822727350e+00,9.424711528431392593e-02
8.791295388074468753e-02,8.813103528590533031e+00,9.227735887116364499e-02
9.356832003056493596e-02,8.816366020508699108e+00,1.043066632677267652e-01
9.090712659163069365e-02,8.823192808067082282e+00,9.677863393235072720e-02
9.126199826654443625e-02,8.813077754973528855e+00,9.406832900958185528e-02
9.376138999802439977e-02,8.810349730629898346e+00,1.010359432963995607e-01
1.045052102000510186e-01,8.811174299278087929e+00,1.046030480666013396e-01
1.023873299029060546e-01,8.812905895716232507e+00,1.014877256172759812e-01
9.972522898868529939e-02,8.823706586620442494e+00,9.845890856229329302e-02
8.937418153787186903e-02,8.816544019586661562e+00,1.055259055219301551e-01
1.088627286000231897e-01,8.809431561335498984e+00,1.064779568655400271e-01
9.127549367374654388e-02,8.817028546571227920e+00,9.314460771924540361e-02
9.443326591269653181e-02,8.808614753399119479e+00,9.984157280498665021e-02
9.911438185011892110e-02,8.820188846029870078e+00,9.715472299619037910e-02
1.022546074991796811e-01,8.818000761366969087e+00,1.004901523694777393e-01
9.611547695627811749e-02,8.821277368163103816e+00,9.380332195622735625e-02
9.309497056931817505e-02,8.814798562037017504e+00,1.023177381819388998e-01
9.324178385926243373e-02,8.816712223789858527e+00,9.522657200797442212e-02
1.047426752415726164e-01,8.811600754449408157e+00,1.071919679177437135e-01
9.490785492950511160e-02,8.820127709859043819e+00,9.884347711341602560e-02
1.004645659071787128e-01,8.820987513711171957e+00,1.048762207624429205e-01
9.901475483724184179e-02,8.819946143935453620e+00,9.439529736747327704e-02
9.149912645512650600e-02,8.809731595754712430e+00,8.954197644138175982e-02
1.070462520132620943e-01,8.822927149191377438e+00,8.837392972825762472e-02
1.001711723409882543e-01,8.813937942731845610e+00,1.006364564202858330e-01
1.024333410387705257e-01,8.810834428826909814e+00,1.087916810474196389e-01
1.020879170361063820e-01,8.819568754143874756e+00,9.787275155787390768e-02
1.032924073827099776e-01,8.813096296911073324e+00,1.062275820435873569e-01
1.047331162403159072e-01,8.805786640563818324e+00,1.024064886386222145e-01
9.410642939840398180e-02,8.819692052878711053e+00,1.004732472169756335e-01
1.002696211412985594e-01,8.811027808168173436e+00,9.414327492588545065e-02
1.072519520378635710e-01,8.814753767204900115e+00,9.957948856090910461e-02
9.564629914059552540e-02,8.817834376133287577e+00,9.967437876376421257e-02
1.007835068900629072e-01,8.817027239394288785e+00,1.002010414826019352e-01
1.048948055140755536e-01,8.812058776443352670e+00,9.531034840371076233e-02
9.690832187149438226e-02,8.814039143658076725e+00,1.002729547932805776e-01
1.021487870612866750e-01,8.822019271802060914e+00,1.026504646893993261e-01
1.038993712980809947e-01,8.818466090311719796e+00,9.990658932634788325e-02
9.950519686058167945e-02,8.805331450218579548e+00,9.313673384344998973e-02
1.015550484879462201e-01,8.810901778504279136e+00,1.001253148527522091e-01
9.367063206072494264e-02,8.813462419563260042e+00,1.029655301863338923e-01
8.977112799386113839e-02,8.813602778587600994e+00,1.017905898630559053e-01
8.907025049671697670e-02,8.812165265385042190e+00,1.036271544990466503e-01
9.854287097461836287e-02,8.809926324763001304e+00,9.908895856909956390e-02
9.799385147481590175e-02,8.817712180023255186e+00,9.573374835342668421e-02
9.526124855679386771e-02,8.811284045337638204e+00,1.010192299350991946e-01
9.603088051501680600e-02,8.817873914095946120e+00,1.047013982192572523e-01
1.050283899755097283e-01,8.826966422798049550e+00,9.758266409637456062e-02
9.835851072252888017e-02,8.818393467499946681e+00,9.871518363540347785e-02
9.990758578542267843e-02,8.810763885978706966e+00,9.883588230649510697e-02
9.589748277878752669e-02,8.818174159000928825e+00,9.519228931083291434e-02
9.691960790194467656e-02,8.828072279722537274e+00,9.307381401320917458e-02
9.937246268167368446e-02,8.820434600838122918e+00,1.005542038864476184e-01
9.525301543903184898e-02,8.803535990284206747e+00,1.009629028106691639e-01
9.615387882094585115e-02,8.812761067389073943e+00,9.683389497008788871e-02
1.017792711865798533e-01,8.824399924017843233e+00,1.043924246732155503e-01
1.013631832335283312e-01,8.816597983622763479e+00,9.929538214577290911e-02
1.047679648872745506e-01,8.815734019493122631e+00,8.969249079241806144e-02
1.001898791639331820e-01,8.813644321767021950e+00,9.398894186589488997e-02
9.619355757012196251e-02,8.813806963078031131e+00,9.667507788514752287e-02
9.928091339443248509e-02,8.814821480544479115e+00,1.009841685136635137e-01
1.003347267885805888e-01,8.817404999819460798e+00,9.882963345612801043e-02
1.063579468671365658e-01,8.811175516264853513e+00,8.418983185142343839e-02
1.001357331733399858e-01,8.817326798681735411e+00,9.426021567841884330e-02
9.692810800455156639e-02,8.823395138632633916e+00,9.965096437923795514e-02
1.015300388095607687e-01,8.820057672359549628e+00,9.831511179068687378e-02
9.735110278240120818e-02,8.811958826119285604e+00,9.651038109998247294e-02
9.163495764913924535e-02,8.815748655631264086e+00,1.052207199135004045e-01
9.769113472350629546e-02,8.816871750954003772e+00,9.161429859530813291e-02
8.750906138046793403e-02,8.816411908660024110e+00,1.093727692474382590e-01
1.000985737012057009e-01,8.816776766345682859e+00,1.019646705887730098e-01
9.072853118473876710e-02,8.816030882731674012e+00,9.879212318300954754e-02
1.002061898927132655e-01,8.820706587983375258e+00,1.057081908950939647e-01
1.011483020566181917e-01,8.813048828293172932e+00,1.011855633243839703e-01
8.967254923523390597e-02,8.814075056660389151e+00,9.954225072676917141e-02
1.038812474177643330e-01,8.808143285902790609e+00,8.872074374285349174e-02
1.091217075665835701e-01,8.817992291640793567e+00,1.006289336272694207e-01
9.436780356088123045e-02,8.811934700707745094e+00,1.007787287803776216e-01
8.974744536090049907e-02,8.813104264486289807e+00,9.572781086154055763e-02
1.007734258296100888e-01,8.820841881664572171e+00,1.031238332872875252e-01
1.065996739876309413e-01,8.819873798010481991e+00,9.780027921601781860e-02
9.812118827683606603e-02,8.812630779067914588e+00,9.778982072196447384e-02
1.028038518877722046e-01,8.810567533885381053e+00,9.660371024080935398e-02
9.639848871486068893e-02,8.818123911997805209e+00,9.544052957059176445e-02
9.764074515926023101e-02,8.823104305453590257e+00,9.689757667059495372e-02
9.462107605555383771e-02,8.817909630115838837e+00,1.022062974296585464e-01
9.156019286380701061e-02,8.815204828974014362e+00,9.195029506994893687e-02
1.012794405720330443e-01,8.823512443215394185e+00,9.951072910099724445e-02
9.667482470221797075e-02,8.814453433926697556e+00,9.134071709104905901e-02
1.048941311440323987e-01,8.822878066441592892e+00,9.726846179837621287e-02
9.597591230954853614e-02,8.814838086651478832e+00,9.003937805709512354e-02
1.001744422307710020e-01,8.818259253305569700e+00,9.395846414530611979e-02
9.399668023761864610e-02,8.811338129133950758e+00,1.055727044893886024e-01
1.026037789668437505e-01,8.825910587994577838e+00,9.722640662529409561e-02
1.010132078670864103e-01,8.815040808926308813e+00,9.483202143427485464e-02
9.852376205269354481e-02,8.820510188758014181e+00,1.059105810267244180e-01
1.038708007699507968e-01,8.811618572092397628e+00,1.013377498302041463e-01
1.066889518471568349e-01,8.812565271097815511e+00,9.943715739633615658e-02
1.023437107029979698e-01,8.815496819702920206e+00,1.060778506809392646e-01
1.109127993244573979e-01,8.820159820651344518e+00,1.014148684239720710e-01
1.025295898244352327e-01,8.813591334793418497e+00,1.039369063249139247e-01
1.026541841261306015e-01,8.822482585920329967e+00,1.006125122062260374e-01
9.771595928694297439e-02,8.822731146016499437e+00,9.709753666455152310e-02
9.466075816260739739e-02,8.817157545271800956e+00,1.031830816122856487e-01
9.342010909794776219e-02,8.805573014247768171e+00,9.585112707137613541e-02
9.898903501542395678e-02,8.816931044261110628e+00,9.722906424518504287e-02
9.689537790312925669e-02,8.823849672431514080e+00,1.044515795021713767e-01
9.172041447292103578e-02,8.817503375678716893e+00,9.327745758599412240e-02
9.580854964946387831e-02,8.809678008677478189e+00,9.979188857484656838e-02
9.038103963554360021e-02,8.816719968704912702e+00,9.776926251695890191e-02
9.923784034145977095e-02,8.816961080856536626e+00,9.990340430889550760e-02
1.024524440450151619e-01,8.812971351035301382e+00,1.023525765748300176e-01
9.858055585738022264e-02,8.819209201867300507e+00,1.005958084243811501e-01
1.057371583850859886e-01,8.815879160520502467e+00,1.027071358714156946e-01
1.063281327911854701e-01,8.820575701213172692e+00,9.125138412731104154e-02
9.932160540281491368e-02,8.817334421556811463e+00,1.015107442833386719e-01
9.181456445887761775e-02,8.813825608971448844e+00,9.403741378331645362e-02
1.039424542110261446e-01,8.810604876993355816e+00,9.766041468098519973e-02
9.738583425416402761e-02,8.818431423452127049e+00,9.681684024897907470e-02
1.034813738437065228e-01,8.815436260056156215e+00,8.853528651520949089e-02
1.032731070253354727e-01,8.811597822157446913e+00,9.956773743734387283e-02
1.008738492178914148e-01,8.822362457990005069e+00,9.620060063482779866e-02
9.440413475136694155e-02,8.810810457260140893e+00,9.755817910428568607e-02
9.416231894487941956e-02,8.818584406887602256e+00,9.787328543937899583e-02
9.797220740386065885e-02,8.818529831767055072e+00,1.050705126781730087e-01
9.259177230662052338e-02,8.813658316903127954e+00,1.021856386885374446e-01
1.014015774198040593e-01,8.821694401950253450e+00,1.014456469772715974e-01
9.918843886642905727e-02,8.822771369938919861e+00,9.355209873332911985e-02
1.014733713594887371e-01,8.812216024874611975e+00,9.876851388703540569e-02
9.310751717006386652e-02,8.820197415903436422e+00,1.050890202838196952e-01
1.019208691945336087e-01,8.820015047851036627e+00,9.589211389526203222e-02
9.149769914397450077e-02,8.822153181036735958e+00,1.057041523668192651e-01
9.473827884227821461e-02,8.811709078432576447e+00,9.309754951428649006e-02
9.923812402515358455e-02,8.817394967443215492e+00,9.347721992024540794e-02
1.003732224788532329e-01,8.817040506501069075e+00,9.283211886362147114e-02
9.879459836731077638e-02,8.814501088447807220e+00,9.745472962155048158e-02
1.031874562702412151e-01,8.809450024585753880e+00,1.042671007085445994e-01
9.336573817227461491e-02,8.810757604329628734e+00,9.635244695577811769e-02
1.031496652781916518e-01,8.812661949123590688e+00,9.549044085144126059e-02
9.733727442797385221e-02,8.813490158157071264e+00,9.869516281198041641e-02
9.447983764833024767e-02,8.812258936933963227e+00,9.653304769521686701e-02
1.001057196755887890e-01,8.814381280645152472e+00,9.717534878097097706e-02
1.028410875972762817e-01,8.812509296880453036e+00,1.026773750571673138e-01
1.010503089272167115e-01,8.821685030374473158e+00,1.023883984855092910e-01
9.446059465846201597e-02,8.808822539057695522e+00,9.519339366647713851e-02
9.981103640766629537e-02,8.819902424085249493e+00,9.813898393223810523e-02
1.015243938711493238e-01,8.816194979558916955e+00,1.001490416084618862e-01
1.003310538101083449e-01,8.808212864444081802e+00,1.012329326541362151e-01
9.638607032872598124e-02,8.818918696232543653e+00,1.056571097167734175e-01
9.390807432241668473e-02,8.811790362746711125e+00,1.063992745485080049e-01
9.130876921039914051e-02,8.824109685785717971e+00,9.664209657811832777e-02
9.894121618785044203e-02,8.823466246713483230e+00,9.825329718262351686e-02
9.923269054633222785e-02,8.810960389843765839e+00,1.015786181490108409e-01
1.046486746294153780e-01,8.812328616297087081e+00,1.085185663630523628e-01
1.037975805618253644e-01,8.812369274280282383e+00,1.023283829345627977e-01
1.023078026381377681e-01,8.817138749134592501e+00,9.498454226612547402e-02
1.027973377700189123e-01,8.821186509425709588e+00,9.754362557933929367e-02
8.568005081637440623e-02,8.812091540711659121e+00,1.006842466748840564e-01
9.086965800758266265e-02,8.810963016128711800e+00,1.005307773902224533e-01
1.075093149797082259e-01,8.811287622045115953e+00,1.093870593099179195e-01
9.065722912696920488e-02,8.809805910785577510e+00,1.008940360442526080e-01
9.896726866623500873e-02,8.817816282228298164e+00,9.804864563517232123e-02
1.020908982484522581e-01,8.818102481907160950e+00,1.003792217032047074e-01
9.646519549224991108e-02,8.808770290185170992e+00,9.862574846455679500e-02
1.018222150237392959e-01,8.818995451008301956e+00,8.845943502020967020e-02
9.940779034357227761e-02,8.818251029550536302e+00,1.034400216427686925e-01
9.370051944411166012e-02,8.815288659993063547e+00,1.012044797567534793e-01
1.020275540420418625e-01,8.814175085201078730e+00,9.453835613230236745e-02
9.827761321637047687e-02,8.808540773074049923e+00,9.656619208129899046e-02
9.818564944307790754e-02,8.809881694119869877e+00,9.870154510645784418e-02
9.970891025698370991e-02,8.817659538616750226e+00,9.567103175521196601e-02
9.967351559765701141e-02,8.812367028379316736e+00,1.060305694413882505e-01
9.152625780277720557e-02,8.815992125168849114e+00,1.037771411527364657e-01
1.066551877142000448e-01,8.815279924475653672e+00,9.827336117060850307e-02
9.695997153622920584e-02,8.816178000908770684e+00,1.038113882303421248e-01
9.285065046759867491e-02,8.816640537265321598e+00,1.020550103152917804e-01
9.470051295315719264e-02,8.812112294739307572e+00,1.026612212709191452e-01
9.469981915896817648e-02,8.815104056531597010e+00,9.569378419941969305e-02
8.974461666918388814e-02,8.813972522341282811e+00,1.043816135631313036e-01
9.628801062844832837e-02,8.806747678403372248e+00,9.410313325148693397e-02
9.712381748981332996e-02,8.817766993007637666e+00,1.006767718517962013e-01
9.652778798734683308e-02,8.808350009813787906e+00,1.055876716495877943e-01
9.075670833562210493e-02,8.816234971198195325e+00,1.042220956432330092e-01
1.003184919236707745e-01,8.809552898452198022e+00,9.913476323512206145e-02
1.093310618123234101e-01,8.817458597180868551e+00,9.329402425390330433e-02
9.836982773223464094e-02,8.809392834493985802e+00,9.931234401398501832e-02
9.931516380205948624e-02,8.815477883156342287e+00,9.258550155947825600e-02
1.005672083860348065e-01,8.808729904162083457e+00,9.801042467166880268e-02
9.217712822682119778e-02,8.814286396513020705e+00,1.028529772351272631e-01
9.453977608765067042e-02,8.815701628406101165e+00,1.037566334505761606e-01
9.999902336434317307e-02,8.817650045399386016e+00,1.016559934707394891e-01
1.097649357492129080e-01,8.810114000583684657e+00,9.406335053127704016e-02
9.538698472253409610e-02,8.816495841784346865e+00,1.006161063477281625e-01
9.438617299653080661e-02,8.815799982791720169e+00,1.017996903052943436e-01
1.002710117801276085e-01,8.817765101022303043e+00,1.006626073663289822e-01
1.036467137368396185e-01,8.818387545850651321e+00,9.335454875596581326e-02
1.011778351082645300e-01,8.813598145044396759e+00,9.046192506591119176e-02
1.008067033572834920e-01,8.815786809887045550e+00,9.918947855261943392e-02
9.889570131177599643e-02,8.816529557827932351e+00,9.188948900121376995e-02
1.048531322932216292e-01,8.809917247200440116e+00,1.040011088419742213e-01
9.595101341301616460e-02,8.806996437205121708e+00,1.087871718055515302e-01
9.764481108679293198e-02,8.819399550797307086e+00,9.525875809238353031e-02
9.578915013433828007e-02,8.813612890606982830e+00,1.030784107432845681e-01
9.906352657448413979e-02,8.811429598093639015e+00,1.013027405482959109e-01
9.893989332351385557e-02,8.812082387169400732e+00,1.031326679124259377e-01
1.014581831071922763e-01,8.815745584132871571e+00,1.011755088314740120e-01
9.602180306018101574e-02,8.817841964636970786e+00,1.064672200387702383e-01
1.000973069663219223e-01,8.814876526935805146e+00,1.039519721523722434e-01
9.355431141249444249e-02,8.812214224383229322e+00,1.031429445407711920e-01
9.337986425106599431e-02,8.821427151352398965e+00,9.601002625859375583e-02
1.024096297293765057e-01,8.816184295651011027e+00,9.293092731151754438e-02
1.025905416495826589e-01,8.816098359147739316e+00,1.004464353530744869e-01
9.425263610590685348e-02,8.821314206638247057e+00,9.704101147484962830e-02
9.676066365898217114e-02,8.817026478271310808e+00,1.053076668557075268e-01
9.120250221811483649e-02,8.813959434287625072e+00,1.044804943112238177e-01
9.323099702712477066e-02,8.803294801045728590e+00,9.134167986521316007e-02
1.005089636238016976e-01,8.816309412729843586e+00,9.668961941011700034e-02
9.491781639741424248e-02,8.813255737384434241e+00,9.691247498377311698e-02
9.631207549028274195e-02,8.810336042093320330e+00,9.413917797771247098e-02
9.211314373339800354e-02,8.816377178834802208e+00,9.997068569758429946e-02
9.796684464869385989e-02,8.813593773238521223e+00,9.233257530644609079e-02
9.890959908613336515e-02,8.823335776115005302e+00,9.674657936332430042e-02
1.026976601190813659e-01,8.816727505514766250e+00,1.003849724225893553e-01
1.017269253999217582e-01,8.817996368950653974e+00,9.499753738075850107e-02
9.645685332982431581e-02,8.808301178665747244e+00,9.001014736684687101e-02
9.619588136539208856e-02,8.814431313116413591e+00,9.996902757176670540e-02
1.018127217968544940e-01,8.818239110081936616e+00,9.449551121573444845e-02
9.831408673628506956e-02,8.817851061232765630e+00,9.472064374198016501e-02
1.035477940738971231e-01,8.809753107794737303e+00,1.011068412587707299e-01
9.969390043692648307e-02,8.822087939570867121e+00,9.671131085537744421e-02
9.945189795749842521e-02,8.815372889794549138e+00,9.899575130697509107e-02
9.974281481572108699e-02,8.815179470208315493e+00,1.017471740348709630e-01
1.014378682605900639e-01,8.808982538406555207e+00,1.114457095759255473e-01
1.032588415219632683e-01,8.816782942214516083e+00,9.306230647745719620e-02
1.030755958688767820e-01,8.818551364276759230e+00,9.774593318768400041e-02
1.022336233514135745e-01,8.820402715484537026e+00,9.914132544962196703e-02
1.094591761786834760e-01,8.810962732834035194e+00,9.591659578250838480e-02
9.425130628098268848e-02,8.817747016216173961e+00,1.005410044058293734e-01
1.078256339494667593e-01,8.808441657611083997e+00,8.976788365607990539e-02
9.088381109841491001e-02,8.811539316804292810e+00,8.665942035226574525e-02
1.104124051998926215e-01,8.820785483836912633e+00,9.801089121743623844e-02
1.020033807845934920e-01,8.812880599556054406e+00,1.010952630914572214e-01
9.672069589691224822e-02,8.813533656928296267e+00,1.008380899873359687e-01
9.189429142561844621e-02,8.814666866247934607e+00,9.625575291549198775e-02
9.316803965022336931e-02,8.816954991644250228e+00,9.554636967576966844e-02
9.270369579482393152e-02,8.819895461918120461e+00,9.825028374411230725e-02
1.002210710399626115e-01,8.811635231951051139e+00,9.802359997003244618e-02
9.898318882759982174e-02,8.809116551818975793e+00,9.557640343432687036e-02
9.355166525728877969e-02,8.807659335228859021e+00,1.006878015703625145e-01
1.055868767806305980e-01,8.816204630089357508e+00,9.693474205114621656e-02
1.054185634624057594e-01,8.807534273650508894e+00,1.032107641727436076e-01
9.921862912388473843e-02,8.805103975943193717e+00,9.926587630301120235e-02
1.019470204514985184e-01,8.819174689982229864e+00,9.595624796058065120e-02
8.842612111446748746e-02,8.815274738431016388e+00,1.073607006089241367e-01
9.826563041240600482e-02,8.808224109754414499e+00,9.721007051952892941e-02
1.068741178778894324e-01,8.812236489695372654e+00,9.585723959089222090e-02
1.048060481112000758e-01,8.814728079386702220e+00,1.024366079120893058e-01
1.017416274535210136e-01,8.817444513574098863e+00,9.944710932198196074e-02
1.033753947368240972e-01,8.812450756289381459e+00,1.083499003899586616e-01
1.011916185692646325e-01,8.821268771711009649e+00,1.002205186969337275e-01
9.802883567944087329e-02,8.810011322014092983e+00,9.546725626242534568e-02
1.006919899278177488e-01,8.819162886460643946e+00,9.709711035197354789e-02
1.075637712345130642e-01,8.812253628801576255e+00,9.814693904010282632e-02
9.580170152185830956e-02,8.805914062265053133e+00,9.555186050003136589e-02
9.363185129321160982e-02,8.819929822549731568e+00,1.010420606045001335e-01
9.443001161344144467e-02,8.815884447484224395e+00,9.441082068742730204e-02
9.726792498962109901e-02,8.819491519287918635e+00,9.563619990335994747e-02
9.857082435802343168e-02,8.814737221010398471e+00,1.093914344018594026e-01
1.019067234603038274e-01,8.823568488562209211e+00,9.687747044150439579e-02
9.695482258180324053e-02,8.818983751321647802e+00,1.050470982798098890e-01
9.586245418263222851e-02,8.809163713622098157e+00,1.014321947055829426e-01
9.781590301211477712e-02,8.812869600559379180e+00,9.560298664876952512e-02
9.346679533928932415e-02,8.815505888083269070e+00,9.152846595989248824e-02
9.857885918123571178e-02,8.820384988013593386e+00,9.355758464862766466e-02
9.572916489833328824e-02,8.812284099312719832e+00,1.009945687911903006e-01
9.771874654325453380e-02,8.814583348756315218e+00,1.055989995467015302e-01
9.651025581311280244e-02,8.812202806631656671e+00,9.895300923065358800e-02
9.299097963273864065e-02,8.819147506728167940e+00,1.028678719199958985e-01
9.716508421343503232e-02,8.811271330898302168e+00,1.022843042200394376e-01
9.857770551650460455e-02,8.810281702971456852e+00,9.308366776959266231e-02
9.060531699275128914e-02,8.814783821833087174e+00,9.476024411442079964e-02
1.015795344256255478e-01,8.814654661588047446e+00,9.847609440557353322e-02
9.440256876750821591e-02,8.816237228356891720e+00,9.731876311720966122e-02
9.718653840054791715e-02,8.817686927124636753e+00,9.441634431783711701e-02
9.906904378637360065e-02,8.815327697113753302e+00,1.043389588562897846e-01
8.575749619089025055e-02,8.820583095760651915e+00,9.970969816283450915e-02
1.023263742385508990e-01,8.824740719593169302e+00,9.923612485956159746e-02
9.091963313761534937e-02,8.814252472197516397e+00,9.557533515468469298e-02
9.994474789333838982e-02,8.818770656194578450e+00,9.998074094951193980e-02
9.827466986281606365e-02,8.815237075256755261e+00,9.454797680083694422e-02
1.044874512036033098e-01,8.813152347045647872e+00,9.999265450571148683e-02
9.661731600358915151e-02,8.813636117943671522e+00,1.025671988154754077e-01
9.688165481270785695e-02,8.819284702552733890e+00,9.678062439864951183e-02
9.978708840573355388e-02,8.813766902623054733e+00,9.262769519280902863e-02
1.013202065235814103e-01,8.823566365846792436e+00,1.039505382986297688e-01
9.939403341768408839e-02,8.823487773509862464e+00,9.517195299745441484e-02
9.896018273531066722e-02,8.808435403274822662e+00,1.013549486171470559e-01
9.989836979945128370e-02,8.819074624477105218e+00,9.991608684005950924e-02
9.217263444884651880e-02,8.825081699561280857e+00,1.016888973867546286e-01
9.388108486620938553e-02,8.822203723052933100e+00,1.007262997033692847e-01
8.889311455141220286e-02,8.806630737464789860e+00,1.026703394717583956e-01
1.008054523780314848e-01,8.816539459188664551e+00,9.334367340510270339e-02
1.008676799489971188e-01,8.817328357970557917e+00,9.190141064519445624e-02
1.034596268875821040e-01,8.815077655370425092e+00,9.526463554806198497e-02
9.738144290731756691e-02,8.811123383388837382e+00,9.827063093375212888e-02
9.707760158000025563e-02,8.807865821210080881e+00,1.069431431502098351e-01
9.776069803480046116e-02,8.805444754720271661e+00,9.097632504074784632e-02
9.618582123494030800e-02,8.809182744524544972e+00,9.897996544619939996e-02
9.828974019360886549e-02,8.815362251551919215e+00,9.733467510374593790e-02
1.009495925907304692e-01,8.813448184179291545e+00,1.036684717865619665e-01
9.952180509502629724e-02,8.808639614495898940e+00,1.063376388940459744e-01
9.754373855698218743e-02,8.820409320062687186e+00,9.310749221054007152e-02
9.611853351246212041e-02,8.816782909415429970e+00,1.031042345787756415e-01
9.480350325725898919e-02,8.809856238975934062e+00,9.582502624423593074e-02
1.022356588537152444e-01,8.813377224766689721e+00,1.003351958195308757e-01
1.046956702402826317e-01,8.825104649425194125e+00,8.765807580202532312e-02
9.848022380909834950e-02,8.820234330835910797e+00,1.048430120528529574e-01
9.497782840660899673e-02,8.822877211367572414e+00,9.983128274534520952e-02
9.770081958505227870e-02,8.813151550380149857e+00,1.023416939429277889e-01
9.520314112946612339e-02,8.823035980361947139e+00,9.913928645051732491e-02
9.413095441553182008e-02,8.804927607541388923e+00,1.019378288432110646e-01
9.834834141903543714e-02,8.814444753748771788e+00,1.008655421844580347e-01
9.227339509180185195e-02,8.817065185491648194e+00,1.007642513537988643e-01
9.370176082444837962e-02,8.817872260663060402e+00,1.020914610606879630e-01
1.045268459508662262e-01,8.807711177230231669e+00,1.063088877554957679e-01
9.069819346677374106e-02,8.810266704415882444e+00,9.628132205443055980e-02
9.974717429384764855e-02,8.816090431220173329e+00,9.794760476247776904e-02
9.002191550152646715e-02,8.812928541940356908e+00,1.026207217247661618e-01
9.081859379367104856e-02,8.826117054214766000e+00,8.783816887450042465e-02
1.015457795369490435e-01,8.814757967582682596e+00,9.946376355957330107e-02
1.042618503717796657e-01,8.817812719383054443e+00,9.406376215210578151e-02
9.338479563741095002e-02,8.821164081786143640e+00,9.947087776015724192e-02
1.081000219892512410e-01,8.819318277671609252e+00,1.010169455726820792e-01
9.784447746095190079e-02,8.819064060446965669e+00,1.023309194763034613e-01
9.999216533240092020e-02,8.812543490909236610e+00,9.914137530136640786e-02
9.238166936769312554e-02,8.811300598104736537e+00,1.028028162248267041e-01
9.838759449112741140e-02,8.815819133779910999e+00,1.005490235233335305e-01
1.059582100777484437e-01,8.819555920284516404e+00,9.350711994719183850e-02
9.770564184992167056e-02,8.809929316142691036e+00,9.380688704732120797e-02
1.035303483954867348e-01,8.820215433587364373e+00,9.128260769568649624e-02
9.503801383098499367e-02,8.817966408242497778e+00,8.962405896374750491e-02
1.060801170439087948e-01,8.810634659407670100e+00,9.955376363938672757e-02
9.996138263758536091e-02,8.817791652821401982e+00,1.076445732128934879e-01
9.916020091500971079e-02,8.817799735063816868e+00,1.097466786577296211e-01
9.516625395425698519e-02,8.815393795519199216e+00,9.923724668084067668e-02
1.015094189384168621e-01,8.816007542601099090e+00,1.027759067198962262e-01
9.795748149758157219e-02,8.817333162226647758e+00,1.036552733829117501e-01
9.768745491936918490e-02,8.815198031391275890e+00,9.990202370240325314e-02
9.718871627054619100e-02,8.822026863694151899e+00,9.897445432260865150e-02
9.477875622068275552e-02,8.819377203288983225e+00,9.733391256459449081e-02
1.029131397151441946e-01,8.815048449281775333e+00,9.720714192914003959e-02
9.595671134812489012e-02,8.826655153810444077e+00,9.215012905022568201e-02
9.670008242853164737e-02,8.814985964965906362e+00,9.692688172848336337e-02
9.566058004289804129e-02,8.812232284723920728e+00,9.738742253191341736e-02
9.452866342449747772e-02,8.817860246744031016e+00,1.052071449126249503e-01
9.819681312812807150e-02,8.814089401420220682e+00,9.500059043415899629e-02
9.226595565924453068e-02,8.821568632880781635e+00,9.497950637859031708e-02
8.659785999135677370e-02,8.825182685301694363e+00,9.769852808797571675e-02
9.594323214725486437e-02,8.816736569602488416e+00,1.038655023395317900e-01
9.265390098081163761e-02,8.820614381750630173e+00,9.841967521217123704e-02
9.041448489927758625e-02,8.814845106996720858e+00,9.694499378775284226e-02
9.389311482584476731e-02,8.821161636498159098e+00,1.059078671286488027e-01
1.007503792849811786e-01,8.816278724656731569e+00,9.694438241470174078e-02
1.007228081568063427e-01,8.807379865381278705e+00,9.824172342628607890e-02
1.085197509563970986e-01,8.810346788200487111e+00,1.054627501804609457e-01
9.567131206569400026e-02,8.820979196170398495e+00,1.035923412948060590e-01
9.176169065144985926e-02,8.817281694002154779e+00,1.018265935086315604e-01
9.515034679231590409e-02,8.815103199093915265e+00,9.411997857357906616e-02
1.092411625123966556e-01,8.822590818172210803e+00,1.034875956649061041e-01
1.016168566743714252e-01,8.815693659699068263e+00,9.053968341635126871e-02
9.373800901255217866e-02,8.827706072788526370e+00,9.754299362778975913e-02
1.024319948606561420e-01,8.819867386087127059e+00,9.466394156029234175e-02
9.921798415352332812e-02,8.822139031167864687e+00,9.348360322610653472e-02
9.796655231325945845e-02,8.800409308935879693e+00,9.637122640206460811e-02
1.080248588360924328e-01,8.818453626683782076e+00,9.316608968986679618e-02
9.809977549311005296e-02,8.808940108157889526e+00,1.006061764064164199e-01
9.822916714125230764e-02,8.813586294412996125e+00,9.925321769100436953e-02
9.106251358373892990e-02,8.824711451308095533e+00,1.007398861061148954e-01
1.015559238826171384e-01,8.810985423047908327e+00,1.014235204140010033e-01
1.013141486524663515e-01,8.816371014378644233e+00,9.526255758609279700e-02
1.015968767495956104e-01,8.814932018886469933e+00,1.018407827342032862e-01
1.027890279711076993e-01,8.809890822402563160e+00,1.028583166278294464e-01
9.250888177624672082e-02,8.820006115228190779e+00,1.003951810158655727e-01
9.782741090000578177e-02,8.817135736069264595e+00,9.373317015440681133e-02
9.553129006084347397e-02,8.818475711747748136e+00,1.050061434042032643e-01
9.541608528426784308e-02,8.823139245483234916e+00,9.548101855315502262e-02
1.002253134731717482e-01,8.816726381728706485e+00,9.681562516999900336e-02
1.033712994388591572e-01,8.810853258786227826e+00,9.454896680886161475e-02
9.709207273017020356e-02,8.816353570656689342e+00,9.889702878873136982e-02
9.912787990928356718e-02,8.810665129800050011e+00,1.018425619849070846e-01
9.594005171264119447e-02,8.817801892523618790e+00,9.410150819314504200e-02
9.551544935068190245e-02,8.812611404404604443e+00,1.040813526887030688e-01
1.017651735073880348e-01,8.806516281495976983e+00,1.007014534413151197e-01
9.384176784991996034e-02,8.811201879943848070e+00,9.505903114624750239e-02
1.004733064114798763e-01,8.811188805842776972e+00,9.555567582463392329e-02
1.029288878043360944e-01,8.813961620502571037e+00,9.076749965334450498e-02
1.007877309104647512e-01,8.819616113812925207e+00,9.642978410500560593e-02
1.007556136035101108e-01,8.812755375911034861e+00,1.057478101816958643e-01
9.978381643424052982e-02,8.812580531209089685e+00,1.030276702984743026e-01
9.551062204385162013e-02,8.810154356481891824e+00,9.211768755405787268e-02
9.757826847395309477e-02,8.812415928292425704e+00,1.019948923389947248e-01
9.543069503665380093e-02,8.811112298828506439e+00,9.524192755893887141e-02
9.276108317789039104e-02,8.808935110483712805e+00,9.725256555018089999e-02
1.007195833488806341e-01,8.820055970397076450e+00,9.845613692437732434e-02
9.704002837580616436e-02,8.816690674852656784e+00,1.010729502967671056e-01
1.015496866710032253e-01,8.822868175787242251e+00,1.007390416176257297e-01
9.667890087572755808e-02,8.821252964780478933e+00,1.045651600318287522e-01
9.595293966592456647e-02,8.814825037057216761e+00,1.003439017611846007e-01
9.563751007407199356e-02,8.822169716893377256e+00,1.026158695944578286e-01
1.028098370510904663e-01,8.811916724044289495e+00,9.387008684651358681e-02
1.097551760191063930e-01,8.819532031996091703e+00,1.014197576598214745e-01
1.007626782826595846e-01,8.824470769692737804e+00,1.031233716282096563e-01
9.560187616041064540e-02,8.823731344567104173e+00,1.021259570949373252e-01
1.010748701059075855e-01,8.813738900675300414e+00,9.820718560231470051e-02
1.013752873200381432e-01,8.825822698149577761e+00,1.030414077067880324e-01
1.046407003275193065e-01,8.820334535952691013e+00,1.011935551863163696e-01
9.894359689828824411e-02,8.815520865392278083e+00,9.334131917932843303e-02
1.008254353032290995e-01,8.813855057165721263e+00,1.002126806611020743e-01
8.705088086410074644e-02,8.822228698787146328e+00,9.333516664251188810e-02
1.004670766773622381e-01,8.816555042136137388e+00,9.516390415668445069e-02
1.009374511260619223e-01,8.823010255405595359e+00,9.826395319013603302e-02
9.380263647439820995e-02,8.809552435967983541e+00,8.941169286154225515e-02
1.005961643021632684e-01,8.814739582800944717e+00,9.926551813128847712e-02
9.283627212107900539e-02,8.823611079860430806e+00,9.741355549596150687e-02
9.811517749531743771e-02,8.812455242759543950e+00,1.017546153829770178e-01
8.945693413735092414e-02,8.803661946292084650e+00,9.923847584674443112e-02
9.309059405578561097e-02,8.814238143668386982e+00,1.039608582661113029e-01
1.006345925411983450e-01,8.815319924603286950e+00,9.273683306478258670e-02
9.719802550985665035e-02,8.814896504122859966e+00,9.812039489964843875e-02
1.035035101303182770e-01,8.816551104611262346e+00,1.071021397365907457e-01
9.902429234926539425e-02,8.816447656459320825e+00,1.004543027313997278e-01
9.545800256810775541e-02,8.814278689466103600e+00,1.003212900217156783e-01
9.590392994290379558e-02,8.821655164051980691e+00,9.693244053357881473e-02
9.272446177693446923e-02,8.814984172180746924e+00,9.879651832061418781e-02
1.023799946311481773e-01,8.820393193521626429e+00,1.054208580191150074e-01
9.279564528946583624e-02,8.815943808461645048e+00,9.806203473443461660e-02
9.762526929247598850e-02,8.819259093099592661e+00,1.031836804413165387e-01
1.000766417054729518e-01,8.816842348594216006e+00,8.855016311581388744e-02
9.577839843846171208e-02,8.814690720675651292e+00,9.824730252930435892e-02
8.928897975027727529e-02,8.817583463362071328e+00,1.025991524727805776e-01
1.005827206458638767e-01,8.814883097514954358e+00,1.000722949082107072e-01
1.003318069709176474e-01,8.812190949286922148e+00,1.009924142526407165e-01
1.024523985304766904e-01,8.817649052705936796e+00,9.637083764871309799e-02
8.902638918699162796e-02,8.817385595887351712e+00,1.059851265235989826e-01
9.390099799122775259e-02,8.812800015210513038e+00,1.041553586382235608e-01
9.838672353462012132e-02,8.817112343890933346e+00,1.017907004517664554e-01
1.013613653391716163e-01,8.809355898044531230e+00,1.014565243304349634e-01
9.705692660067119504e-02,8.809982632187946194e+00,9.923246071740117469e-02
9.142481543486950801e-02,8.830692778775157237e+00,1.040376543043190355e-01
8.798073863432404051e-02,8.804381431217009890e+00,9.972167873672782568e-02
9.810724943150216093e-02,8.822342152639008006e+00,9.514638458458112014e-02
9.836726493623838830e-02,8.810062177885381374e+00,9.312073314437649407e-02
9.772878270864210348e-02,8.826085621869545150e+00,9.950781483897484792e-02
9.739477056300664681e-02,8.809755369297944227e+00,9.685259315810920699e-02
1.028586686562021624e-01,8.817113115642126075e+00,1.061575178930535962e-01
1.029672651616403284e-01,8.818367180563985386e+00,9.556763770898318855e-02
9.841978640054603600e-02,8.820341561354061000e+00,9.882257178018792609e-02
9.632048474897841883e-02,8.820098818277198660e+00,1.039893106467232042e-01
1.001454944221398524e-01,8.823101108063124087e+00,1.014228838106640274e-01
1.054679178353799818e-01,8.814044091670986347e+00,9.930744572691405092e-02
1.019745955340910226e-01,8.820635639891969859e+00,1.017710309241498245e-01
9.005717745644584160e-02,8.812469501004999373e+00,9.154980337014824443e-02
9.767402145420678305e-02,8.818625386118299048e+00,1.046722221991046170e-01
9.366045600383322844e-02,8.817939094313823389e+00,9.407415595811896569e-02
9.669369112817073619e-02,8.812290762727537086e+00,1.016113074637941399e-01
9.608181851819175279e-02,8.819179509129229544e+00,1.059219864443822351e-01
9.617473724564248871e-02,8.818087401936059777e+00,1.022309237107197483e-01
9.755594656187660529e-02,8.810082839875935434e+00,1.043689791739770556e-01
9.639193715411946417e-02,8.832358663130277066e+00,9.610381011390374539e-02
9.615425919349410155e-02,8.810001724374485477e+00,1.004925426837700031e-01
9.219250534056729063e-02,8.824089359226324092e+00,9.707377353122721708e-02
9.833284418724502762e-02,8.816880069474141379e+00,9.554825705371190747e-02
9.689141615249527439e-02,8.827466558453606282e+00,1.020904237152536059e-01
9.799853284998658043e-02,8.812043180867865644e+00,1.043386867775169674e-01
9.556609943087378267e-02,8.811744727628354923e+00,1.039536166186762478e-01
1.051488418508813583e-01,8.819597357022278317e+00,9.476714707365473112e-02
1.117033141791309303e-01,8.809314999838157689e+00,1.015843301325556058e-01
1.013382100846411255e-01,8.815866281278319505e+00,9.961758975460822951e-02
1.021042101357863552e-01,8.816638993360294663e+00,9.937276693326953236e-02
1.011400590765769020e-01,8.815815141218946493e+00,9.488298175551905522e-02
9.869196202521748895e-02,8.810191550285608741e+00,9.853470718980644749e-02
8.909404674999994722e-02,8.821002358794324039e+00,9.789196062557388445e-02
9.182807685494800976e-02,8.809735362563404948e+00,9.761698801961285477e-02
9.194824044954458264e-02,8.819543869413671189e+00,9.561051298149041144e-02
9.564036792760154115e-02,8.812173653276959229e+00,9.637396731628221358e-02
1.041000508493373500e-01,8.812449965265095386e+00,1.098790104037347809e-01
1.034189564071978096e-01,8.814164976755922254e+00,9.142919495953753806e-02
9.289088739430260977e-02,8.821641060383855759e+00,9.686072307823118122e-02
1.071740884923922110e-01,8.811222814050879037e+00,1.059965796635713164e-01
1.091385946672596974e-01,8.807778684334909514e+00,1.032237184138621588e-01
1.003438031116626189e-01,8.813324623325957674e+00,8.984014599557346714e-02
9.600374033406532115e-02,8.817538531010505665e+00,9.503730142638520950e-02
1.035410278759466840e-01,8.811987291017736368e+00,1.108738953521918591e-01
9.689358676088953570e-02,8.816818736230461084e+00,9.160427892522135518e-02
9.830687421600983744e-02,8.819404270517447131e+00,9.771099593585298726e-02
9.935109012410041351e-02,8.815764514969970378e+00,9.644625792061375935e-02
9.370193811335128520e-02,8.816547012244937420e+00,1.010380565195949792e-01
8.862266079255833040e-02,8.826219628089702951e+00,9.587018022620823199e-02
9.532142147997593740e-02,8.815024311126757439e+00,1.000187016196347894e-01
9.596634082142677102e-02,8.812356971441687392e+00,1.022906663318607634e-01
1.003579208833349501e-01,8.811650743199509250e+00,8.140818599725491156e-02
9.598705669909418647e-02,8.819176364211363861e+00,9.501938797178845209e-02
1.004451010826868246e-01,8.809021332021053752e+00,9.841561509162626009e-02
9.847428539790607782e-02,8.813932778271695412e+00,1.000397376759061263e-01
1.031907480209008354e-01,8.813868575976618658e+00,1.009003433045997100e-01
1.027991281530682421e-01,8.805042369650145417e+00,1.006550613781401898e-01
9.940104309769078050e-02,8.819793172277387683e+00,9.418148167812866178e-02
1.070239905050607981e-01,8.809867850532594247e+00,9.530377153138883117e-02
9.529260130818985319e-02,8.813191774098358522e+00,9.891677596812305240e-02
9.547586738768182313e-02,8.816889346388533610e+00,1.035281064129719986e-01
1.037288522230632865e-01,8.807748460117540645e+00,9.198494847261579066e-02
1.012422265422315837e-01,8.810376210715917367e+00,9.871221597342937082e-02
9.301943460741179948e-02,8.816476430784598861e+00,9.213603697689283500e-02
9.694762168702376892e-02,8.819999859436917333e+00,9.828610674066141917e-02
9.157587175930617662e-02,8.808616786328711257e+00,1.112826648048243078e-01
9.965269270882176622e-02,8.813585151087778513e+00,9.445142717417515099e-02
9.726060215850142188e-02,8.815772218844742270e+00,9.351156279182121223e-02
9.442499380787802710e-02,8.815973632313070851e+00,9.285426952128685019e-02
8.861978357605147794e-02,8.815533464259598162e+00,1.008860976068580301e-01
9.232665081709710841e-02,8.816399252797264552e+00,1.033014863941871114e-01
9.220629042140372766e-02,8.819362158340855018e+00,9.354527480200083844e-02
1.002478617422684626e-01,8.817319949391601241e+00,1.070012196673052196e-01
9.289700559870053831e-02,8.817309662933096703e+00,9.700394874844282811e-02
9.709565046574683556e-02,8.811270641729294084e+00,1.018950641708331051e-01
1.033631889129447007e-01,8.811943544497312431e+00,9.764367423646558297e-02
9.898470148705264260e-02,8.820733311033567503e+00,9.951484292194805181e-02
9.837419104875168296e-02,8.817096317227303359e+00,9.835892743255555959e-02
9.776402210806443838e-02,8.814733434585406258e+00,9.036706613294884227e-02
9.343916674511774934e-02,8.822188693290643258e+00,9.165718140052972474e-02
1.013603638635730275e-01,8.809135449713794586e+00,1.024893301074072671e-01
1.051109947836663672e-01,8.814781614534222598e+00,9.683073402146630260e-02
9.517794293800886651e-02,8.812805911320669594e+00,9.835364063918813904e-02
9.271919582340532040e-02,8.812359198068783428e+00,8.680312604269702081e-02
9.626010905182598443e-02,8.818428175880223208e+00,9.630605646334478021e-02
9.775780943777005738e-02,8.830794573563911953e+00,1.025028714011092801e-01
1.053572051055334385e-01,8.817130383821629280e+00,8.982433332469422216e-02
1.052140886104217660e-01,8.818912861627911326e+00,9.509941536831914566e-02
1.000314759429260930e-01,8.809009336763240938e+00,9.788079288072233652e-02
1.033662871770741620e-01,8.813735600410419480e+00,9.646559394544340638e-02
9.563948316097539704e-02,8.820390541117291150e+00,1.017643294820724797e-01
9.826707769875939191e-02,8.814047302637177950e+00,9.625428279921870167e-02
9.826620587725763689e-02,8.810230577034568356e+00,1.017533521632573296e-01
1.056120741052048034e-01,8.810027894056537079e+00,9.742686735449154756e-02
9.493205545982574822e-02,8.808913175867338907e+00,9.133274195095920922e-02
8.993372353465489688e-02,8.813787168073327294e+00,1.006067922022669536e-01
1.003815793055606448e-01,8.818583198108974841e+00,1.016060810149343879e-01
9.888279865914148536e-02,8.816745059031545040e+00,9.432031068488225256e-02
9.536201693599585805e-02,8.819945799013957810e+00,9.169272367072089924e-02
1.022044563104662490e-01,8.815803223671151656e+00,1.055957424404203454e-01
9.801012983451914962e-02,8.809901694613012424e+00,1.006423732022980050e-01
9.403680698940614091e-02,8.813861612813651547e+00,1.064249284015247599e-01
1.105130905735370039e-01,8.822879649516266909e+00,1.028639830578415848e-01
1.029913902833219375e-01,8.816037134292862731e+00,1.086059243482575820e-01
9.749449396163396842e-02,8.813530762806744079e+00,1.075141470867166382e-01
9.198616070291848468e-02,8.814176767168520499e+00,9.656375451281781763e-02
9.628220193122827286e-02,8.824654455272661124e+00,1.004344385320316557e-01
9.702061507094379700e-02,8.817059454090461657e+00,9.933389057377162157e-02
9.698786539069029211e-02,8.814195868991454574e+00,1.034697925659378848e-01
9.436477316843526475e-02,8.821344765250429987e+00,9.029016317454283125e-02
9.824804475621257138e-02,8.809598122236369733e+00,9.606052544809649818e-02
9.765057505042912256e-02,8.820694050106306250e+00,9.655152157348627362e-02
9.588680979841521235e-02,8.817127214660203549e+00,1.005283049448211369e-01
1.008351485701037137e-01,8.820471099184921115e+00,1.017908213995293298e-01
9.905036367148013776e-02,8.814029735184362835e+00,9.804393682663484211e-02
9.157850525605605585e-02,8.818812224456003435e+00,1.008863589480149120e-01
9.614784139294219045e-02,8.813936135703409391e+00,9.669375628366135011e-02
1.042335737615518315e-01,8.813942501423698062e+00,9.139747488767842321e-02
9.819883876569768244e-02,8.812238096979752910e+00,1.013350051242271066e-01
9.192337720353996322e-02,8.814752061618079892e+00,1.007291937230155032e-01
1.084095987356473167e-01,8.806688232421022278e+00,9.746233330331643963e-02
1.020580403127562680e-01,8.814796928133061371e+00,1.108478049877572313e-01
9.258112581009471376e-02,8.815541145131382095e+00,9.539993972501280284e-02
8.935830260625840515e-02,8.818414971599636942e+00,9.681398940598344438e-02
9.391811729282831256e-02,8.817256619512521709e+00,9.363906867143352575e-02
1.053207307248311270e-01,8.815000145660437880e+00,9.409753422442140858e-02
9.090088265016511848e-02,8.812992794903635740e+00,1.013992661721016958e-01
9.766714528508023407e-02,8.816103323844789230e+00,1.001191544386021426e-01
9.505283264107441954e-02,8.821966803291683590e+00,9.977037023570933805e-02
9.993514053782578954e-02,8.823354142654139309e+00,9.590094736957220645e-02
9.572287678128645061e-02,8.819185796443390402e+00,9.267564011300047366e-02
1.035682656144351621e-01,8.829436314080409076e+00,9.174454426959824382e-02
1.011908030995919416e-01,8.825953678339809372e+00,9.800351015909741781e-02
9.288714099698205939e-02,8.824145032980858616e+00,9.505419023378205989e-02
1.011722120475288811e-01,8.813373626157426699e+00,8.958994249410227872e-02
8.754682326611716581e-02,8.821085424741912817e+00,8.915673679767070758e-02
9.966934515633936453e-02,8.814560840272131159e+00,1.027618250520117571e-01
9.700294772561234014e-02,8.812882189850713033e+00,9.660241181634457441e-02
9.604446560405731359e-02,8.827585321708115274e+00,9.533633413920332422e-02
1.032597784234479538e-01,8.815332270303310125e+00,1.073624283441324267e-01
9.879010757586612068e-02,8.821089018600234866e+00,1.034835275481252315e-01
8.709875185206708559e-02,8.816064482719335516e+00,1.058871262600632607e-01
9.489558936991887572e-02,8.818555861660280826e+00,1.028833101386409932e-01
1.035302223309809422e-01,8.813962190058346025e+00,1.053055594893721608e-01
9.860854260553890416e-02,8.818784253404368556e+00,1.027556928781947487e-01
1.090123716309524537e-01,8.809592960190697042e+00,9.461794737080814199e-02
9.926710684047218569e-02,8.814755052558767900e+00,1.039211308115626925e-01
9.716214885534357748e-02,8.815000650350434341e+00,1.036549237721210021e-01
9.410847613597392303e-02,8.813945843331197239e+00,1.001132920367184542e-01
8.983396637852861244e-02,8.816717103910466591e+00,9.690227532106016062e-02
1.058603885577813625e-01,8.813963058916749915e+00,1.002329249049189325e-01
9.703591300870344216e-02,8.813543884291140884e+00,9.962000343025141647e-02
8.868492282441969854e-02,8.820936033277375188e+00,1.002835395798635232e-01
9.708760322549433996e-02,8.824166351904850103e+00,9.459643633291558995e-02
8.936548890183035332e-02,8.810646564350907539e+00,9.401110699750608868e-02
9.757050691965279965e-02,8.816797390440083149e+00,1.023260227011578566e-01
8.991767407303166704e-02,8.816749635896130144e+00,9.404242814772122150e-02
9.940312240625272244e-02,8.818381794814513341e+00,9.168603412542884745e-02
1.032190565926715681e-01,8.818367855644405395e+00,8.915047805840838058e-02
9.798081733062358190e-02,8.819532335263374989e+00,9.543019328572499571e-02
9.840050027764561669e-02,8.816886380906819198e+00,1.027740643073977167e-01
1.040256279382819338e-01,8.808214673640938130e+00,9.901508699802784308e-02
9.993520869394159623e-02,8.820759995284007005e+00,9.629539494348257622e-02
8.833008457870245023e-02,8.815863494555010504e+00,1.023135372185160485e-01
9.359267868693028902e-02,8.818537210973927287e+00,9.709340109378289396e-02
9.194035739313163869e-02,8.814688124587036100e+00,9.585402918097375713e-02
1.007978478846111997e-01,8.818827870049265272e+00,1.061566481189058914e-01
1.008889149111509981e-01,8.812672463528677724e+00,9.900363206209779332e-02
9.817590290060691782e-02,8.819218920059737954e+00,1.053761949156297034e-01
9.625720106586295455e-02,8.827704399387839018e+00,9.304923855496710638e-02
9.360055738116226931e-02,8.814753084675526651e+00,9.148223590215406875e-02
1.045117127591103923e-01,8.819999320886537930e+00,9.706666170280567330e-02
9.749775255714770994e-02,8.826152668838934900e+00,9.841491157473093720e-02
9.875445664177848193e-02,8.810446329363298190e+00,1.056928019572780653e-01
9.536545317061925764e-02,8.815635029383107835e+00,9.328259884640069388e-02
9.410902746321957169e-02,8.817130503465449465e+00,1.012173366207669706e-01
9.477831235706558888e-02,8.814829901422584157e+00,9.699509802369173095e-02
1.054383198608834504e-01,8.826233371424754282e+00,1.013298707836562118e-01
1.067350843987994874e-01,8.821755635985374155e+00,9.128294075090079285e-02
9.678770461130624392e-02,8.808210442146373609e+00,9.738056954621902850e-02
1.035438977885889122e-01,8.823687081178546165e+00,9.522936377843903288e-02
9.934536823691475504e-02,8.822016634632889875e+00,8.890516583565966080e-02
9.378738579222500871e-02,8.811883830987691013e+00,9.617029629156849391e-02
9.574523229615848618e-02,8.816232140721622201e+00,1.026723725346030958e-01
8.488662243982768307e-02,8.811263548238040144e+00,9.591473114579113224e-02
9.874482252987694386e-02,8.813746093684873273e+00,1.009552267791078983e-01
9.347780646473664856e-02,8.817342316620235820e+00,1.020965946533261837e-01
9.863635209940922743e-02,8.814033723888147875e+00,1.026754158939780226e-01
1.105017523198014162e-01,8.814473786746829020e+00,9.910207841564623588e-02
1.032672708426056324e-01,8.808082371706085212e+00,9.887602234151127156e-02
1.022217017413245971e-01,8.821309141839874357e+00,9.484530800286945784e-02
9.725963449955728202e-02,8.807218703800803183e+00,9.562984449306878576e-02
1.117523594448148333e-01,8.811717240562584763e+00,9.666431561906445313e-02
1.055866270559269599e-01,8.818356217140644659e+00,1.125207693531516256e-01
9.813720605133861852e-02,8.819934378092845861e+00,9.494619669508175264e-02
1.038419998465819755e-01,8.807000820490815229e+00,9.182185099256323646e-02
9.776996904570316171e-02,8.822431596795940578e+00,1.055111781601275334e-01
1.025758202569339722e-01,8.815661816569656750e+00,1.011066511875203661e-01
9.599295648789872570e-02,8.822656185681019281e+00,9.514735685710745683e-02
1.077010346595158596e-01,8.818834818907042461e+00,9.978777721537371304e-02
9.799932485286187711e-02,8.818122412856432391e+00,9.827846883263585687e-02
1.001074848934698502e-01,8.811539825260990000e+00,9.665806643940502707e-02
9.536380172315922499e-02,8.811011051941388672e+00,9.168372949017204732e-02
1.029476031177425366e-01,8.814787960372003184e+00,1.023556106569709495e-01
9.438847951462064900e-02,8.821015965523244517e+00,9.575925195975508453e-02
9.518503724085243534e-02,8.808332508082303391e+00,8.899356022568637170e-02
1.109437443086223329e-01,8.812238759088788953e+00,1.047636003202775112e-01
1.038704835224595613e-01,8.815778451881431721e+00,9.476542118649465551e-02
9.910667152960596360e-02,8.817136726321017193e+00,9.563455317542943201e-02
9.842132914128561005e-02,8.818594506719572124e+00,1.035893165423935197e-01
9.988607844250751988e-02,8.815286276054683512e+00,1.028762891904874827e-01
9.873960846175952599e-02,8.813659103571689357e+00,1.018257989217504211e-01
9.788341181700535576e-02,8.806045949723745991e+00,9.868848038666069855e-02
9.083617771282449793e-02,8.816343799059151110e+00,9.807737969889245011e-02
9.932578919613370416e-02,8.826251285780932321e+00,1.013670180662760018e-01
1.015950423516743945e-01,8.816386402860930005e+00,9.775641034308255040e-02
9.867983743935777874e-02,8.827518291094039071e+00,9.616668625855274988e-02
9.823488753598880185e-02,8.815091691974510368e+00,1.039059561534414200e-01
9.741136895955389285e-02,8.816610272746952859e+00,9.247008556694558123e-02
9.426475589235654151e-02,8.818941248945934674e+00,1.024904034473177045e-01
1.022788246385168964e-01,8.818721589056213617e+00,9.800218976459296183e-02
1.074059705361780775e-01,8.814155872141300918e+00,1.062232373519569617e-01
9.723081308600500794e-02,8.823690551605883670e+00,1.043206117318664639e-01
1.067341502510472523e-01,8.811757179316773048e+00,9.434693000095391302e-02
1.048589663023760110e-01,8.812869102378156683e+00,1.044605514194942159e-01
9.340396349362535544e-02,8.813013203598455192e+00,9.570770808716939915e-02
9.301978092597568137e-02,8.822101354646276761e+00,1.026853390930479309e-01
9.996390324359083479e-02,8.815351773377408051e+00,8.630757271140085396e-02
9.574230540724244787e-02,8.823404767251167513e+00,9.687935892803656301e-02
1.041749062823209560e-01,8.829537346770258921e+00,1.058202239336823447e-01
9.313170799189483817e-02,8.812274254995156042e+00,1.005049828836624970e-01
9.489711421027438587e-02,8.826396879202286883e+00,9.855928964109103574e-02
9.444956344649318991e-02,8.819845958676548747e+00,9.262193897641775309e-02
8.904679784494942685e-02,8.811525168357482229e+00,1.016174439120130363e-01
9.474526140371435090e-02,8.817621336716122471e+00,8.861270478704021125e-02
9.950995475469463780e-02,8.809830834301926927e+00,9.585252230964531883e-02
8.618583457243850221e-02,8.817649209809527378e+00,9.465106025763132813e-02
1.068121146733814891e-01,8.805354225454857797e+00,9.933268070781958725e-02
9.531487437203535473e-02,8.815139993504985227e+00,1.026164422864767334e-01
1.018426040136539840e-01,8.809322856502298293e+00,1.040489114708967183e-01
9.592328902541773228e-02,8.815359974519504149e+00,9.355059029148604655e-02
9.838877001298591829e-02,8.817353397811425353e+00,8.633001639994819509e-02
9.673200965242317872e-02,8.826093109348791543e+00,9.334363174215197512e-02
1.006467032117248639e-01,8.807102612991188906e+00,9.782085611148605420e-02
1.005119906649668271e-01,8.822877626444636689e+00,8.837133438632274740e-02
1.060333681960621971e-01,8.817769227770698492e+00,8.858106240823178379e-02
9.688966332911820578e-02,8.825037383950833814e+00,9.874239501725337598e-02
9.551284170047186217e-02,8.814812329009356517e+00,9.058776300403509341e-02
9.270532651268605095e-02,8.815513681456101480e+00,9.848545105600252370e-02
9.424289492699665372e-02,8.818509358314999602e+00,9.957791750257723173e-02
9.716210772317093736e-02,8.811910480810272617e+00,9.609714477637479324e-02
9.726272757889727061e-02,8.817054180523408391e+00,1.104402749580311038e-01
9.357010866525801440e-02,8.817999724801765637e+00,1.024584872971546906e-01
1.093837123893197233e-01,8.815309693605067665e+00,9.757121407978611161e-02
1.000037064987508856e-01,8.821024441204411204e+00,9.697309718864309536e-02
9.456946161311481636e-02,8.819041406307785991e+00,1.026376316846626946e-01
1.074812628202011788e-01,8.813568043795832807e+00,9.422874649203613617e-02
9.876635969678146387e-02,8.822738507757840409e+00,9.896362867098550120e-02
1.013091935594165882e-01,8.823728058380062578e+00,9.622429968278430057e-02
9.184112886002951393e-02,8.814910165954811916e+00,1.021689183639971216e-01
9.751303842587739912e-02,8.813304741852205026e+00,9.929614484291097998e-02
9.490931857708637120e-02,8.819096489433032815e+00,1.054894498267033021e-01
1.038067612026991465e-01,8.813078330376715286e+00,9.670358958031180507e-02
1.034157889291437427e-01,8.817934522412569365e+00,9.679203216575694990e-02
1.007506283859176538e-01,8.811474845638748832e+00,9.277638211702088356e-02
9.368452966437490481e-02,8.821286726862039629e+00,1.020275528070751919e-01
1.056362198627942978e-01,8.817563657653289866e+00,1.054500923383957789e-01
1.017236813367040638e-01,8.816136447456335290e+00,9.668948333159592401e-02
1.004860694180818304e-01,8.825513087929031997e+00,8.738391335179430952e-02
1.030120170805302326e-01,8.819187769026616053e+00,9.450051974125948939e-02
9.777270936160512016e-02,8.808850824202609786e+00,1.031830472473956734e-01
9.781718555320619013e-02,8.814168726419715938e+00,9.266421414766981557e-02
9.850368999138581216e-02,8.812714097596796137e+00,9.909215505166736604e-02
1.101266867767487501e-01,8.815709279918367614e+00,9.917898132446223425e-02
9.818435255787058558e-02,8.810845646903555206e+00,9.456887923479788405e-02
9.339379183781060245e-02,8.811624420159745341e+00,1.007219050623768541e-01
1.101908072572673064e-01,8.808667285258799495e+00,9.799475898261696127e-02
1.018135425476619782e-01,8.815049231330778667e+00,9.809001279738598089e-02
1.002156810640221912e-01,8.814774658904417137e+00,1.040683738252729390e-01
9.443228410359319480e-02,8.815523594866267132e+00,1.007568207595913728e-01
9.392367817796125340e-02,8.807404272512362908e+00,1.064462657071605506e-01
1.002701761444576845e-01,8.821570407162106164e+00,1.028473900682108227e-01
9.343058603472308155e-02,8.820512291667878202e+00,1.048040829069073337e-01
1.020989640118993846e-01,8.811164037101978153e+00,1.013825632011077643e-01
9.263280659927761174e-02,8.824891745440673674e+00,1.037437918580734753e-01
1.006122018573707977e-01,8.818056545834311422e+00,9.917602600092088883e-02
9.972991065653052933e-02,8.819402651894877820e+00,9.263016676722636566e-02
1.001957651913396447e-01,8.812929490547240619e+00,9.720942962475548343e-02
9.336161298378628515e-02,8.812565723587693967e+00,9.728983831336768251e-02
9.981027534891183384e-02,8.819012413240088222e+00,1.066153295441210486e-01
9.715846116953304190e-02,8.813570897292898110e+00,9.952942331166107770e-02
1.033562590098136419e-01,8.821223694436167051e+00,1.045059798605897650e-01
9.710086216226844480e-02,8.810017285282279786e+00,1.029619975302543539e-01
1.044080348068711223e-01,8.813463833043947204e+00,9.489992793165945295e-02
1.022769205166575435e-01,8.817115754672979477e+00,1.041091193682344429e-01
1.011809447249777533e-01,8.814516541684925599e+00,1.034831226634297247e-01
1.065507263309793534e-01,8.813634853645071487e+00,1.029239095825610212e-01
9.953766715734908843e-02,8.816514109687682677e+00,9.693321261408732736e-02
9.736054847976412241e-02,8.809319248289238402e+00,1.062455113759412789e-01
9.770033280341164361e-02,8.820341922129307122e+00,9.759458287776458241e-02
1.018165027827254571e-01,8.826343017303521776e+00,9.532003327048138575e-02
9.699787296309062001e-02,8.813973128758796349e+00,1.057400750703647724e-01
9.422946648746749476e-02,8.811487116423149857e+00,1.040217236249592059e-01
9.738009238407006884e-02,8.811346476781000803e+00,9.913274253618425957e-02
9.077135081968515373e-02,8.817569218610758597e+00,1.021606036098046261e-01
9.840926860007791210e-02,8.814059107933973181e+00,9.142244250720023280e-02
8.783050577200790521e-02,8.817071305113822532e+00,1.011501160658994369e-01
1.000253175001360462e-01,8.804871817773772591e+00,1.017177196087510199e-01
9.939807671768528807e-02,8.811116571337541004e+00,1.028070698863850774e-01
9.779809808809798721e-02,8.820439713429077955e+00,1.003802666718931896e-01
9.529738411246470309e-02,8.813702406440015125e+00,9.720364406304664306e-02
1.051486328579405854e-01,8.817117026401790625e+00,1.045773286138372976e-01
8.697491791738615197e-02,8.817210097453710205e+00,9.159104277200875999e-02
1.020423166045645591e-01,8.810875457105028730e+00,1.005271971998096675e-01
1.010351593739212683e-01,8.811957625528997085e+00,9.344396180587671852e-02
1.109613450960989650e-01,8.814024910477920471e+00,1.093116354415778618e-01
9.331309056733193275e-02,8.819705374828933131e+00,9.557768335162097895e-02
1.031781323275269557e-01,8.810193292507108254e+00,1.045988239574288658e-01
1.033863916195846971e-01,8.819266911614176863e+00,1.071550206799018884e-01
1.029778523041363775e-01,8.813315492459588896e+00,9.015982216760773382e-02
9.969511378783921240e-02,8.812908071582965519e+00,9.392541855590480493e-02
9.644999997722419893e-02,8.809331281181691509e+00,1.009762295985358188e-01
1.013804659999246460e-01,8.821824340874425019e+00,1.034483539780077926e-01
1.018776213860602131e-01,8.816287126558144394e+00,9.443723556916255868e-02
9.833926952662430665e-02,8.819180642110895363e+00,1.025486894738445454e-01
9.109488333179778519e-02,8.809544933105724951e+00,9.782823294189238461e-02
1.007843930677270045e-01,8.815628630164066948e+00,9.275980513905654479e-02
9.330217980860609772e-02,8.822272582389075524e+00,9.613627586985031004e-02
9.001590706060140501e-02,8.815624540061572034e+00,9.690421610400319630e-02
1.072188278758635926e-01,8.819549784567799477e+00,1.055756266658263581e-01
1.066728300621483244e-01,8.819209935094956876e+00,1.004680878880838540e-01
8.834119172662339980e-02,8.812846807013215766e+00,9.799632102331327921e-02
9.313080978979165758e-02,8.809382684084116732e+00,1.016022619049455483e-01
1.017368267309944202e-01,8.814997799045308113e+00,1.005852108146020329e-01
9.652877427048087156e-02,8.813937156145675189e+00,9.458792969970869491e-02
8.794233101073559156e-02,8.809197265289926193e+00,9.621199600537652663e-02
9.417143291579387065e-02,8.820080591227538847e+00,9.993390500155140133e-02
1.025998329209636545e-01,8.812408055856732148e+00,9.265010950953574131e-02
9.565422519824369474e-02,8.821094598314257240e+00,9.659132189149413628e-02
9.455068394771276585e-02,8.808600931163303116e+00,9.523962663888209390e-02
1.018396967759065963e-01,8.816633318599119917e+00,9.620316745219543997e-02
9.671394723565308882e-02,8.814269834399500070e+00,8.956813129751797775e-02
9.213279844728956836e-02,8.820409290934819069e+00,9.962581993398339497e-02
9.912315296037753354e-02,8.818321399231075830e+00,9.502037531589301034e-02
1.019682638116082146e-01,8.819280044875743130e+00,9.761957943855895103e-02
9.017643888245799322e-02,8.814396097730229584e+00,9.779844775220503106e-02
1.016901419535314183e-01,8.819746320377099380e+00,1.016528215720690076e-01
9.970615079689422455e-02,8.818370789591506664e+00,1.038302192364441434e-01
9.042772084995343018e-02,8.811118766942168889e+00,9.649410777963099428e-02
9.537691072059449604e-02,8.819362163616741412e+00,9.299881349005667541e-02
9.254955302534989547e-02,8.817696054606845024e+00,9.755436260293938455e-02
9.199803405645094745e-02,8.812552635715306337e+00,1.059925117174650711e-01
1.091093368337171937e-01,8.824199403831899602e+00,1.009261518822629211e-01
9.225067473696718645e-02,8.816990441391519440e+00,1.009892185195172543e-01
9.444116563525041530e-02,8.814063569045439195e+00,1.000128782399266059e-01
1.083691237392931939e-01,8.820687423714568709e+00,8.880075798031285272e-02
9.063266247769721784e-02,8.826384304197118169e+00,9.831490072545283343e-02
9.962936434107864947e-02,8.820169087120193652e+00,1.009132099402124255e-01
9.711314339765278469e-02,8.801522278937895294e+00,9.765189603397972373e-02
1.118861487779589797e-01,8.809684212341023724e+00,1.031270805400551355e-01
9.281146212996009559e-02,8.815325081693854870e+00,1.007225432020463496e-01
1.009014569170785247e-01,8.818946683276372767e+00,9.898547626312885483e-02
8.493982028501427528e-02,8.825032838605020302e+00,9.532405542985150637e-02
1.011162913078088588e-01,8.818153293592462916e+00,1.045453149384672209e-01
1.066757188148819979e-01,8.809328546344607602e+00,9.899865621217890377e-02
1.022067983985548434e-01,8.819734151674644806e+00,1.000327619723632155e-01
9.750455808190394702e-02,8.813132564981096095e+00,1.029415935806596433e-01
9.622591811318076394e-02,8.810729544796956247e+00,1.013834010567587346e-01
9.437899119503796730e-02,8.804032649774272912e+00,1.046958673720418675e-01
9.771387180762866609e-02,8.821698699674623612e+00,1.005552733631489698e-01
9.698634635097107271e-02,8.814739482980918694e+00,9.420880164479075725e-02
9.715192052236235054e-02,8.820526286954528672e+00,9.941398891056194009e-02
1.038039119242449571e-01,8.817975270210935079e+00,1.021007627197203088e-01
1.031979933078693151e-01,8.817968933480685223e+00,8.722103629084652920e-02
9.525510020128220845e-02,8.810457106189192089e+00,9.415346651567879643e-02
1.102168215610450364e-01,8.818701158555718678e+00,9.629288396224332247e-02
1.022642854520308814e-01,8.820059724238122456e+00,9.744783244296555125e-02
9.941216523010755479e-02,8.823566808584809351e+00,1.002239936508622642e-01
9.580516154555260289e-02,8.816086284391774441e+00,9.339985018313752552e-02
9.823877452071154426e-02,8.818535056335985445e+00,1.004694944985502075e-01
1.015253604508939006e-01,8.810317310965896098e+00,8.908694830701230361e-02
9.919586474756653116e-02,8.813903373459339718e+00,1.029503133006860333e-01
1.009155682579978563e-01,8.812146073085219911e+00,9.781369646515239435e-02
1.029798743666572036e-01,8.827197409046398491e+00,1.056527349185978210e-01
9.567114462439596512e-02,8.814930448048334810e+00,1.009915070986153462e-01
9.469607831461385183e-02,8.806515470169070881e+00,9.336234955956364268e-02
9.830248336624737571e-02,8.810105253877800635e+00,9.185472619587818632e-02
1.083295304204204418e-01,8.824194883027230318e+00,9.861025553360802665e-02
9.606619972182636746e-02,8.812952689171522636e+00,1.012398961466572378e-01
9.680526384245158322e-02,8.816152157142608914e+00,9.888056136590162026e-02
9.388624450306672087e-02,8.804758987985760399e+00,9.432876008281722291e-02
9.788629599217044119e-02,8.824761273078923551e+00,9.442478793476381804e-02
1.011640731133820748e-01,8.819414729881847492e+00,9.318766986197257740e-02
1.017624320952656702e-01,8.812854984091796240e+00,1.083787993908514186e-01
1.022238371364773135e-01,8.815936227006631043e+00,9.830331332372746478e-02
9.401887893183565048e-02,8.813987772335035942e+00,9.908689883029556111e-02
9.408035137589333685e-02,8.818955587624131454e+00,1.008128191415890440e-01
1.013541670546084517e-01,8.817902402592215694e+00,1.087953035088244508e-01
1.085792561271662904e-01,8.814686263468475502e+00,9.287345294395921158e-02
9.816467873523875010e-02,8.824090992224908447e+00,9.772961912666426609e-02
1.000998041737257288e-01,8.815016125866034002e+00,9.641729895538743433e-02
9.271353300954338073e-02,8.815534210986090358e+00,1.065357372335073161e-01
9.786358276473509921e-02,8.811853637763435998e+00,9.494651331788034332e-02
9.403757838927065404e-02,8.817679246462663656e+00,1.021825698189847004e-01
1.005666785063777519e-01,8.819037496820222088e+00,9.453270101208584297e-02
9.911975915931091341e-02,8.814326162045730939e+00,8.561560401243147045e-02
9.753985605936836556e-02,8.818949724428955861e+00,1.077612601863565112e-01
1.064045200513353828e-01,8.823911453323910692e+00,9.104850459420445186e-02
9.644499762422015232e-02,8.807545339639506921e+00,1.003876296256921569e-01
9.214384687154074383e-02,8.816907036824183308e+00,9.643785773218326030e-02
9.966556851335603429e-02,8.816794242964018480e+00,1.045888306220969510e-01
9.922749133711827874e-02,8.810219147710654397e+00,9.987726832325571902e-02
1.032801748782784385e-01,8.822793848169981246e+00,1.044403759173028606e-01
9.372800155853047710e-02,8.814388498395279825e+00,1.023571840613644729e-01
9.352618438941602552e-02,8.818387281290576141e+00,9.122969800284484732e-02
9.731270250080269191e-02,8.817695913745044578e+00,9.082357166849673591e-02
9.625523765428435630e-02,8.806790418613555715e+00,9.675377602014202660e-02
8.456192101352821844e-02,8.816730441700414644e+00,9.261188390989109898e-02
1.018755292537668750e-01,8.817067801206723843e+00,9.186149420995083636e-02
8.956353027635929887e-02,8.819102793345255265e+00,9.810722835768311001e-02
9.675873936837114941e-02,8.805062033792399490e+00,1.037811208411885122e-01
9.805780661427633549e-02,8.813522559934018119e+00,8.957309405935358348e-02
1.056932112237291693e-01,8.815537548535516521e+00,1.020439515084562987e-01
9.867192478378883358e-02,8.816042803010398998e+00,1.047935467309318858e-01
1.050205263743704126e-01,8.814787989027250248e+00,9.354249437991808691e-02
9.900521727099324820e-02,8.809221593944188911e+00,9.600121765631146331e-02
1.076393728088829993e-01,8.808718303879370382e+00,9.406113553531370020e-02
9.151522908315048999e-02,8.814212734543506400e+00,1.049791216919406800e-01
9.152250157117292062e-02,8.806485255038829507e+00,9.641181159861450523e-02
1.010636390469558665e-01,8.814714254261954096e+00,1.034428823415767112e-01
9.669631491374267029e-02,8.809053264090636048e+00,1.037301366298393340e-01
9.787533346236462761e-02,8.824664025900235131e+00,9.620940956810405953e-02
9.648652411413385921e-02,8.817990139947811556e+00,9.602737544137567027e-02
9.740916785337734585e-02,8.814993181137127820e+00,9.684788296347361658e-02
8.822639983294135180e-02,8.815273090462472538e+00,9.439968853707655927e-02
1.092793599405564864e-01,8.811372113098318692e+00,1.019175859082727814e-01
1.008670856944373917e-01,8.814115118969727547e+00,9.330281144984238495e-02
9.224598904475139749e-02,8.817927361957815791e+00,1.026627089976349799e-01
9.947096146597352029e-02,8.813296640004635307e+00,1.032521511814908644e-01
9.968877061189136690e-02,8.815525111460884133e+00,9.423241250505835775e-02
9.239107486715458784e-02,8.811429457228593165e+00,1.037715073715522185e-01
9.757148471623483532e-02,8.809374649063467899e+00,9.525327120677629100e-02
1.067864844676110064e-01,8.819345661933436276e+00,1.004285015430275152e-01
9.765372212481589209e-02,8.815928461783714809e+00,1.014886959016002982e-01
1.062438719269755694e-01,8.821431683226338194e+00,9.411020289364475933e-02
1.110527836315152034e-01,8.814755858984074877e+00,9.766606364062965784e-02
9.686257873523368422e-02,8.813021207651212663e+00,1.005170875024869320e-01
1.024856295499672193e-01,8.811447697177717586e+00,1.036106635003705562e-01
8.915861451646606151e-02,8.827392392237925378e+00,9.344120168000169535e-02
9.308088036271153221e-02,8.817473424974199503e+00,1.032908919290726341e-01
1.016880584154502554e-01,8.813473063897941273e+00,9.563427466183803405e-02
9.756735575553125706e-02,8.810430949636607778e+00,1.053570605174542485e-01
9.974277791333119314e-02,8.818367531740928911e+00,1.073856704556454406e-01
9.991589269441293608e-02,8.822974918068521077e+00,9.704658062862460410e-02
1.009411014064096335e-01,8.814348952696338557e+00,1.048223746458525896e-01
1.028260035583785231e-01,8.819344106206928657e+00,9.346950757104122154e-02
9.786784339350740325e-02,8.801283542520582870e+00,9.785361134380474168e-02
1.009180724515347793e-01,8.801259097929516884e+00,9.233830414400849562e-02
9.239249421402589979e-02,8.811714379787288109e+00,1.000722278978297825e-01
9.985835243561226593e-02,8.808329362818577479e+00,9.869483542202375781e-02
1.010499847641283394e-01,8.810569999084863824e+00,9.622282098431002295e-02
1.028682452167038880e-01,8.814401132850143483e+00,1.018783856119477027e-01
9.220142469738062951e-02,8.824094517780693536e+00,9.751288081157198639e-02
9.928844004955555969e-02,8.827327183401495247e+00,1.086634196786655376e-01
9.206127613556290556e-02,8.816773923184552331e+00,1.022956136524243859e-01
9.976829287588688533e-02,8.826195778929951885e+00,1.047293367510876982e-01
9.586457224376369879e-02,8.819868661285882538e+00,1.006338238575793936e-01
9.760869023052430593e-02,8.812091832140211523e+00,1.005772580409053374e-01
9.874866947756659463e-02,8.820775862986277360e+00,9.594335994527680711e-02
9.709830396522485529e-02,8.817645957891190989e+00,9.060540574850428630e-02
9.714429410321662184e-02,8.813905668551157646e+00,1.040445924538091760e-01
8.881065059422596497e-02,8.814522800934270208e+00,9.375918608627265005e-02
9.515665144493526406e-02,8.804489975957853432e+00,1.057049269566243954e-01
9.159927761607100649e-02,8.814060821077367436e+00,9.052122240147469912e-02
9.708167003685853891e-02,8.810697120747006394e+00,8.928097188244854543e-02
9.146084441521372399e-02,8.814827777359019123e+00,9.767614463752566367e-02
9.217983684826622226e-02,8.808213687945890769e+00,1.059756321145207680e-01
1.058965322476996956e-01,8.816746265125797066e+00,9.431211243897386076e-02
1.027202319883890880e-01,8.822201198672233957e+00,1.024250625552384081e-01
1.004914237409922501e-01,8.814558717036568680e+00,1.063588749705623032e-01
9.016617376847789467e-02,8.810805053522010155e+00,9.790157662124075733e-02
9.876597096279479682e-02,8.823087073627682742e+00,9.647975747291419324e-02
1.040388610337482922e-01,8.809692748169565490e+00,9.653456157390104264e-02
1.040687570728319189e-01,8.813045701848794877e+00,9.659799960752855907e-02
9.760636423369606351e-02,8.822975908129226497e+00,9.100671200444720998e-02
9.598451338317080805e-02,8.812659313457119836e+00,9.254355769971270296e-02
9.299339958517555127e-02,8.809412193685291825e+00,1.080163582177441767e-01
9.789078062133564628e-02,8.812413311587443232e+00,1.027676577202638192e-01
9.642123076156292050e-02,8.817236776560084976e+00,1.019622052671666362e-01
9.338334473021268900e-02,8.812927638268472919e+00,9.903296764090684101e-02
9.435377709596874662e-02,8.813458861132604127e+00,1.005096463407486457e-01
1.063110855155112305e-01,8.811352994575639030e+00,1.023215758978630596e-01
9.837634755675307707e-02,8.812922866706273339e+00,9.754243961202600788e-02
9.706312611357396924e-02,8.812765775278810665e+00,1.074678500032191647e-01
9.134335974792121005e-02,8.814526429694975462e+00,9.976136866653009805e-02
9.863481302248554294e-02,8.813888815303679181e+00,9.124921616609768527e-02
9.638880943529277989e-02,8.814361847455618459e+00,9.950954028988409639e-02
9.766736372018923473e-02,8.822671313558005934e+00,9.819848602346481492e-02
1.015323291306820669e-01,8.814635341574810212e+00,1.012455499467072306e-01
9.523440161467404408e-02,8.827110305629100040e+00,1.061896098177334269e-01
9.926560934341900622e-02,8.813516896490009245e+00,1.069048176212051698e-01
9.574087168297837347e-02,8.816190347283127338e+00,9.633548018499230037e-02
9.571305019205500475e-02,8.819315718810448956e+00,9.958683603270705731e-02
1.012646843189495827e-01,8.806149770976404056e+00,1.060635884248097849e-01
1.040727065676406715e-01,8.826250160475892059e+00,9.596952003626091354e-02
1.101710220545676217e-01,8.809304166601808816e+00,9.967969604672280437e-02
9.974969761526226997e-02,8.816189750224063815e+00,1.132783023396256306e-01
9.779197357372983179e-02,8.820261529134084455e+00,9.852751334005066530e-02
1.012279554455968594e-01,8.821256332694741076e+00,1.043804142497100351e-01
9.695875725150823743e-02,8.824247771926138739e+00,9.547242802196925782e-02
9.439567742112574267e-02,8.819065204667182911e+00,1.022649992529997831e-01
9.324326515343855926e-02,8.825777997527998409e+00,9.616886743702172946e-02
9.629198653560691601e-02,8.814269959500791174e+00,1.027690490541681573e-01
9.535453173794546100e-02,8.813714750097732420e+00,9.847597450239568839e-02
1.106828323465389868e-01,8.814510046268551946e+00,9.163494305632240156e-02
9.756176128845789330e-02,8.816251607087590259e+00,9.001116541842210661e-02
1.017111872281212248e-01,8.808244215366086038e+00,9.519728509580284437e-02
1.021858057865952241e-01,8.810027102103211050e+00,9.523721696051234975e-02
9.837186997805061339e-02,8.820929791267904108e+00,1.023940743940813386e-01
9.269744997548025334e-02,8.816399598326585263e+00,1.006915980808130301e-01
1.058751029433601526e-01,8.817291042329349793e+00,9.611578165932931073e-02
9.734690341632165622e-02,8.815128465013614800e+00,1.069913117852719225e-01
9.569205673565261971e-02,8.815753206801440811e+00,8.947414726563775178e-02
9.583381297738896576e-02,8.818142590592916719e+00,8.558339982404326862e-02
9.578752688873919119e-02,8.814128846815506790e+00,9.423018756056276979e-02
9.314890471581921405e-02,8.814573735180776026e+00,9.630239144670270368e-02
8.941190439494925424e-02,8.810217928279548971e+00,9.961898518500082733e-02
1.000216027443310285e-01,8.816747242462684042e+00,1.039860553229091100e-01
9.751699971004684775e-02,8.807734091072296323e+00,9.409248601129358014e-02
1.042705388238106545e-01,8.813105922050937124e+00,9.680407760743420242e-02
1.004987563546805296e-01,8.806976435804433123e+00,9.562686196350096701e-02
9.382821830553220166e-02,8.813687640655176736e+00,1.027373350713874506e-01
8.991134972001105230e-02,8.814855115683577935e+00,9.790048618220323351e-02
9.208262619454754550e-02,8.819138928808747835e+00,9.448374304594639450e-02
9.390132757330083013e-02,8.815659934074774995e+00,9.208894297779193772e-02
1.024613961108298971e-01,8.816959864036569172e+00,1.053905880696605901e-01
1.002994528877633601e-01,8.824309813869970043e+00,9.932491255688159770e-02
9.068008061143387200e-02,8.820179042820514681e+00,1.014358973849736334e-01
9.884973035596518465e-02,8.822962624540867438e+00,9.610897062900777832e-02
9.999166766827966013e-02,8.813464839896514746e+00,1.082289374531827109e-01
9.667578287079731103e-02,8.820312891142574330e+00,9.770973131498582320e-02
9.490718280624635406e-02,8.813136938076970850e+00,1.017770539368357124e-01
9.566275733992109231e-02,8.814757289419446806e+00,1.039547242205246802e-01
9.117226950568874111e-02,8.811721202740871561e+00,9.132303041668603238e-02
9.251038941824694939e-02,8.809919628853247531e+00,9.761378969778826409e-02
9.542947087475793511e-02,8.812368591130574913e+00,9.359471692362404671e-02
9.245769870293768511e-02,8.811755512074359586e+00,9.320970258252776752e-02
9.427293519466685423e-02,8.820783333017860883e+00,9.812632840878185436e-02
9.618398158807064946e-02,8.815768701722648260e+00,9.891119693602584695e-02
9.963385635977312083e-02,8.816298747371419608e+00,1.024116131101842769e-01
1.070316878045396852e-01,8.822368088305051259e+00,9.870032992002669703e-02
1.001263143079930140e-01,8.808145824380256173e+00,1.017917515628809638e-01
1.037825672815441413e-01,8.816144175809236927e+00,9.913888432874834455e-02
9.746297542636343791e-02,8.814661278638668662e+00,9.314268410690119959e-02
8.526157613808307834e-02,8.814958268258347829e+00,9.989797167842746906e-02
9.483018515456266562e-02,8.818229499067355093e+00,1.101946621873626520e-01
1.046577115843983913e-01,8.814621774818554911e+00,9.621469153132011787e-02
1.037989567584556155e-01,8.816065055291023356e+00,9.914503114481325319e-02
1.053775018564318822e-01,8.821211455457737216e+00,1.007686841169707637e-01
1.030810588989065080e-01,8.822497505082173674e+00,9.122485591213153056e-02
9.358006591557158083e-02,8.801920069257262114e+00,9.301004861950627756e-02
9.617674630114804446e-02,8.811942596966808594e+00,9.431871428812331482e-02
1.031914731647241845e-01,8.813407141645518195e+00,9.622497654657705124e-02
1.016592617036488760e-01,8.820008355366073971e+00,9.852973026605894857e-02
1.039598262394210021e-01,8.817848702534242022e+00,9.899442384831068364e-02
9.194609944135738455e-02,8.808663983424144917e+00,9.097294960143509357e-02
9.837602947549121957e-02,8.813113557525483088e+00,9.464179137633407790e-02
9.467103316859480644e-02,8.810986158185890815e+00,1.062412067040367780e-01
1.030702678865987043e-01,8.814330370444260154e+00,1.069994154587326912e-01
1.009399816138346895e-01,8.804919554434807338e+00,9.742086506941509405e-02
1.047586729238866865e-01,8.818158724053882125e+00,1.021249677998430500e-01
1.076316214433393897e-01,8.814352799462078281e+00,9.890743512842657681e-02
1.043127261600674399e-01,8.821086846440302054e+00,9.685199685645258516e-02
8.772526351173075276e-02,8.819912622940561775e+00,9.994699878648853619e-02
9.992271142203730527e-02,8.812302412187310807e+00,9.353271875226078225e-02
1.010133597075729833e-01,8.814727433227941944e+00,9.415103480718768625e-02
9.989142330939602965e-02,8.803785019885779661e+00,9.789770606441483558e-02
9.605091719069450140e-02,8.816372177469464333e+00,9.111659602120615598e-02
1.075501412641839960e-01,8.813462831213103144e+00,9.489159547107579862e-02
9.879059214854434001e-02,8.821962421163895840e+00,9.814828712062113880e-02
9.185528525662740862e-02,8.815584312754442209e+00,1.024630854915501293e-01
1.050729123783814140e-01,8.813645946176119850e+00,1.045920947075047874e-01
9.117040469972752248e-02,8.816191757520565275e+00,9.845254412432535851e-02
9.686697415206098338e-02,8.820435389878040766e+00,9.589521335817594028e-02
9.112808133835645363e-02,8.817062194500261185e+00,9.427319898905843487e-02
9.955702163674078065e-02,8.815897813835126939e+00,9.713861664326266243e-02
1.019465917520805537e-01,8.810804668448705357e+00,9.766207018844658139e-02
9.769002775477099443e-02,8.812059929758683907e+00,1.018801015502420054e-01
1.011371395612172125e-01,8.817920056591322719e+00,9.398989730190805691e-02
1.065866146461393049e-01,8.811284185270764624e+00,9.606786085807421383e-02
9.893567206411661707e-02,8.821678445756271358e+00,9.193785246261365618e-02
1.078090057136222302e-01,8.813452052305992268e+00,9.584340242428623924e-02
9.977473941459831519e-02,8.826580420069193522e+00,9.518497843293548255e-02
9.941793802925599777e-02,8.812975197772843217e+00,1.020215147325193722e-01
9.615469579508828524e-02,8.811965152893566966e+00,1.057607277947418545e-01
9.727609034173860525e-02,8.817787299788893307e+00,9.478700266203519964e-02
9.858781178508362053e-02,8.807443277654041225e+00,9.044017101174248174e-02
1.041877533138184098e-01,8.813613388188194619e+00,8.926192833526566672e-02
9.344922444680048290e-02,8.818226035513301753e+00,9.970057141691217317e-02
9.073387560189424828e-02,8.826586225337704761e+00,1.056726904759996283e-01
1.000683097401494220e-01,8.818671753011976477e+00,8.603828177304795322e-02
1.032178390509820992e-01,8.823098151768739683e+00,1.029299900117268823e-01
9.598667637682976872e-02,8.814167504501336126e+00,9.336224863829316323e-02
9.639324925403830457e-02,8.821296534961826197e+00,1.016276979414413723e-01
1.008242280310362865e-01,8.811128481063603246e+00,9.693161782108784819e-02
9.976480525181211090e-02,8.812658813360412680e+00,9.783897991095198698e-02
1.001417273499531774e-01,8.823930437924200731e+00,1.022951196996906842e-01
1.051834240338996029e-01,8.814574435776837191e+00,9.901059778186903360e-02
1.011197482524264224e-01,8.809927791094221305e+00,9.621904733339542437e-02
9.542569627404509647e-02,8.814441488748519404e+00,9.860651520900622080e-02
1.081623284798296919e-01,8.815000492752844252e+00,9.113914082490669200e-02
9.590684490247200489e-02,8.821784628471958101e+00,9.720076455318625575e-02
8.985355288016946829e-02,8.814016581909823955e+00,9.608311605874449157e-02
1.102835989778240267e-01,8.812502725513441604e+00,9.489015071792689104e-02
1.053509804568489305e-01,8.817077251636970203e+00,1.045381652850978504e-01
8.760245388873874606e-02,8.808028695747346148e+00,9.938574853627586692e-02
9.734016412222626369e-02,8.819355999098437593e+00,9.465679662801700089e-02
1.015161430053800468e-01,8.814277042266702722e+00,9.951444459987256186e-02
1.016859215485827472e-01,8.818145457814155819e+00,1.002693177214441372e-01
1.023166380062468933e-01,8.812374769904668170e+00,1.005590271459369245e-01
9.803583395661571998e-02,8.817333921111131900e+00,1.018149136816457884e-01
9.819494524976922489e-02,8.820881498360996886e+00,9.566881469626201118e-02
1.004735349794734639e-01,8.813100083174839838e+00,1.050103885264333514e-01
1.041025907220249624e-01,8.817534876521294862e+00,9.038784117723945577e-02
1.018382876542244381e-01,8.821367651752344941e+00,9.815851227438028570e-02
1.054061919705950590e-01,8.808453628293335669e+00,1.023414044517081539e-01
9.166206894975216513e-02,8.822967773843421568e+00,8.779057045102856005e-02
9.699717164431909122e-02,8.812608518946579039e+00,1.033999622758815656e-01
1.075818014148715029e-01,8.821605759346946130e+00,9.956841838705972336e-02
9.203143587299289496e-02,8.816671292064432564e+00,9.920069179820591165e-02
1.023769401938058599e-01,8.819532871738209323e+00,1.044004909174451462e-01
9.685991137535880646e-02,8.813381772796027747e+00,1.047783285277916476e-01
9.129624279547389476e-02,8.818314845866861873e+00,9.822415485560367920e-02
8.606982060458358286e-02,8.825905698035898084e+00,1.019880913686446733e-01
9.808521096408499840e-02,8.819368176056700648e+00,9.599865242002664223e-02
1.045405273834081467e-01,8.814074336218098438e+00,1.038621817866637737e-01
9.838654448616107606e-02,8.816628738243458940e+00,1.024248462090636413e-01
9.730667496852155041e-02,8.821679834566593215e+00,9.700927171996148735e-02
1.032243796754313131e-01,8.817840879471825488e+00,9.308483480145143818e-02
1.032396193706571763e-01,8.817077043444998097e+00,9.797706688125115693e-02
9.426939383720332744e-02,8.804831649369113222e+00,9.726311201273349361e-02
1.072563384896131761e-01,8.816823423269402937e+00,9.998201639463887014e-02
9.272226716074766228e-02,8.820532934002715209e+00,9.931391926685374794e-02
9.959816763538927031e-02,8.807669861211527618e+00,1.025600680450572122e-01
9.929059436821034701e-02,8.811526451773808333e+00,1.030745226862914560e-01
1.009429539608539539e-01,8.827090510571775184e+00,1.062168430701727062e-01
1.019718784664878919e-01,8.811411867205958259e+00,1.065542141340068694e-01
8.990056590662633129e-02,8.809784191383666752e+00,9.830629221893122383e-02
9.208082933907497936e-02,8.826816461564936489e+00,9.579372963688841114e-02
9.348239007392886157e-02,8.816380751491205814e+00,9.948931023580152855e-02
9.082428655044633148e-02,8.819258487009937753e+00,9.928491379661608107e-02
9.717859149726215673e-02,8.819179462869453090e+00,9.722243718988521355e-02
9.333035975618557412e-02,8.822748050885850901e+00,1.015876424918375209e-01
9.248712956950583264e-02,8.808250941552843827e+00,9.946702233287697814e-02
9.347645147954990186e-02,8.823373921123941699e+00,9.195252759929314901e-02
9.040571015338361160e-02,8.819967115177894001e+00,1.032330764803318091e-01
9.801161947908806904e-02,8.815573371154597382e+00,1.019294831677427238e-01
8.907477265671552569e-02,8.803754221690288873e+00,9.915089206055383020e-02
1.072453272764697652e-01,8.809447412196320215e+00,9.668557360329965711e-02
1.060331782585797883e-01,8.814829248287640695e+00,9.946080831391225507e-02
9.633865849089565114e-02,8.816290074641889518e+00,8.824453968168344264e-02
9.892841445119951449e-02,8.810863415310100422e+00,9.170887110540251741e-02
8.888586603951693921e-02,8.811867587919698153e+00,9.857178795178017650e-02
9.410011824932477953e-02,8.821337587673280467e+00,1.058529425484134034e-01
1.056393398557956553e-01,8.808090363310748572e+00,1.034150760839758071e-01
9.074632555808931356e-02,8.817068838202729353e+00,9.445376445541489585e-02
1.023246359994867682e-01,8.811372772876456594e+00,9.861479579089818537e-02
1.107595122141134814e-01,8.812870299316729827e+00,9.240666224992533095e-02
9.706469251804300535e-02,8.816336121859126962e+00,9.764948032629987285e-02
9.960719136000460716e-02,8.812698023848470896e+00,9.556650711110019347e-02
1.007125097199477459e-01,8.817107571945150823e+00,9.722190015597111101e-02
1.000424813030099253e-01,8.817984002733807003e+00,1.005061866462406139e-01
9.831070402284779186e-02,8.813474008030203422e+00,9.239956332274693040e-02
9.175951573269033879e-02,8.813634581671209389e+00,1.013329067310147491e-01
1.051479784374645954e-01,8.809744003640147980e+00,1.054506837189463364e-01
1.101563824851414242e-01,8.814949735214048232e+00,9.298161854443420804e-02
9.265366713772577034e-02,8.820119495169050694e+00,9.100885534400326993e-02
1.014202671237721259e-01,8.807131519106563999e+00,9.963753890290726056e-02
9.251167375063962250e-02,8.811661828320630718e+00,9.693280692590418302e-02
9.876695945824434664e-02,8.820662050421693934e+00,8.913327835477953542e-02
9.391748709890228308e-02,8.820102404800699958e+00,1.037555438491680471e-01
1.003557426729991819e-01,8.814982132406905535e+00,1.058852658067510888e-01
1.018150156983222143e-01,8.806197393106536708e+00,9.968180681357116657e-02
9.702659474258654160e-02,8.818468869862723380e+00,9.573298495698825961e-02
1.035837941743749935e-01,8.811298584094734210e+00,1.085301368850114523e-01
9.825453874722736569e-02,8.810743156822340438e+00,1.042606956911567573e-01
9.392249270676722439e-02,8.818193691011231294e+00,9.254835281496025245e-02
9.893159586151675788e-02,8.811183158279682459e+00,9.227098590117940868e-02
1.019442484850798109e-01,8.819935589737250226e+00,9.541448717485200015e-02
1.029880668959746726e-01,8.812917367434017990e+00,1.051271825626600293e-01
9.106061904082951575e-02,8.806518550403215073e+00,1.022156042633493300e-01
1.000636470088472479e-01,8.825742830861242894e+00,1.042074402664506516e-01
9.536018529854986547e-02,8.807315445733697956e+00,9.906597195949727597e-02
9.422242492788605872e-02,8.820936447186022988e+00,9.803366704209666438e-02
9.850933003662140641e-02,8.817549058325804268e+00,9.966581531216862910e-02
9.800218303963392774e-02,8.809594110095249064e+00,1.006162589544050273e-01
1.003703543294076073e-01,8.820746438226979791e+00,1.003513786631240745e-01
9.803024371317418939e-02,8.807703107449066593e+00,9.236582239653205739e-02
1.046078522590837695e-01,8.820563211131915438e+00,8.916225509768541113e-02
9.749542453886730908e-02,8.810153080568165151e+00,9.622236061444117139e-02
9.678588088096466702e-02,8.816654473850165985e+00,9.152086766803479989e-02
1.036904086612898818e-01,8.821283680584008025e+00,1.029172057384948047e-01
9.735639220600302013e-02,8.816970583067760714e+00,1.006573419711019185e-01
9.674666264851809749e-02,8.827158470516383915e+00,1.107119760194247710e-01
9.152588643625167442e-02,8.804525484069328556e+00,1.062711809795439527e-01
9.534831131191524867e-02,8.809572367715260199e+00,9.986555336318429787e-02
1.041639656752344489e-01,8.805654454914510154e+00,9.882145082030596717e-02
9.815247604026085260e-02,8.820014408062895939e+00,1.006083654405205419e-01
9.328400306721854052e-02,8.821849764626485069e+00,9.967776732506733461e-02
9.558952361001311904e-02,8.815109290592065605e+00,1.020268340960330117e-01
9.896786334323531831e-02,8.817176306077097792e+00,9.723698828438813446e-02
9.758345602529062968e-02,8.804224349342211653e+00,9.831922041914539778e-02
9.247636689173487079e-02,8.812633593114229669e+00,9.233069755042994098e-02
9.773556838612913744e-02,8.816123598874449740e+00,9.055998713556698276e-02
9.855980947324706476e-02,8.810888453908882312e+00,9.812516815562580264e-02
9.524151175363514132e-02,8.812482821448698544e+00,1.014888264236336324e-01
1.037504314260776495e-01,8.815909975999696613e+00,9.973643096212876646e-02
9.850621073589904686e-02,8.817265293873807863e+00,9.543368355841697070e-02
9.579957612812814438e-02,8.814867656663167850e+00,9.310887784847421411e-02
8.669447829377255332e-02,8.812632816726798879e+00,9.595413981888818722e-02
9.992767307570710189e-02,8.812658582549516950e+00,9.681715940689616939e-02
8.354795676248633063e-02,8.823257982495638529e+00,8.715440950108210849e-02
9.293389780683591894e-02,8.806826101581343380e+00,1.000367658207716171e-01
9.375387913759411496e-02,8.805958899397751338e+00,9.673574031053372435e-02
9.668695410696917514e-02,8.825768880801106775e+00,9.715740657852516005e-02
1.024209683153010503e-01,8.813252788673951343e+00,1.006512903382432988e-01
9.735717581338090842e-02,8.810674090596137376e+00,9.586331837267694778e-02
9.330567477058518411e-02,8.822867583344798703e+00,9.492079283942167489e-02
9.851198842068399630e-02,8.811711527419483048e+00,9.627485433645611990e-02
1.030266743058328577e-01,8.808837805838257040e+00,9.237222641440204218e-02
1.052348966464214525e-01,8.815285695633301444e+00,9.742177203501728444e-02
1.023293699874021218e-01,8.809953698861042071e+00,9.845635420789705661e-02
9.330089425370656497e-02,8.822398276779734871e+00,9.569702612153915822e-02
9.605842414582690947e-02,8.807013652980810292e+00,8.836448981589103968e-02
9.396827423794926193e-02,8.808576960633287101e+00,1.006866858386629288e-01
9.332110710739624504e-02,8.813200162716295694e+00,9.515850102189038484e-02
9.641664356746908193e-02,8.816351249720575822e+00,9.370444947520542578e-02
1.066776349629401377e-01,8.815503768840905252e+00,9.813354915709934789e-02
8.553138933914754272e-02,8.807714298517696605e+00,9.461786676071928803e-02
1.034960832890456928e-01,8.807990124257775832e+00,9.116569443466791822e-02
1.002929262285340295e-01,8.819611116923724126e+00,1.014184093531069336e-01
9.490299691908289648e-02,8.819657841684193755e+00,1.068468116616371755e-01
9.102394336693787891e-02,8.813922212460802541e+00,9.728217256470554630e-02
1.008752394228577820e-01,8.817692875167601585e+00,9.178258610862721767e-02
9.733205754178149427e-02,8.818853860150285939e+00,9.546497994510159957e-02
9.954315834766683246e-02,8.808946714795130362e+00,1.086778783868346393e-01
1.052099430182995565e-01,8.815085748656088072e+00,1.039435120492146758e-01
9.997082530661628719e-02,8.817101500428400129e+00,1.013756309269602529e-01
9.673657591835421732e-02,8.811188077868214563e+00,1.004391401014881752e-01
9.171219018664339417e-02,8.813609221773830882e+00,9.726680536623945328e-02
1.052717799289452499e-01,8.811844391739287019e+00,9.840622168792656499e-02
1.002586123736807361e-01,8.818130705216749021e+00,1.054074493323750306e-01
9.109083798401264309e-02,8.812478143653887486e+00,1.019288157523114968e-01
9.921452405659876572e-02,8.816067988259288057e+00,1.003776678975134423e-01
9.956585557841188261e-02,8.810551896399896776e+00,1.013443233120636527e-01
1.006266441007640094e-01,8.810614118614655155e+00,9.833960321419027428e-02
9.690750130377931426e-02,8.815766999029930773e+00,9.371833106957669357e-02
1.010145217688637326e-01,8.811990140058787446e+00,1.028551621733249932e-01
9.683490685638118656e-02,8.814198737079669499e+00,9.509436702954965348e-02
9.940780267688439920e-02,8.817350639307509397e+00,9.520597781752579425e-02
1.055180670490970252e-01,8.803239568491733280e+00,9.690852735784519223e-02
9.894686057872367768e-02,8.808193096066126770e+00,1.059290752014429987e-01
9.465857613002012783e-02,8.811538948574371588e+00,9.490777389659718621e-02
1.042350833822492662e-01,8.809651272540158118e+00,1.051513154099649461e-01
