gyro_x (deg/s),gyro_y (deg/s),gyro_z (deg/s)
4.908806288078024216e-01,5.558252739010783872e-01,4.531400838284905253e-01
4.025092849898621039e-01,5.503578039673031608e-01,4.962792721841267074e-01
4.579896735948446596e-01,5.074084842344914748e-01,3.749269059500737189e-01
5.286438724716638893e-01,4.146641351185752500e-01,4.884938562400517048e-01
4.989853953625451588e-01,4.693322145304140713e-01,4.445992007077717023e-01
5.636980851984070284e-01,5.044871439672240498e-01,4.885088075218285142e-01
5.278056486073127163e-01,4.613263851592805387e-01,4.982989829604774767e-01
4.606444967308932492e-01,5.227677030558300908e-01,4.387840192194604749e-01
4.223597199055278972e-01,5.529523711991670698e-01,5.159076804304739694e-01
5.277350816140002898e-01,5.130988313156609193e-01,4.217987102983685177e-01
5.465989696132693698e-01,5.168485534396739522e-01,4.553197713528934210e-01
5.236470493784625146e-01,4.756273353895772993e-01,5.263694408124441892e-01
5.824365091636359848e-01,5.513942828154069220e-01,4.780284969584316923e-01
3.903038895385775864e-01,4.380764015184309135e-01,4.726707590148311877e-01
4.613907861917159736e-01,4.537547238382520498e-01,3.652303339150204109e-01
5.169469120691740915e-01,5.189965979432477061e-01,5.291845688640809398e-01
5.338526713099784882e-01,4.212981209379356717e-01,5.301445194504940117e-01
4.985991697851707150e-01,4.991777696645585127e-01,4.936789340189714492e-01
5.074318680094265233e-01,5.096997496764233970e-01,5.115302142305807598e-01
4.934306544450419718e-01,4.462401777241268852e-01,4.919730377328174753e-01
4.330427076497571082e-01,4.367055750415025916e-01,4.894221249799853291e-01
5.063329825175129084e-01,5.329088537841315532e-01,4.994355336895673902e-01
4.590959865816193197e-01,4.360611276029726646e-01,5.289131246989883239e-01
4.786175321247257419e-01,5.527904584066963833e-01,4.882252958170371637e-01
5.045415437362028577e-01,4.551444592737577399e-01,5.208737406570380646e-01
4.990942226949252047e-01,5.196723500431654763e-01,5.395576598590129391e-01
5.158778692512118180e-01,4.973169364766688583e-01,4.693704899763253002e-01
5.323034273401339167e-01,4.591819546143303676e-01,4.585037572103676240e-01
5.359322443635504696e-01,5.067648652876669546e-01,4.892316593902255595e-01
5.059773308698404248e-01,4.642018860931870217e-01,4.601074963790689476e-01
5.008412235724096773e-01,4.534699109410992302e-01,5.309149375922183056e-01
5.924265619754408574e-01,4.662365968527290017e-01,4.778517631720807790e-01
5.743105298930567537e-01,5.386993091542700007e-01,4.727434645346798581e-01
4.431120282803404087e-01,4.344664150287100290e-01,4.970970929634246915e-01
5.737841367433624828e-01,4.919933501276121945e-01,4.601773878842639331e-01
5.214863305190424736e-01,5.276935965514615301e-01,4.754927966693588415e-01
5.019524241325834524e-01,5.342197828947677918e-01,4.169447653971113943e-01
5.597268664369896563e-01,5.152140579703197165e-01,5.034350746240923158e-01
5.163485193855420485e-01,5.348609342454363480e-01,5.501027294133410406e-01
5.140136278891647148e-01,4.917355249800798300e-01,4.393408656365476173e-01
5.133132509344654482e-01,5.862134766075887127e-01,4.325825714081936724e-01
5.264680133067203283e-01,5.621099550666786016e-01,5.171753353303651934e-01
4.556809873552712942e-01,5.273574696818157381e-01,5.384645491777068083e-01
5.439269150446411905e-01,4.796725507083046680e-01,5.294853728404336213e-01
5.148685586907002509e-01,4.457413056073336044e-01,5.590491328175863917e-01
5.240492775931849811e-01,5.348367245945508941e-01,5.146721290184669284e-01
4.707757689454368788e-01,4.727513946120963650e-01,4.255912373013620020e-01
4.571198292338939928e-01,4.492850492896790504e-01,4.441508233462455046e-01
4.974091390014871439e-01,5.563983953137581207e-01,5.355168210671473750e-01
4.569530526210483501e-01,5.511692027452527176e-01,4.820152284430115897e-01
5.070803767302781706e-01,3.997029629516803961e-01,5.166803519030789271e-01
4.898827064473540438e-01,5.424046424998245630e-01,4.337715742015513243e-01
4.827955334122118192e-01,4.922891894597395401e-01,4.807371005073504677e-01
4.153891246550947547e-01,4.576226979773541648e-01,4.709940704402103551e-01
4.914459524342483232e-01,4.727427760214461538e-01,5.638775688354163984e-01
4.595230741894422710e-01,4.536149327458153246e-01,4.885613869954218424e-01
4.396889762816529879e-01,4.860234555851325466e-01,4.166772079369935322e-01
4.075393951452627173e-01,4.846775056590479358e-01,5.155290709212646538e-01
5.276480275402123388e-01,5.065262597660332711e-01,5.389094263115462580e-01
4.955103489947718098e-01,4.818331915522320319e-01,5.572452854389552401e-01
5.328455344247371439e-01,5.107728974651952747e-01,5.421484248601228240e-01
5.685231207526388886e-01,4.786974103290331795e-01,5.408567153088524870e-01
5.551051848983875603e-01,5.185011990582341079e-01,5.545487553912767931e-01
5.704486144273936965e-01,5.063548805601435499e-01,4.489767960435078198e-01
5.105498085522359730e-01,5.103951808377533705e-01,4.840507934893065745e-01
4.454995876873035221e-01,5.011500025558066618e-01,4.729270650222339722e-01
4.605413349219895092e-01,5.147971040034140522e-01,5.334921821464784220e-01
5.174803269796596217e-01,5.150780440754965106e-01,4.943169947895704186e-01
5.237100727683394741e-01,4.897478990166712620e-01,4.992659781317981271e-01
5.083400294786348805e-01,5.488609708855107794e-01,4.721388909645431453e-01
5.205929766830358352e-01,4.643071187536143563e-01,5.020438189160028042e-01
5.201477745255888019e-01,4.610082409540538495e-01,4.801385289205701845e-01
5.498789235701891931e-01,5.648039021359335665e-01,4.970850784817704149e-01
4.732328795656359777e-01,5.174696841947943327e-01,4.653035648704122451e-01
4.546627285219249082e-01,4.692017608792173888e-01,4.991642969022014320e-01
4.854861235852804824e-01,5.773175529393258509e-01,5.387824367008010595e-01
5.064392226487939297e-01,5.044620300004990510e-01,4.454417706156887369e-01
5.675409521253083067e-01,4.544827790138994406e-01,4.859901080512944449e-01
4.800292239968291796e-01,5.150324873822269556e-01,4.764994614434168163e-01
4.619833592482603390e-01,5.299446961477911611e-01,5.119352977328975873e-01
4.394722748021015479e-01,5.360567121847470418e-01,4.804410023400580432e-01
4.639375884674369899e-01,4.705876190053156494e-01,4.190054704946525321e-01
4.265479709291762900e-01,5.389600303386190561e-01,4.835857289553092131e-01
4.652085615376574945e-01,4.539382013361866752e-01,4.701165214706807260e-01
5.342904487745613329e-01,5.254021359535477886e-01,5.459167276065296504e-01
5.041120980839588483e-01,4.654728064012046418e-01,4.708519789486986240e-01
5.172675710519611947e-01,4.852594580081778797e-01,5.228330155446750949e-01
4.568866445046578240e-01,4.762367647330017495e-01,5.073253393966961067e-01
4.481866819128968449e-01,4.552808238485541170e-01,4.925836158215972094e-01
4.966500329713876005e-01,4.676725139839153500e-01,5.182249886495641222e-01
4.748492950662471235e-01,5.370022089411756738e-01,4.448682631834594559e-01
5.043973814010448420e-01,5.475609950766257006e-01,4.266490538184557479e-01
5.204518194470711956e-01,5.590332840842838769e-01,4.940237916868677748e-01
5.728464863286492070e-01,4.332891298996414120e-01,4.683446404807143360e-01
5.572070921276204292e-01,4.501171668678561333e-01,5.400442056925950363e-01
4.865470171279901446e-01,5.287922855747585471e-01,4.688665157553433827e-01
4.571369769222244361e-01,4.311185881430063538e-01,4.872154750531848544e-01
4.996463886262236254e-01,4.546006882409815431e-01,4.564210875223657649e-01
4.745474071960028017e-01,5.542778579962606145e-01,5.048962531452023672e-01
5.216435642951393614e-01,4.450843104590646027e-01,4.922038066792934208e-01
5.012810174669296570e-01,4.496589060515985836e-01,4.980901237310585428e-01
4.559786683077371450e-01,4.823255320454162831e-01,5.183589727487730725e-01
5.215274897509279972e-01,5.350999252895637381e-01,5.154710669943342038e-01
5.003049478092954638e-01,5.042199001586618046e-01,5.568552304042893031e-01
4.394231906685518441e-01,4.476329606544707240e-01,4.642813705653239809e-01
4.681372592255060860e-01,4.575027837097903061e-01,5.681675472176443975e-01
5.125642188636069241e-01,5.645256015088656598e-01,4.570846193547987157e-01
5.151423220046559281e-01,4.551526283225578173e-01,5.083103635945394050e-01
5.196925674052855770e-01,5.037873372383128157e-01,5.061928440069252133e-01
3.575699085206561767e-01,4.809463034041887575e-01,4.860952079506678514e-01
4.376528762336548417e-01,4.689020380371458074e-01,4.713887836154271316e-01
5.346596712102590354e-01,5.789063110273342527e-01,4.863130578515698632e-01
4.282477569108766313e-01,4.198821773713410921e-01,5.424068625102956842e-01
4.895350999081651833e-01,5.002912211609326087e-01,5.274882097342998843e-01
5.467519380477262603e-01,4.739199985058950015e-01,5.162719759207013981e-01
5.011501689094015610e-01,5.250710442745573081e-01,4.749804550745827525e-01
5.263068328440823063e-01,4.181737331163442040e-01,5.037452742094895575e-01
5.409545546799575666e-01,5.246464895903678594e-01,4.969414441393047444e-01
5.087220956851011833e-01,5.275950247873408827e-01,4.941201234783390572e-01
5.208666121733829257e-01,4.982048367965197233e-01,4.414118097589431189e-01
4.679063249928214208e-01,5.342259594743814510e-01,4.589817548065139863e-01
5.022010294355623294e-01,5.675949518029076435e-01,4.849216668315825540e-01
5.242100934223278275e-01,4.763283514331353996e-01,5.787921335170569392e-01
4.999851143532648146e-01,4.674447895814656251e-01,5.505523835145457179e-01
5.211534837247702168e-01,4.469001819988025481e-01,5.303531352283185063e-01
5.461793123267317807e-01,4.978342454307377873e-01,5.133157546545472627e-01
4.771895962206217368e-01,4.785031680755277850e-01,4.744694643883791696e-01
5.269299363029529282e-01,5.292046216180390505e-01,4.866871081628476592e-01
5.629274973703940477e-01,5.356004898540381864e-01,4.586381358638737527e-01
5.318737788032343872e-01,5.051241012520804041e-01,4.588596074514020295e-01
5.573240110341433073e-01,4.681867400760829079e-01,4.402471217594345898e-01
4.970011337940030693e-01,4.154085561523081505e-01,4.846426963251129760e-01
5.509350902457382793e-01,5.172770800103685396e-01,5.393017798882361324e-01
4.568704562789003831e-01,5.141424702109134159e-01,5.375805215869736697e-01
5.682922269525078063e-01,5.166656738143923233e-01,4.838889335628458466e-01
5.102253832287287905e-01,4.983460478442839903e-01,5.123017296101178841e-01
5.714635784291102194e-01,4.830619533803144905e-01,5.035771149733380136e-01
4.966945615855472007e-01,5.817011713791426786e-01,5.606437003916183714e-01
5.739230654488656214e-01,5.002514848635332134e-01,5.153458322087920429e-01
4.924887231126020559e-01,4.551963585680569579e-01,4.531506823806247253e-01
4.849899289708227146e-01,4.931855964324881603e-01,4.697639606003380375e-01
5.208876080613978887e-01,5.456149547754427509e-01,4.922963555122498169e-01
5.563532904989588745e-01,4.712191864726905099e-01,4.435636108921137688e-01
5.132141981033392364e-01,4.882039975845917090e-01,3.831401811657892398e-01
5.688425105274776961e-01,5.186108343987154701e-01,3.725305265794793264e-01
5.298896753250678104e-01,4.993752597045715280e-01,5.604545607891596726e-01
4.858466456864971583e-01,6.045296489560422204e-01,4.719038531627038902e-01
4.619730642421024935e-01,5.116851847959248412e-01,4.628952870426999433e-01
4.449928260076833064e-01,4.491441411587754895e-01,5.631740238748799143e-01
5.559897953721617547e-01,5.083255475324646167e-01,4.977460728453808048e-01
4.862335095484701664e-01,4.612991193078872509e-01,4.171530187118899224e-01
4.671407653293486173e-01,5.393836471641938468e-01,4.972776975576608804e-01
4.659484154525985744e-01,4.107724984920710365e-01,4.685380277995668252e-01
5.766610180626743354e-01,5.366984694527922040e-01,4.391319224076887795e-01
4.548277656960389992e-01,4.990563152465185559e-01,4.767975118071328122e-01
5.721805071408256893e-01,4.712835541915075810e-01,4.592925645771310239e-01
4.904977604385408751e-01,5.627554114906005989e-01,4.871424698919958329e-01
5.289006408967454886e-01,5.490430453891922413e-01,5.127133185262906512e-01
5.088445874908333888e-01,5.049777964738080271e-01,5.132421543101386430e-01
4.857327717222977848e-01,5.013154196583832212e-01,5.047817045584769291e-01
5.743729743045270508e-01,5.649528308660107800e-01,4.349492531001313278e-01
5.294392462463131110e-01,4.475912759276546304e-01,4.841776450749086247e-01
4.787449088317606849e-01,4.793444070281609459e-01,5.099089197414403696e-01
4.290237876906150549e-01,4.782757005809913919e-01,5.095984181488265596e-01
5.027926906587786293e-01,5.113744476596163713e-01,4.389135097619601966e-01
5.066736016380635199e-01,5.244768392885850172e-01,5.066013374939573044e-01
5.252744209091998462e-01,5.556634611030863979e-01,4.626940406239016812e-01
5.234881521781685754e-01,5.422324896446761855e-01,4.701832615098421320e-01
4.407449266141146849e-01,4.459462315501681595e-01,4.759947995917465646e-01
5.249132113015327894e-01,4.880137458552875063e-01,5.218658512441344266e-01
5.215799254869500912e-01,5.171564267886306077e-01,4.331520960358398731e-01
5.585684110472731723e-01,4.672617811821064282e-01,3.980101814124885617e-01
5.275131661054107690e-01,4.903877225813549345e-01,5.245653199217941154e-01
4.754264987966050904e-01,5.015081293990281130e-01,5.362550099703615736e-01
4.971760067371110980e-01,5.163806830066007825e-01,5.611725772749326380e-01
4.466414576081007004e-01,4.854003460309043727e-01,4.877126838987148605e-01
4.662350436384504193e-01,5.085026128626612962e-01,4.988091429800057819e-01
4.610081783375673536e-01,4.513617645629810493e-01,5.953772707851225920e-01
5.443377442367425267e-01,5.297929792167302976e-01,5.165356030250273234e-01
5.147203706397350809e-01,5.033850685420935278e-01,5.130686237265664751e-01
5.002399824324261779e-01,5.808913485422220191e-01,4.520499448229139960e-01
5.450958267712677774e-01,5.404595980997337623e-01,4.752090432718107382e-01
4.386994911001529385e-01,4.237249201654248454e-01,5.662595681963399352e-01
5.231764886124237179e-01,4.808945784869792517e-01,5.668135314518856216e-01
5.300789376961343446e-01,4.374156094251074323e-01,5.145490607565856855e-01
5.683634079445585296e-01,4.884651912081703351e-01,4.961061532055572876e-01
5.625068785581672781e-01,5.306962827283256967e-01,5.244433176531566598e-01
5.661116900882985359e-01,5.229013633328557509e-01,4.614255529241590437e-01
4.741583030248952002e-01,4.802550157976188117e-01,4.624733105161412117e-01
5.006147184885871848e-01,4.007178953904102503e-01,5.084658113144432390e-01
4.904247532300549106e-01,5.110662816687533416e-01,4.411376774506584608e-01
5.604437969100580785e-01,4.973407288117743796e-01,5.392831840783965935e-01
5.151528698277300089e-01,4.958484453982332507e-01,5.116846901767858613e-01
5.228953683443547940e-01,5.514139542719271869e-01,5.074573148595424854e-01
5.612378084264985079e-01,4.444867901690892631e-01,4.871018231136713950e-01
5.537372527002425437e-01,4.889799234737199907e-01,4.817287330065798123e-01
4.928525702162873112e-01,4.811554461519160775e-01,5.248148622393072893e-01
4.142966753718106410e-01,4.692529169845740533e-01,4.533554472977817662e-01
5.201026666140281529e-01,4.787865222131346687e-01,5.150393309137107911e-01
4.370933554233844553e-01,4.523453225573262904e-01,5.017392786489746070e-01
5.169491998080101292e-01,4.917977752822748072e-01,4.415477386231372869e-01
4.307530950708449713e-01,5.116367359917132207e-01,5.088081320159048015e-01
5.140857790717563436e-01,5.108321087690759210e-01,5.087975919103576716e-01
5.276712157945453452e-01,5.606294971633333235e-01,5.709881164225917294e-01
4.627769159566565427e-01,4.684076137882295932e-01,5.283299632635384269e-01
4.819871685762830982e-01,4.854700923898815912e-01,4.444899117438431690e-01
4.705572666323775688e-01,4.618129051720823441e-01,4.897181464548340246e-01
5.642860614810338848e-01,4.574028600201963113e-01,4.860834682163018283e-01
5.560167671419504742e-01,5.061321996349160690e-01,4.736025266213469420e-01
5.553009671806564684e-01,5.238556861727685643e-01,4.664389808311096286e-01
4.914397959133272042e-01,5.096913102202156320e-01,4.845242282406254097e-01
4.585206984012251685e-01,4.744894002116132881e-01,4.665640656579209677e-01
4.637008209728636920e-01,4.682662673502497319e-01,4.874111021135351107e-01
4.785379774028495348e-01,4.861970276985755901e-01,4.780229733259505620e-01
4.759291741355337058e-01,4.550678264023608754e-01,4.303376401578089538e-01
5.133972504339814336e-01,4.701519339530653152e-01,4.317813818273088522e-01
4.770062462765909395e-01,5.235125103034157235e-01,4.882987752705247875e-01
4.883398462634206405e-01,4.272624459438127964e-01,4.767251421996891447e-01
4.961244689005015474e-01,4.758933164592027976e-01,5.342135403970409424e-01
5.412880426582677984e-01,4.793097630644658214e-01,4.267055413682792619e-01
5.169751230374254325e-01,4.838825343915416632e-01,6.066672512102105896e-01
4.665970139383529558e-01,5.034463024001424314e-01,4.862421119830369065e-01
4.649659746975486896e-01,4.852374421524588421e-01,5.098196957441126775e-01
4.504653031481495873e-01,5.473095745434510828e-01,4.731357275592470435e-01
4.327319608236756543e-01,4.444984168863244101e-01,5.031381659489984060e-01
5.101405981942950252e-01,4.701294021226724018e-01,5.291528765818526159e-01
5.268975719597683849e-01,5.195502832891291112e-01,4.836622878984558338e-01
4.893123908911126141e-01,4.753060486212388192e-01,4.708014091146497937e-01
5.682521267438827017e-01,4.556973904382340956e-01,5.083511386758055028e-01
5.246085897769311446e-01,5.282829018902721607e-01,5.741054664470047753e-01
5.682948385713193495e-01,4.623516741456423218e-01,4.979602710867714332e-01
4.784188541627719671e-01,4.848524941464791294e-01,5.311499277767540717e-01
5.733009844291130364e-01,5.654814558904484034e-01,4.460341262775114890e-01
5.163564433390238628e-01,5.462219508178799421e-01,5.109246080696902004e-01
4.548431156768331651e-01,5.685743953035208298e-01,5.102312185902251329e-01
5.509843633036816124e-01,4.797456247238924831e-01,5.927980625573248119e-01
4.994421383835284667e-01,5.080907433568934151e-01,5.436880724290689137e-01
4.940215967749100323e-01,4.021117350865485163e-01,5.260662525415606972e-01
5.014121115231719994e-01,4.774909072797097753e-01,5.668501367412109859e-01
4.108496863588114723e-01,5.348627560014285187e-01,4.982701980652306517e-01
5.128716164474108608e-01,5.095358771335765091e-01,5.347812478293617611e-01
4.882052913380488524e-01,4.735498491217310368e-01,5.063476639135895407e-01
4.972916931203192892e-01,5.020443439947516184e-01,5.238426784647134404e-01
5.257188691681804471e-01,4.365009229502860855e-01,4.611942563288611852e-01
5.449437556044741671e-01,4.825154792469448783e-01,5.023312162366084799e-01
4.797544560867892938e-01,4.984659783275672273e-01,4.743364235982149291e-01
4.443533911590683561e-01,4.998013927238528220e-01,5.285541551792273252e-01
5.167501547452616473e-01,5.192467473680592027e-01,4.699544823386550552e-01
5.162686999307704028e-01,5.268841005574955716e-01,5.261549476871353326e-01
4.616648120477678807e-01,5.718918439255827879e-01,4.166624876368725250e-01
4.030867284892407088e-01,5.279178729239050183e-01,4.762567124776502236e-01
5.252857100050380978e-01,5.329546455680236328e-01,4.981158965600550603e-01
5.574080408151458332e-01,4.763617184845676533e-01,5.484751019251422610e-01
4.445336400503963059e-01,5.067075918997503425e-01,4.831171084690458195e-01
5.787381122936258171e-01,4.453281778192860196e-01,4.682867650766610601e-01
4.916057299466980446e-01,4.515322608703054574e-01,5.710298467722089155e-01
4.611635559016008523e-01,4.477742040193251061e-01,4.543236095963763543e-01
5.282467362407963218e-01,5.167911162181305640e-01,5.508695851785544439e-01
4.335696553911621010e-01,4.580752129647885917e-01,5.768231755141164374e-01
5.152824609918184029e-01,4.682553165787992078e-01,4.692064249362698503e-01
4.553678978777085384e-01,5.595102680403046813e-01,4.846332494738302410e-01
4.203039693417122691e-01,6.417788048740520335e-01,4.843203359419065990e-01
4.931539886242152226e-01,5.389990354946173623e-01,5.372594105320132041e-01
4.936704121437017756e-01,5.182315466515519109e-01,5.526652819358656155e-01
5.033726620715293087e-01,5.173255919509895939e-01,4.968773155493618754e-01
4.886835986047749492e-01,5.085237309122345728e-01,4.644060062320787829e-01
5.047421692362007439e-01,4.991786944756290700e-01,4.878212303511188508e-01
4.387514815825255821e-01,4.865869660900365989e-01,5.077498131630969747e-01
4.992774340882325523e-01,4.909727492390972281e-01,4.646318333831748193e-01
4.663662367289836963e-01,5.618372014564860795e-01,4.895356403241705734e-01
4.660474831679838337e-01,5.644869441213414829e-01,4.277373935953647788e-01
4.839843692942723541e-01,4.748308455202616685e-01,5.212185837374576636e-01
6.121636175581545158e-01,4.996167176674752852e-01,5.336037326245500756e-01
5.282799795752782801e-01,5.145802493940963007e-01,5.047189567072661864e-01
4.853978088301554861e-01,4.757386245127614433e-01,4.830253027529560206e-01
4.983838679573981412e-01,4.436522674506190866e-01,4.501214754683469654e-01
5.078612070249246546e-01,4.399370787357810286e-01,5.411228507541853139e-01
5.103835398040975635e-01,5.313998258446820389e-01,4.762110226710428162e-01
4.352716943656919080e-01,5.108679054615775650e-01,4.769953653562958307e-01
4.883364636789294111e-01,4.216329211828421797e-01,5.099602024308935722e-01
5.402291997779651300e-01,4.747789457934705193e-01,4.968290120367177543e-01
5.547163218532211726e-01,4.783614797870287538e-01,4.926232122155762005e-01
4.813038902380372686e-01,4.506801129782125881e-01,4.725071254828441814e-01
4.692381516593204238e-01,4.342254761652403205e-01,4.896424209922043969e-01
5.149738245693362693e-01,4.698000023680033443e-01,4.001793327382917043e-01
4.075443659526938878e-01,4.996324894823838680e-01,4.756579235763872537e-01
4.067349496207572912e-01,6.125818567325825859e-01,4.994308477141569114e-01
5.143112326415939517e-01,5.307208108560648174e-01,5.578003070119846862e-01
5.907884432858981905e-01,5.319126749891475159e-01,4.840723959996616754e-01
4.372445206761410019e-01,4.884948059910056983e-01,4.904203291018768285e-01
5.451183862957673654e-01,4.910586470136590331e-01,5.050871710225121047e-01
5.111285829732239439e-01,4.640259122303367900e-01,4.329602292770911021e-01
5.008028062468877772e-01,5.152140526990177660e-01,5.485161887156104754e-01
4.912400230143945667e-01,5.269868680808413863e-01,5.331593469614128722e-01
5.263573200005032815e-01,4.507990427164605962e-01,4.756205509914882001e-01
5.647616995115866123e-01,4.681922747821415376e-01,3.660232727884937809e-01
5.400043615423651966e-01,5.224498017452539056e-01,4.874836726761072048e-01
5.032349092190473439e-01,5.620308887154272792e-01,4.619542572036495764e-01
4.944716764083941229e-01,5.566026599259126240e-01,5.191516594940438489e-01
5.465336539805228933e-01,5.583292865054881871e-01,4.683118745087667123e-01
4.577581795247749330e-01,5.435792143808381160e-01,4.967585010828464154e-01
4.961453359186689949e-01,5.151796748064750853e-01,5.430758648672343591e-01
5.148447098885670092e-01,5.337823146920110950e-01,4.439949181617196539e-01
5.170754498919083453e-01,5.186468089715065011e-01,4.946226352986321517e-01
5.136436165902363848e-01,5.566548211798547641e-01,5.104252453743808315e-01
4.296217458854832416e-01,5.471417928860514701e-01,4.658609196664056373e-01
5.052298059905294680e-01,5.612287733354940356e-01,5.086409197023624706e-01
5.002353174272432534e-01,5.250946272330127007e-01,5.041589441990439457e-01
4.576182198387880318e-01,4.953470872113334145e-01,4.709985045810476390e-01
4.832890920659775325e-01,4.456094806265457620e-01,4.907938036195041431e-01
4.422156820310665370e-01,5.095272973102229486e-01,5.045302503979446351e-01
5.239510685968984394e-01,5.009620293557511816e-01,5.074494363506836248e-01
4.769168619019596989e-01,5.437033963211129750e-01,5.385302273180512245e-01
4.184297899838602119e-01,5.549485491558167061e-01,4.720991538300445822e-01
5.133474649880207519e-01,5.131943081318420807e-01,4.221732324914467260e-01
5.178134006672875378e-01,5.222470917941065549e-01,4.369194532502800876e-01
5.222174031104896974e-01,5.773760552680534675e-01,5.151079296782782313e-01
5.110341649216054716e-01,4.964501709805456131e-01,5.121864850219768339e-01
4.608880340371308559e-01,4.133657495209530075e-01,5.545140946589802722e-01
5.383984707242626122e-01,5.140413690032410443e-01,4.848380715926466911e-01
4.652600607379396846e-01,4.488004512919568922e-01,5.401878497957468550e-01
5.056451473073090286e-01,5.744377172581489610e-01,5.295736797708351373e-01
5.412959087134434633e-01,5.410423029819561025e-01,4.873879494161694748e-01
4.681374621379852385e-01,4.932522910772915714e-01,5.085444004336674428e-01
5.172835149550152334e-01,4.788953006591896155e-01,5.249792604230947290e-01
5.228389589990433128e-01,5.561798665703262534e-01,4.361987830454583936e-01
5.356674339769972315e-01,5.053807221189129395e-01,4.702484132950160989e-01
5.297260651278680177e-01,5.362960565587364670e-01,4.664500541800104538e-01
5.150260806284284731e-01,4.588767127524016054e-01,4.717905381010255583e-01
4.678319262652854138e-01,5.155234673260042921e-01,5.058911369168228589e-01
4.558244081949222593e-01,5.673870437522807730e-01,5.283209510496754691e-01
4.913313815551754726e-01,5.447714078954055683e-01,6.284044995374868936e-01
4.150813093421114597e-01,4.442611072221930857e-01,4.638539813192299466e-01
4.675093488540783548e-01,5.357781429082165703e-01,4.999686184028394043e-01
4.556295265005522732e-01,4.835554277544000246e-01,5.208644988040714852e-01
4.278944965366819342e-01,5.581606938583769661e-01,4.652055724307301299e-01
5.260066423550863179e-01,5.064005188935505331e-01,4.722409384017764444e-01
4.556111060209836472e-01,3.886861879861857050e-01,4.873720865932706925e-01
4.880586051601683573e-01,5.003272016349085138e-01,5.887555942251266883e-01
4.698053106810052837e-01,4.631302595549314227e-01,4.577867429562145762e-01
5.500523229877433140e-01,4.909584902209612189e-01,5.040783455671622448e-01
4.900690082772726219e-01,4.924137086367389449e-01,5.110640805547262966e-01
4.738355818183563883e-01,5.279706683498945896e-01,5.794901175493876178e-01
4.486360646637408411e-01,4.854688199924464542e-01,5.084589864215407484e-01
5.555815106963553074e-01,5.736168053235061182e-01,4.890575488811368388e-01
5.637654969661660687e-01,4.656346220004703995e-01,5.194454693608571150e-01
5.124219898029997999e-01,4.999543164071501566e-01,4.614130027568825176e-01
5.268116678081493642e-01,4.533602207051066202e-01,5.493006557421201697e-01
5.904586074602700130e-01,5.782113640533141918e-01,5.219728507786021154e-01
5.600464658736773460e-01,5.397310499327699906e-01,4.755579502974969230e-01
4.370744020279426767e-01,5.307773539267287566e-01,5.205126450567160168e-01
4.765408491980099304e-01,4.841297156283532743e-01,3.789840822471767789e-01
4.743056688326350856e-01,5.315927568241421985e-01,4.881146383073447503e-01
5.750367244689571500e-01,4.715981819702286248e-01,4.814853948915313042e-01
5.346191371711457307e-01,4.731679162189132981e-01,5.421274159194838793e-01
5.470448699205406884e-01,5.137119978443379642e-01,5.310701632793634053e-01
5.886907409784829515e-01,4.820428206253776771e-01,5.621083142294811541e-01
5.037758562017595754e-01,5.648975460516876268e-01,5.180351074049565074e-01
4.659339885235648238e-01,4.863381622290972595e-01,4.594818291950251710e-01
4.085070193196917998e-01,5.000433858741035742e-01,4.785235124963838071e-01
4.755900724565641502e-01,4.663448100714078781e-01,5.732975622314989694e-01
5.010973711497258565e-01,5.005365679598444695e-01,4.450373766709493362e-01
4.533130610421257645e-01,5.521738342350895890e-01,4.681558446426909437e-01
5.216715926003371306e-01,5.347845793236943868e-01,4.483531320894762473e-01
4.896378311195448418e-01,4.899771269877715718e-01,5.451568141026398306e-01
4.959682293766392025e-01,4.819724449616725193e-01,4.435293889557071489e-01
6.086566136227834489e-01,4.780651216510363177e-01,4.170206421279024633e-01
5.077812940585032520e-01,4.958033903056850988e-01,5.215590316858533804e-01
4.941164961468297867e-01,4.912884942458872750e-01,4.745844863388763990e-01
5.059691144228537496e-01,5.233944435865606204e-01,4.618643058918106004e-01
5.498906773868069697e-01,5.443760623682007971e-01,4.949160683271116024e-01
5.195961186452773273e-01,4.792130537475224883e-01,5.663897272522814275e-01
5.549081059638026892e-01,5.629647347800313950e-01,5.388439481077835769e-01
4.207772187454093538e-01,5.639121463406016055e-01,5.150214016246804638e-01
4.611009084254888979e-01,3.984826493988178342e-01,5.177875862519912831e-01
4.839912820812862781e-01,5.416931750894065090e-01,4.804946170076611622e-01
4.911068151565807782e-01,4.436496718526881100e-01,4.748931936047227076e-01
4.913447707194050218e-01,5.187349503215952229e-01,5.546629244518228585e-01
4.450858667473814867e-01,5.483749003496724006e-01,5.015301817174763199e-01
4.575033415435197925e-01,5.415689387054533066e-01,4.882620794159882038e-01
4.878962609256244365e-01,4.634797961500212726e-01,5.253185405721032541e-01
5.335832701344165319e-01,4.875179740084238378e-01,4.932906225572857295e-01
4.991339178125645537e-01,5.121141047158117576e-01,4.939042965824970155e-01
4.686051550062638182e-01,5.783227428097149625e-01,4.437007001786371085e-01
5.023642286285722180e-01,5.013365103539889622e-01,4.816593922395965843e-01
5.149567197329742996e-01,4.740768259554169473e-01,4.301614224655373464e-01
5.044732671546319214e-01,5.822617515533976551e-01,5.630961241686088803e-01
5.407625681428254172e-01,5.106917056433741831e-01,4.728403018877257447e-01
5.054523636515008134e-01,5.678595731120048562e-01,4.974807879839993063e-01
4.565049707892288033e-01,5.386687783265846630e-01,5.296480033282859878e-01
5.831155155317946370e-01,4.931935716802953729e-01,5.051153631144582601e-01
5.140126439786092405e-01,5.257276425134382869e-01,4.657381215725607260e-01
4.244480159985205558e-01,4.618831471710314607e-01,5.763166539442248215e-01
4.924525605687259389e-01,5.172653766241053219e-01,5.194483779774150545e-01
5.229527646589209322e-01,4.772089023688200204e-01,4.484519391338840921e-01
5.306566826148004790e-01,4.922286104014261809e-01,5.011108879000154559e-01
5.523798529819204939e-01,5.375078966630651989e-01,4.975217579228336517e-01
4.458562187846001890e-01,4.491798412756717873e-01,4.935888277605753327e-01
4.733716912913610853e-01,5.337907523045638536e-01,4.802091520018245685e-01
4.995079982873504854e-01,4.677045182054060946e-01,5.562297059254490694e-01
5.115875540685060896e-01,5.126960570235084003e-01,5.004113845774422753e-01
5.637221732539680064e-01,5.059577749508349376e-01,5.301152559553503618e-01
5.645730472639373110e-01,4.946103276737728316e-01,5.439667020577851897e-01
5.228876575574981089e-01,4.488205696774416609e-01,5.102691945893360614e-01
4.489563807546523289e-01,5.034266540445926363e-01,4.449272250590634026e-01
4.733993480734270398e-01,4.789835976806977591e-01,5.522905758588004810e-01
5.220261643362220649e-01,5.365229794419446030e-01,5.491054921353940577e-01
5.364888400653007317e-01,4.425224190643603506e-01,4.853793127176913025e-01
4.475041511381137038e-01,5.352030107978399398e-01,4.044108062048953345e-01
5.409501999417286600e-01,4.854609106123006224e-01,5.404847306771974891e-01
4.994411435559704682e-01,5.056799547155393926e-01,5.271786215679570287e-01
5.140527500856274523e-01,5.166325952772916619e-01,4.126306185032474483e-01
4.093672560646294811e-01,5.248453720547426871e-01,4.867097544045154711e-01
4.666810555066673860e-01,4.747068935070818396e-01,5.473171544740872418e-01
5.159556189689190608e-01,4.756403113355283097e-01,5.080960926992719173e-01
5.067138573839305993e-01,5.609773457582322154e-01,5.564709411250027271e-01
4.601803062646733777e-01,4.823161867600687658e-01,4.779941455671576911e-01
5.143148134202023547e-01,4.599869807280839162e-01,4.807685300672585593e-01
4.297390175161647230e-01,4.710827435429328358e-01,4.486604049664122407e-01
4.878143286214884911e-01,4.890942293204049163e-01,5.748482180680567488e-01
5.374309336765356049e-01,4.439576286152612239e-01,4.998651800773568632e-01
5.531019195740536354e-01,4.751340079974041286e-01,5.092255772567060301e-01
5.007024452457113917e-01,5.221582197840297646e-01,5.532392124012683876e-01
4.937231013087903242e-01,5.760256674054010650e-01,5.106097774391140653e-01
5.998847930839571463e-01,5.511829355556940868e-01,5.050243525904839492e-01
4.988417627308189273e-01,5.245141896386996683e-01,5.504131186256451258e-01
4.964597681121828421e-01,5.129644919758650223e-01,4.725859230536013089e-01
4.981126184845244831e-01,4.466878448870634788e-01,4.698265158452906154e-01
4.583690856190098528e-01,4.838491559088832217e-01,4.823370333892928463e-01
4.618601306688184249e-01,5.096233708778336036e-01,4.687540733394528480e-01
4.778382685982413558e-01,5.120590501419328699e-01,4.715523833173645984e-01
5.299506375237655886e-01,4.845429989707213392e-01,5.956654984513478635e-01
4.857379597826518292e-01,5.408288918365574682e-01,4.332948437718064927e-01
4.660789949353015826e-01,4.495239554142004823e-01,4.795130604560435272e-01
5.506574520222760061e-01,4.907584091278932026e-01,4.614349104077696828e-01
5.276585540871757685e-01,5.398026235933515160e-01,4.450052711620107737e-01
4.929384157347806439e-01,4.732699726515082195e-01,4.677717458747561730e-01
4.787005031809408173e-01,5.184243025316751519e-01,4.604808965123313169e-01
5.030297823992468942e-01,4.894452411212687482e-01,5.060870531319290322e-01
4.711947752635481934e-01,5.546896116393116305e-01,4.343210074494979755e-01
4.776336506966331608e-01,4.498544279249508393e-01,4.552944778337998377e-01
5.269211558603584811e-01,5.327732041821692244e-01,4.942838502891840902e-01
5.235734530290421240e-01,5.549401302080175791e-01,4.875959658597945334e-01
4.761740760743600753e-01,5.315626601858733924e-01,4.528708926750973363e-01
4.960548623257043932e-01,5.369574495619423571e-01,5.098929804580029090e-01
4.731312050444221873e-01,5.605033284515679171e-01,4.815473991335696424e-01
4.877225552505751183e-01,4.761223050616153474e-01,5.119336596004161466e-01
5.029977151759611464e-01,4.491718077444089574e-01,5.103715510917163911e-01
5.303292139401477590e-01,5.056154364018100589e-01,5.007723885412505016e-01
5.202291452639482561e-01,5.642809543910791703e-01,4.793996316620491305e-01
5.098023535544039531e-01,5.358084457302484394e-01,5.341724103881136942e-01
5.796311511298665176e-01,5.237606938847224614e-01,5.166261588822889106e-01
4.781115674887363443e-01,4.136498657802064605e-01,4.488632305345705564e-01
3.980561482947390095e-01,4.713350390196440198e-01,5.273759991569934025e-01
4.755975536464427944e-01,5.588024701751930223e-01,5.469094610870665063e-01
4.900089861021451054e-01,4.497930202885049300e-01,4.834172467620783120e-01
4.509144727652510398e-01,4.229080815294231077e-01,4.985978371231394868e-01
4.549066943244132188e-01,5.141854694779079971e-01,6.119345371766745645e-01
5.172209598406847242e-01,5.014983383254055793e-01,4.555393357670015075e-01
5.231888824848949238e-01,5.894464756427595375e-01,4.279274832354621472e-01
4.925449414883213972e-01,4.816554641796738090e-01,5.238621595655009733e-01
4.856920080910055448e-01,4.870275265522534536e-01,5.108514670570170058e-01
4.349768116559261655e-01,6.280478052778594167e-01,5.044216298227139905e-01
4.832186535954081097e-01,5.960831926245767631e-01,4.819520740434588557e-01
4.760986657587282234e-01,5.811087002741525120e-01,4.260694344936311051e-01
4.800816129713077474e-01,4.597593235982305182e-01,4.619544648777019202e-01
5.211533339551792654e-01,5.373997206074184740e-01,4.388811235752029805e-01
4.729664475701969018e-01,5.205188699499474492e-01,5.435479229182617056e-01
5.611361808638598569e-01,5.536736071960806083e-01,6.234861446831483356e-01
4.709886961588567456e-01,4.699931592048952056e-01,4.878637076533099970e-01
4.903642970178097582e-01,5.137863117005897484e-01,4.700618468593626420e-01
4.621737247435668272e-01,5.222942766227623990e-01,5.667524591794663724e-01
4.652106712425189694e-01,4.801275770858811631e-01,4.918174925244742646e-01
5.159708678732324305e-01,5.502439938051176815e-01,4.997146085583401010e-01
4.441577182435706983e-01,5.124505204770759548e-01,4.962089666456223624e-01
4.817134584053106572e-01,5.078874432222936219e-01,5.312334777921686735e-01
4.955727189908611940e-01,4.466421042902771754e-01,5.002794094953554316e-01
4.742264499090900198e-01,4.882530966707887554e-01,5.210218340923001845e-01
4.365454641647373846e-01,4.294564812227992801e-01,4.971587823224869473e-01
4.664621850189919483e-01,4.961584286118184695e-01,5.480539542703116718e-01
5.449711826576097984e-01,5.542974651264491737e-01,4.846277986308764607e-01
4.887892580732450254e-01,5.643651892329042408e-01,5.101335478007745783e-01
5.092243724367450097e-01,5.389235845848675543e-01,5.086215683081930505e-01
5.150679268352011952e-01,5.273789217730899814e-01,5.587926503507697484e-01
4.919094600177373877e-01,5.327614823729596161e-01,5.452640715691615680e-01
4.695123779021695976e-01,5.416222756608927158e-01,4.994917733124665249e-01
4.680444101074320851e-01,5.025437072464400412e-01,4.799859606607469464e-01
5.270870762631548745e-01,4.432894404948133915e-01,4.614374502788755050e-01
5.201995756706635499e-01,4.996093661425892174e-01,4.908558305784844200e-01
5.662982921872627973e-01,5.111721421585030400e-01,5.000899620880919771e-01
4.956031203049172107e-01,4.220238571347688650e-01,4.915542910667400345e-01
4.853738041944806181e-01,5.226991163328339463e-01,5.368484307184547832e-01
5.500334404315081471e-01,4.240431255519572229e-01,5.202912645880825027e-01
5.447316409347414679e-01,4.537209301839431053e-01,4.392695263783836790e-01
4.922467664062345483e-01,5.252514400296302011e-01,4.703126754883604210e-01
4.566316322547580575e-01,4.900837901541367225e-01,5.452078515084555210e-01
5.079911942013477510e-01,5.124279586919385787e-01,4.193110983146732806e-01
5.006353645825281085e-01,4.767758019301446826e-01,5.727654971981541721e-01
4.757445148193584217e-01,4.567759788418601641e-01,5.121029063293066619e-01
5.094729515383018548e-01,5.621672371885307884e-01,4.884958242603495981e-01
4.984512375581484633e-01,4.801883875411209757e-01,5.151202477564081894e-01
4.700039240961905174e-01,4.468850032491052948e-01,5.090213459825185804e-01
4.653955345507328478e-01,4.734251364106650817e-01,4.298958382315574145e-01
4.892161530907362388e-01,5.332714518176661089e-01,5.280185784278510486e-01
5.159186923894837351e-01,4.894398938976842195e-01,5.293548585895824221e-01
4.760611104783386560e-01,4.802118410746143429e-01,4.906713011546889325e-01
5.540614705376261107e-01,4.376542137842294178e-01,5.233545051849776142e-01
4.854571342609094731e-01,4.466610951346171587e-01,5.095749614158288088e-01
5.575256433772489695e-01,4.638550268869912063e-01,5.136449768195826548e-01
4.905977470146452024e-01,5.340410438633907964e-01,4.979207950676116101e-01
4.305504532180171040e-01,3.942766608605646761e-01,4.787436510268464063e-01
4.967246637749964666e-01,4.724216549983683011e-01,5.230632993674314557e-01
5.303112894892282325e-01,5.163210008382137506e-01,5.210769804545033468e-01
4.160330394003652899e-01,5.393149553807502494e-01,5.020819627340966651e-01
5.297339441442913133e-01,4.674652552371211245e-01,4.667182018969295854e-01
5.102038378365670868e-01,5.110885514669356589e-01,4.717166930411153536e-01
4.828537024313904191e-01,4.731376037469908757e-01,4.396609151960395589e-01
4.078228950699932520e-01,5.223887296307266892e-01,4.310077852469651472e-01
5.048234150541525134e-01,5.528066845588889278e-01,4.055072269044278643e-01
4.868179170151209489e-01,5.074933470985227846e-01,5.034859245478376932e-01
5.529524268526487818e-01,4.517330386441073542e-01,4.844245528008359614e-01
4.788614221311729979e-01,4.978206465381661561e-01,5.842562086331369864e-01
5.053445489334785767e-01,5.390951990376965375e-01,5.080031309151217256e-01
5.112737455230927930e-01,5.339814803597234816e-01,5.280236795649929649e-01
4.993074474902239324e-01,5.289486953043828210e-01,5.011174363523178688e-01
5.332359545255710431e-01,5.483881441491550435e-01,5.519875448948408092e-01
5.391070038925951380e-01,4.991956658601286456e-01,4.933419673323151677e-01
4.972154661088978300e-01,4.956126447489529463e-01,5.104986368446552403e-01
5.066986908053915384e-01,5.952473582395231277e-01,5.100047267696180553e-01
5.069215674523491755e-01,4.694451898983333926e-01,4.778524490718242257e-01
5.329066118278674713e-01,5.028517727720216435e-01,4.984574010926549614e-01
4.477797048091620713e-01,4.972798734362379180e-01,5.040902004842033879e-01
4.628692006112499202e-01,6.182010655306587887e-01,3.712148914183387438e-01
3.987322452160760311e-01,5.357208821061935078e-01,5.297727061185595332e-01
5.273939768129038974e-01,5.668398061858611614e-01,4.336420611396574198e-01
5.549000243567745461e-01,5.188206708343318097e-01,4.765207130692942217e-01
4.661716805461030289e-01,4.600376354245355182e-01,4.226003748837667273e-01
5.165479946168074488e-01,5.526634598759453398e-01,5.449084466093055967e-01
4.255305647036483063e-01,5.074407262541443808e-01,4.646653376675481395e-01
5.343822889921933106e-01,5.075994850943270631e-01,4.508291075862160824e-01
4.627139370028813259e-01,5.790625517400266320e-01,5.653819131761338435e-01
5.390468503882029916e-01,5.533494202472700740e-01,4.488229431764990118e-01
4.953058570552347772e-01,4.978562133040950188e-01,5.303328291413129669e-01
4.683328598194131387e-01,5.425557396425475520e-01,5.049770250873019117e-01
5.897412011422823452e-01,5.033275926942181178e-01,5.513045303053342172e-01
4.626677533240803886e-01,4.867130485167574516e-01,4.594205216096652888e-01
4.955055824947071086e-01,5.332223374183306941e-01,4.489756361571241028e-01
5.546981015639654844e-01,5.618240061991339740e-01,5.320660693400590668e-01
4.123638246047659495e-01,4.813058142603449663e-01,4.827572393585825572e-01
5.727901273539423022e-01,4.978875735978178785e-01,5.071035926112433811e-01
5.437067046773609302e-01,4.864458510733819518e-01,5.269780285019315391e-01
5.161136668479917589e-01,4.225456249148356047e-01,4.604511752587605589e-01
6.045114433209237692e-01,4.792325148490032549e-01,4.189036380659582059e-01
5.286275304486183213e-01,5.199706616167664164e-01,3.986465522241517401e-01
4.826513528635303363e-01,4.744836331980206712e-01,4.549020161769791182e-01
5.278432730873179324e-01,4.485292985232631202e-01,5.309353032529495753e-01
4.792731723786837761e-01,4.986365560660038776e-01,5.911520336039000068e-01
4.596732440068546088e-01,4.540345903080629242e-01,4.694713446593485329e-01
4.288959472020760222e-01,5.240183670219954459e-01,5.281466085322967796e-01
5.265913231657787241e-01,5.974384029771512283e-01,4.403071135175315454e-01
5.270747623031536433e-01,5.357075601552812039e-01,4.094799659918563761e-01
4.551326071380807914e-01,4.895678855079400038e-01,5.915460536166429195e-01
4.841793993264025819e-01,5.237929577929980596e-01,4.293802329439836418e-01
5.565612325422139017e-01,5.289260499400578741e-01,5.231854332429808352e-01
5.344807821487336241e-01,4.626046573535896322e-01,5.106833725395650836e-01
5.543739118890411710e-01,5.114483974393227994e-01,4.348397292362253252e-01
4.392943703610837081e-01,3.740886488405966714e-01,5.357301123890655381e-01
4.548647407344242888e-01,4.906558430099796642e-01,4.320073447049008752e-01
5.012141631937598873e-01,4.890763699403560261e-01,5.071956620161679474e-01
4.712525044525553430e-01,5.438278881790684638e-01,4.719169153538292916e-01
5.207259025424824106e-01,4.954147500408127569e-01,5.406379374527582327e-01
5.239237330549277871e-01,4.703624618618367781e-01,5.455833418714189920e-01
5.223040862654223515e-01,5.250231534508132958e-01,4.525905758244056498e-01
4.525580504664769022e-01,5.877614068780712131e-01,4.622949065056221052e-01
5.187322032361745272e-01,4.373808047423708434e-01,4.830471619053188226e-01
4.153264313504804184e-01,5.032762816618788770e-01,5.105880052059985630e-01
4.667052412598641231e-01,5.501808683482179996e-01,4.505795468412735483e-01
5.043850027054908036e-01,4.915767168499227124e-01,4.903953433618821744e-01
5.233106787478856159e-01,5.281880122339549510e-01,4.859011938186653667e-01
4.771136020694892177e-01,4.258303163916369316e-01,5.197646679684306825e-01
4.424245517314697174e-01,4.833017231420150273e-01,5.090498326186329026e-01
5.157431549870364895e-01,5.579615203332918272e-01,4.906003829174859776e-01
5.115488342337365379e-01,5.508334820142299915e-01,4.922032788622031085e-01
4.960099349535900815e-01,4.948176813504291949e-01,5.416986692890320976e-01
5.632232149610379990e-01,5.709270356738682661e-01,5.001649344425087573e-01
5.292458233550667579e-01,5.854951822887940471e-01,5.528252130876102344e-01
4.860988081526783078e-01,5.204778604437375611e-01,5.458168584924997235e-01
5.150179101350403910e-01,5.236345630685297348e-01,4.784545798567180763e-01
5.115291489354591992e-01,5.116144766708871083e-01,4.533256450520102288e-01
4.784636708344836009e-01,5.069516654333617867e-01,4.955713528811969137e-01
5.028475814641858443e-01,4.701800255209785395e-01,4.770043552805829923e-01
4.640978337773760121e-01,5.164044365678157611e-01,5.448893248796545796e-01
5.033736444703176272e-01,5.267613289594182957e-01,5.059451082320259863e-01
4.557039378652694150e-01,4.826227182346651823e-01,5.392790976009931292e-01
5.573515992390246643e-01,4.923004863692470034e-01,5.223546160656071802e-01
4.675968411608528719e-01,5.331323269703781564e-01,4.262772746022122083e-01
5.390593095861468953e-01,4.435145491082829738e-01,4.655820454197353020e-01
4.877199313256114777e-01,4.362164381412750314e-01,4.133452459464401763e-01
4.516365786040164032e-01,5.550634299897642121e-01,5.374570275726103796e-01
5.654314108767366509e-01,4.652503924628598742e-01,4.777238712314455515e-01
5.132465442987729221e-01,5.350054812048339326e-01,4.925863112269612820e-01
4.961082651424394974e-01,5.287126864439252172e-01,5.025488550335353022e-01
4.605989721430365225e-01,5.924587689736922069e-01,5.334713105650099596e-01
5.305423843706987830e-01,4.092411585476863345e-01,5.602199658121758130e-01
5.280511578951817553e-01,5.135767044543915194e-01,5.495196129578348021e-01
4.292230502151741511e-01,4.638222985401788123e-01,5.051126457998591501e-01
5.786905380674063348e-01,5.027866708973114385e-01,4.817934374432297773e-01
5.030727628526721062e-01,4.917073413057020392e-01,4.847310117322659040e-01
5.236606285213164513e-01,5.272251550247338825e-01,5.496868011821131050e-01
4.396327490011483485e-01,4.931089987897541160e-01,5.042446854761731823e-01
4.867964471591615938e-01,5.653309575939695630e-01,4.796341772472975107e-01
4.926172449757905136e-01,5.941164261615802245e-01,4.337870846631344257e-01
4.874048570350382192e-01,5.393580329702916121e-01,5.031916477209339433e-01
5.022101420930190629e-01,4.913412083841733891e-01,5.194906916953586640e-01
5.536195875772643715e-01,4.945977680096692586e-01,4.488092803656640317e-01
5.314047780370146912e-01,5.415689843344999588e-01,4.801097463452149161e-01
4.881054200338731941e-01,6.012533425670162357e-01,5.183131384633841154e-01
5.463638595840578649e-01,4.905636143572458252e-01,4.978815660496751505e-01
5.408342179231857560e-01,4.791227658170340020e-01,5.115598178151566922e-01
5.841212459086206898e-01,4.757372658370022100e-01,4.691963132515111767e-01
5.150103677976910488e-01,5.510274556841124882e-01,5.987653242745094584e-01
4.971133118075347634e-01,4.978066263287848070e-01,4.730521998825050756e-01
5.344875900681381742e-01,5.177518103907986502e-01,5.206885761986104200e-01
5.351860199015885389e-01,4.960798650746989225e-01,5.091435113944605684e-01
4.751634663349117993e-01,5.168480729676300234e-01,4.179942496561766530e-01
5.479997418046800295e-01,5.015673251389024534e-01,4.756794103681113994e-01
4.940217618717389625e-01,4.019083106504715008e-01,4.862569002962854325e-01
4.412094112504734156e-01,4.725196537992966683e-01,5.132574329479481223e-01
5.051892260544960100e-01,4.900852689075406721e-01,4.783102113597922367e-01
5.531270463645538982e-01,5.003979205131197094e-01,5.259614731290724876e-01
5.005316881369711313e-01,5.226957921627991555e-01,5.222899554721920357e-01
4.955233062437190972e-01,4.281624871875768790e-01,4.834853178190259282e-01
5.037042443914294676e-01,4.913628133895487915e-01,4.535877858869445389e-01
5.326633105937508272e-01,5.058101459384825027e-01,4.739593913961711591e-01
4.524507860728760322e-01,4.815401087684115788e-01,4.582663488017498787e-01
4.476066617388892444e-01,4.781151548110895710e-01,4.878584336814143496e-01
5.726418586898249785e-01,4.553899991702889394e-01,4.356841955334698757e-01
6.068426024085641357e-01,4.474827978095777259e-01,5.072771244327709539e-01
4.280209184731591510e-01,4.935048744928282050e-01,5.004410412003653663e-01
5.183158707076351845e-01,4.799638401783601904e-01,4.891509020948454078e-01
5.069366629770810651e-01,5.415083673118776808e-01,4.149809994619645948e-01
4.678842428092724326e-01,4.784017567316106168e-01,4.510981611993685747e-01
5.365314700299567141e-01,4.993276813191995789e-01,5.651862345487834727e-01
5.499776502113402632e-01,4.958683957997775948e-01,5.437302553349203649e-01
5.533584829763019686e-01,5.323077105969403755e-01,4.593348343094362241e-01
4.987586503050957520e-01,5.086246161746922345e-01,5.673987569145934051e-01
5.001616537978164079e-01,5.096822819918670477e-01,4.710223534871386120e-01
4.554118063524214555e-01,4.905051675290425517e-01,5.445533604217408508e-01
4.601620517550091827e-01,5.528510260321274350e-01,4.889871936369111771e-01
4.958652808775050325e-01,5.843939324321180129e-01,5.513758701935081996e-01
5.079889644968502704e-01,5.287032497406890519e-01,5.803467386927253502e-01
5.594244437891491284e-01,5.388209400546559724e-01,5.399210246318583151e-01
5.331292201421826693e-01,5.271413436167965427e-01,4.865459429726753382e-01
5.286679070966586735e-01,5.591657170088117912e-01,5.204214972931532346e-01
4.952857315855009879e-01,5.171249262455497320e-01,5.400874150303315302e-01
5.599897624530132401e-01,4.938447800793932529e-01,4.824815362257986462e-01
5.229020628799595505e-01,5.652062722693802499e-01,4.634239119808643004e-01
4.535639309817528497e-01,5.463817312355526701e-01,4.892895489668025455e-01
4.897444443767129951e-01,5.184457455832695016e-01,5.108634840923704790e-01
5.518184344432235378e-01,5.062708574251533200e-01,5.018990119666963956e-01
5.607551882821011358e-01,5.234842702136821568e-01,5.257806160361558900e-01
5.269569172523926870e-01,5.016421593072351026e-01,5.506948186039046789e-01
4.521266728531311840e-01,5.287438376582964672e-01,4.789831050867598972e-01
5.226293184618150400e-01,4.407111429778631240e-01,4.555271286435677025e-01
5.031805715031683057e-01,4.190275405619176552e-01,5.198108552663691651e-01
5.625980487663011509e-01,4.995896884468497556e-01,5.081992691806525020e-01
4.871548605617879724e-01,4.536971585517890482e-01,4.887572193444663649e-01
5.401726262476579388e-01,4.870608718379662583e-01,5.500571785127369440e-01
4.720048500146106218e-01,4.666335759233379288e-01,5.382630711224486442e-01
4.960737647112541393e-01,5.069129764936459726e-01,5.839325549568699092e-01
4.918316420512063858e-01,4.280401679026749062e-01,4.474536813860354734e-01
5.104574248178248563e-01,4.983365046916107821e-01,4.852599714130045316e-01
4.655675518811062119e-01,5.052482340867074928e-01,4.634456062719452540e-01
5.041973146436491415e-01,5.596487841206981839e-01,5.096378846330863466e-01
5.227550338027004972e-01,4.863281073949107247e-01,5.693399404655072882e-01
5.527912565583341653e-01,4.565913083587624932e-01,5.520850977275230109e-01
5.014577722031302587e-01,4.272917808843846865e-01,5.091208957585953154e-01
5.413010980668464533e-01,4.836553447465086197e-01,5.167955915170037162e-01
4.792448365328030868e-01,4.857332594285375116e-01,4.924371195506988541e-01
5.637933302759349230e-01,5.230497698886047431e-01,5.074369950256873985e-01
4.971940137815694105e-01,5.014666805502623337e-01,4.954571500974825349e-01
5.031881461742208073e-01,4.718743835465956105e-01,5.194459906365717083e-01
5.252537089949460558e-01,5.140192571167672142e-01,4.839640451573804514e-01
5.059855904837177176e-01,5.408799426496536666e-01,4.926386884550873480e-01
4.626544685682146829e-01,4.449765742263860346e-01,5.125227593237192680e-01
5.042354755074053285e-01,5.214762983847091027e-01,5.382896225187359107e-01
4.137100559516864173e-01,4.962732732995487339e-01,4.842447202398231787e-01
5.622286818118412688e-01,5.119001600452355305e-01,4.545683130987577258e-01
5.591261862418622774e-01,5.022145874397249132e-01,5.530409733076776524e-01
5.490873806361959986e-01,4.933987650109959433e-01,5.569486705983843766e-01
5.414167781353415032e-01,4.820404617977213646e-01,4.972626504037914730e-01
4.587456497730844629e-01,5.112097239846468133e-01,5.105069837661746490e-01
4.903962937622854401e-01,4.746932953509429565e-01,5.368199792382624125e-01
4.956870482658368160e-01,5.372314577742098862e-01,4.868037802337574216e-01
3.718473199752841962e-01,5.180517647552600469e-01,5.760184687829473793e-01
5.801313828052306887e-01,5.522406321305526333e-01,4.930653527747223541e-01
4.892277143814705576e-01,4.945339025358202467e-01,5.342893171459195401e-01
5.657202110909351767e-01,5.649057614855906850e-01,5.342177461017233453e-01
4.997508111299083788e-01,5.082305080484403881e-01,4.951773876048430889e-01
4.874980788144271382e-01,4.795544957064038494e-01,4.926436716874458832e-01
5.000206372997385573e-01,5.248800425061154185e-01,4.520486284341397321e-01
4.318171259017726249e-01,5.212681935005561984e-01,5.117500518211921534e-01
5.142212533218158965e-01,5.266288079417575929e-01,5.237141358832343441e-01
5.247494581537345271e-01,5.017048907305777794e-01,4.704396345152010439e-01
4.761140765497415828e-01,4.599191326397551460e-01,5.345390325152488131e-01
4.213236329343955644e-01,4.595579558190940883e-01,5.160685108471271265e-01
4.215583127647146156e-01,5.573115005322006876e-01,4.848108667950358219e-01
5.609104989539950292e-01,4.946553615746709931e-01,4.999796392226339425e-01
5.153989645328469482e-01,5.666050400119084784e-01,4.916399296934229612e-01
5.080312711982020168e-01,4.676763814201691516e-01,4.705929013917279358e-01
5.692116071749716566e-01,5.354228577447089910e-01,4.266364190990249994e-01
4.653535246014159354e-01,5.020001305611134779e-01,5.286142446531094663e-01
5.287615247349116698e-01,4.760675507863093570e-01,5.185723402883010147e-01
4.745652278626228404e-01,4.861061943527534845e-01,5.105100778728927091e-01
5.232368660324613341e-01,4.740646908541903404e-01,5.230280344979427731e-01
4.484179141127785373e-01,5.777053789685667740e-01,5.304832300424510150e-01
4.561490923371970263e-01,4.941820934635619000e-01,4.972352203827903327e-01
4.641939707338947896e-01,4.437530956288217032e-01,5.212064487330350104e-01
5.130113822942654611e-01,4.652536469754126602e-01,4.458281092253707500e-01
5.313823895045191037e-01,5.114039557185324769e-01,5.052994145783088475e-01
5.492731353718103282e-01,5.415662233050891894e-01,4.906849570920938097e-01
4.366035672276675772e-01,4.317979893411008074e-01,5.192876634466468966e-01
5.507529947641321977e-01,5.455919641619999538e-01,4.515772486682481102e-01
4.689640140698637660e-01,5.054984684350304347e-01,5.162162999691426446e-01
5.282816444995271921e-01,5.190937070647911877e-01,5.162763999557774541e-01
4.617711428233859938e-01,4.708489394633109115e-01,5.602552887644814961e-01
4.899298547581658614e-01,4.507498055478785792e-01,5.199202722269687937e-01
4.798138648206404233e-01,5.373008856460355087e-01,5.409434428955347540e-01
4.363631172236588363e-01,5.519797443688370109e-01,4.915399520014073764e-01
5.090996045053166608e-01,5.460660823097739369e-01,4.835314227630430617e-01
5.187625667084648784e-01,4.609130012648834374e-01,5.280965408670977856e-01
4.750181120717326122e-01,4.993706163560212019e-01,4.933638807897469114e-01
5.460962387899197523e-01,6.018060700024704390e-01,4.879164202182887933e-01
4.961905443088091561e-01,4.814223815162810838e-01,4.137404083339836225e-01
5.759041405264889724e-01,5.071259246337629367e-01,5.232524362342445556e-01
4.545491467406235220e-01,5.129435218517892636e-01,5.344373832139508451e-01
5.363437174147880349e-01,4.904608096958759100e-01,4.547375096781376413e-01
5.612799194701479921e-01,5.348949440236437924e-01,4.612678797669517161e-01
5.686091948511651228e-01,4.906750331502754969e-01,4.733927346425491622e-01
5.218281810667009246e-01,3.718056719888673811e-01,5.480742896138902642e-01
4.774471605865659440e-01,5.665981195643647883e-01,4.411362985730667985e-01
5.000308268111997023e-01,5.332331900718597639e-01,5.745283563034652152e-01
4.757441719340246289e-01,5.595584794204395696e-01,5.164985572550984116e-01
4.290550500900838227e-01,4.854634533517505623e-01,4.815793179990203732e-01
4.823813225109903069e-01,5.052874579911711406e-01,4.386082645399450586e-01
5.136326645364863719e-01,4.697586036717478208e-01,5.316038164622466367e-01
4.449127514284563767e-01,5.209598244202529038e-01,4.762407391105276111e-01
4.627962569700734830e-01,4.187311774278920651e-01,5.882180828750982471e-01
5.264653392342818483e-01,4.781707361007429546e-01,5.542418257387772274e-01
5.138606823316234085e-01,5.163199027545775088e-01,4.364749110935718934e-01
4.718267433872285754e-01,4.867555415391139340e-01,4.787341315643889317e-01
4.979574833258152422e-01,4.858592996968645328e-01,4.822786877928302851e-01
5.077416838413869593e-01,4.266346745592836665e-01,4.633069371136658843e-01
4.483359443145867873e-01,5.185375414295927410e-01,5.225488186263729240e-01
5.289356396684044004e-01,5.235761371266408615e-01,4.852568326828320955e-01
5.231831136986014874e-01,4.451553347004896799e-01,5.576065812054056270e-01
4.780259736124443104e-01,4.827405159703389015e-01,5.417755044716902058e-01
5.013212327076446151e-01,4.981650191436611808e-01,4.800103009375130680e-01
4.439539843987480028e-01,5.009414462064385454e-01,4.194270242128913528e-01
4.598845189181918203e-01,5.032693649818880122e-01,5.193141716266497232e-01
4.388678471953618709e-01,5.132733791519048516e-01,5.313481708001730475e-01
4.863098731958954146e-01,4.889717443213961734e-01,4.486701102834366739e-01
5.517689146062237926e-01,4.986535283917321593e-01,4.563620693069143641e-01
5.097166058434101643e-01,5.369740861305630775e-01,5.732204238602901514e-01
5.434836118748945788e-01,4.778612450833793490e-01,5.598484747973171416e-01
5.900144086723400072e-01,5.067183397143978363e-01,5.302932648030947993e-01
4.704528350110026014e-01,5.472929941629787187e-01,4.697603753307238450e-01
5.351715635709647367e-01,6.009598769538992968e-01,5.283716170666535872e-01
4.951237767351311936e-01,5.417515410994131475e-01,5.041478789025237717e-01
5.700920614329326730e-01,5.137423435365084945e-01,5.058882588825525106e-01
5.258151547015853522e-01,4.256888332646120987e-01,5.139262332359721963e-01
5.905129089516982788e-01,4.827426728287705360e-01,4.803013422376163910e-01
4.566847420971085758e-01,5.318640434330750288e-01,4.545210301896829841e-01
5.388337401264055027e-01,4.828621086593880563e-01,4.871270527920254501e-01
4.694774104788169145e-01,4.863654390595688048e-01,5.213618662096440870e-01
5.658374666492976823e-01,5.448628396742977165e-01,4.823908410244099887e-01
4.739809940455761428e-01,4.992739226875565484e-01,3.930176065642549954e-01
4.990855289112660631e-01,5.470590388321954212e-01,5.713064046246134620e-01
4.348351602850521469e-01,4.768798835183180596e-01,4.880258614416539409e-01
4.403754999569393092e-01,4.836982013621602405e-01,5.061801949311830473e-01
5.080526249192146571e-01,4.496778837102838877e-01,4.648983924169677318e-01
3.859306406794048572e-01,3.910572392231563277e-01,4.924601476284793389e-01
4.649162268073896431e-01,5.145334003015999969e-01,4.461731403770828885e-01
4.920964675010568445e-01,5.407208873301847518e-01,5.702778945421573820e-01
5.322372384861249195e-01,4.703502202591534620e-01,5.561369588616247306e-01
4.447027646671306012e-01,5.163159594988288026e-01,5.229554554470697836e-01
4.200409006660515421e-01,4.694030389356717015e-01,4.958995379344762755e-01
4.603258096632507068e-01,5.106707518105203514e-01,4.519560912409373854e-01
4.931220812911251139e-01,4.221426427970424999e-01,4.206399003031589534e-01
4.723152415233438650e-01,4.921824771249863617e-01,4.194335890009402434e-01
4.480379724353434345e-01,4.845118024485618458e-01,5.421454578173567906e-01
4.746727240263988734e-01,4.822622594696754361e-01,5.045040288360024272e-01
5.093894149767911328e-01,5.137549470347944069e-01,5.661997764064224947e-01
5.239034148657536472e-01,5.513802985079915286e-01,4.880199663819749789e-01
4.821045782749507902e-01,4.716447989870704016e-01,4.815304100516626384e-01
5.385504484698463434e-01,5.208443168177069316e-01,5.304652956825164356e-01
5.314980551584799207e-01,4.526871941826483559e-01,5.213675866356243249e-01
5.012090985414541233e-01,4.928177149799699563e-01,5.210479593827592737e-01
4.558937615240172270e-01,5.235197666813558026e-01,5.571993107241162146e-01
4.832356123020347671e-01,5.155688141455813112e-01,5.028808116917085069e-01
5.393828610166648829e-01,4.993985072261207803e-01,5.167007264801747324e-01
5.191658518846886672e-01,5.063597321404122997e-01,5.085615182304339399e-01
5.937829571751095381e-01,5.282534993851197846e-01,5.179052819736619240e-01
4.928666936191172798e-01,4.910012969072782285e-01,5.343317418391667628e-01
5.708885621845699587e-01,5.167590932615652166e-01,4.701485512800910316e-01
4.546469958770492648e-01,5.043595304457414441e-01,4.696412003137949154e-01
4.922784539180167784e-01,4.676117243058025563e-01,4.842544176017903323e-01
5.285128728575009260e-01,5.147074391671149218e-01,4.490853379693442449e-01
5.155254741940734631e-01,4.444534054970327719e-01,5.177982720560483365e-01
4.431017267259135806e-01,4.790655363905415576e-01,5.792855913117812561e-01
4.806753131486912745e-01,4.974179283966462251e-01,4.990933046649828064e-01
5.336591556138879922e-01,5.386646098821173956e-01,4.306852742212451401e-01
4.064394584801172550e-01,5.576341060910549041e-01,4.738145108219092294e-01
4.694168740422050012e-01,4.691851605498514877e-01,5.288264682677443762e-01
4.843415958566459345e-01,4.946017067149000579e-01,4.641635777925116613e-01
5.064514374968067667e-01,5.490750554196524025e-01,4.275741673450895730e-01
4.321440081048265047e-01,4.637159337997133202e-01,5.586755691040348193e-01
4.625542072745219002e-01,4.532720012341871496e-01,4.654763099034132101e-01
5.328301959149194245e-01,5.502052520122416857e-01,4.958540508729830654e-01
4.628528193837561089e-01,5.543714481305006547e-01,4.292936955094973084e-01
4.624152218224257260e-01,4.543843198754142776e-01,5.433353850270759011e-01
5.153247000136453870e-01,5.702182378002632612e-01,5.584756129873740260e-01
5.501744447843104346e-01,5.424812680164454726e-01,5.287372123964164672e-01
4.598500743960578507e-01,4.990073293367156548e-01,4.704743960483288578e-01
4.639227971979818510e-01,4.286380278638167729e-01,4.620354255668966958e-01
4.822525126623723457e-01,4.540527544990055064e-01,4.423285195233606082e-01
5.349722501646028139e-01,4.776473325147708726e-01,4.795530041570169044e-01
5.169831807813628499e-01,5.412141146144400228e-01,4.598769100617343120e-01
4.801533934955786731e-01,4.683337597734747448e-01,3.968872144290815362e-01
5.689061373229988838e-01,5.112531149538691588e-01,5.308830264083851391e-01
5.303783022681231030e-01,4.269394299154543049e-01,4.525416923777930145e-01
5.182481481747767127e-01,4.336337828139510409e-01,5.081101782111415721e-01
5.404516728644582768e-01,4.829814281639118745e-01,4.656136675881356046e-01
4.860826408274015464e-01,5.293373251728159534e-01,4.654411432695387263e-01
5.343295728596458849e-01,5.556541842553218702e-01,4.867788273778233532e-01
5.273951864028548764e-01,4.836221787372979031e-01,4.641148194016833650e-01
4.563089162589123449e-01,4.287219638887806994e-01,4.140597388793531564e-01
5.052372735268324533e-01,5.034009880612116961e-01,5.213966304315889033e-01
5.544584521448246983e-01,3.934573357092838730e-01,4.809800013387115492e-01
5.654566830521354781e-01,4.461542940777916133e-01,4.761716716565187468e-01
5.453178155837099528e-01,4.396615212026998010e-01,4.947690786530615226e-01
5.994756414924587995e-01,4.717977175407157553e-01,5.032283581142528162e-01
5.591695556034730341e-01,5.364234718574294458e-01,5.965241686486089101e-01
4.326283251479390302e-01,4.644430165644579667e-01,4.968864331928826150e-01
5.589469409837563019e-01,4.826583088300130941e-01,5.092946955558235178e-01
4.948046309525773179e-01,5.133376893888066395e-01,5.381152201524309620e-01
5.606818412778629135e-01,4.580535390023676712e-01,5.024301766115902845e-01
4.859265306099527781e-01,5.421688046282727713e-01,5.779612213758340555e-01
5.004344699780890471e-01,5.141542954012990885e-01,5.223671674346965776e-01
5.472330099433246886e-01,4.671022972823408170e-01,5.018323133965255645e-01
5.355927644105635821e-01,4.966492589360130272e-01,4.939079685307852796e-01
4.610898623154529030e-01,4.687027095504673890e-01,5.051477535283256382e-01
4.539544810672266895e-01,4.765738069240950114e-01,4.816142689238420149e-01
4.652977425368913789e-01,4.933332746515422529e-01,5.406852467504836834e-01
4.267907885297393955e-01,5.212558017876973704e-01,5.281532232058380183e-01
4.956839743948716626e-01,5.014272034071922679e-01,4.700317813832073366e-01
5.074149142127279966e-01,4.201824317113314056e-01,5.147347918515400300e-01
4.613317168902360543e-01,6.011058108534372835e-01,4.815976946030251504e-01
5.422405403837216031e-01,4.941405070490384466e-01,5.128586029938324575e-01
5.212096792708541537e-01,4.744575242707735341e-01,5.738121079505748012e-01
4.995761970410809161e-01,5.265303105986564036e-01,4.941093432031015698e-01
5.251854043483215051e-01,5.051608619239102982e-01,4.113513187820481698e-01
5.269397404843777499e-01,5.532835075688931070e-01,5.695104940874619048e-01
4.884431399910313387e-01,4.960373394119633184e-01,5.729352695223287606e-01
5.379997585493564438e-01,4.780471413181980322e-01,4.725694597137175545e-01
4.925058666803049934e-01,4.577827208416028193e-01,4.643761237355003568e-01
4.839448529585019809e-01,5.419290371145373264e-01,5.361858467825660890e-01
4.834869892783790757e-01,5.150448619979141052e-01,5.026357355741003508e-01
4.025277968655432415e-01,4.724723993182428083e-01,5.908474312764644409e-01
4.655895385569503442e-01,4.400531813331137188e-01,4.791909659562653689e-01
5.673155902004675122e-01,4.268451708387575594e-01,4.476550503755197807e-01
5.138646422423963633e-01,5.133743251657546525e-01,4.882346243495698790e-01
5.007092484188715442e-01,5.350447432424547678e-01,5.128499178784534651e-01
5.097862859844225492e-01,4.235435840981714439e-01,5.182951067018748414e-01
4.485790742457062552e-01,4.449049001687781502e-01,5.229455857485576509e-01
5.533378387884041461e-01,5.194225700687012948e-01,4.748973949188687871e-01
5.059521541410630929e-01,5.446337340290723361e-01,5.100797226315908484e-01
5.083565019388430750e-01,4.986656383276333870e-01,5.131890867265105349e-01
5.140695874817486910e-01,4.620707767052210646e-01,4.712336782425151638e-01
5.772056432361616363e-01,4.237831155904037694e-01,5.307548766082026415e-01
4.685429270463290496e-01,4.922095734226847874e-01,4.732769304496352580e-01
5.124892924083946921e-01,5.735437535778454832e-01,4.432955659159069639e-01
4.989599684268985480e-01,4.919383995873658488e-01,4.884039330716550831e-01
4.950001445153365820e-01,4.304412041850032011e-01,4.795597438868998141e-01
5.797166779207347798e-01,5.567908111190064124e-01,4.790925435612941041e-01
4.524537667252185313e-01,4.895888969686844616e-01,5.106342720719624362e-01
4.951169508532530239e-01,5.715758349029993468e-01,4.911493161626626636e-01
5.533355534974208068e-01,5.499623639492726701e-01,4.872411410118250297e-01
4.654980244055577088e-01,4.122460293567592471e-01,5.277897201658792170e-01
5.065739340460500006e-01,4.680987331669429485e-01,5.135669258404450543e-01
5.247346692502610210e-01,5.430152605609975813e-01,5.666562703916330213e-01
4.689255762329123112e-01,5.070435485039744838e-01,4.599937563764716075e-01
5.360628367048124732e-01,5.672499721245993776e-01,4.697621315178978629e-01
4.803581154893274974e-01,4.907621133638221389e-01,5.958113984963518961e-01
5.714459493469917772e-01,4.718074073268054835e-01,4.477357151369384947e-01
6.699039372174862006e-01,4.697832549977935535e-01,4.805180331494571799e-01
4.608784782124507595e-01,4.869274734739187926e-01,5.143174463580787448e-01
5.122988822052858549e-01,4.762624934498893570e-01,6.089798186053417828e-01
4.597498587809342174e-01,5.602919481534410773e-01,5.232466042397665440e-01
4.858767140958948350e-01,4.969414179663497744e-01,5.795494167348795855e-01
5.272176312961240896e-01,5.552827256351260399e-01,4.685847511129987986e-01
4.823992654800742241e-01,5.495770016469995189e-01,5.146846843675044747e-01
5.731094716886980800e-01,4.999814051647298863e-01,5.728183629792376053e-01
5.013907271610386074e-01,4.498536009619351073e-01,4.781735016843349229e-01
4.362442689924901917e-01,5.417436358443522559e-01,5.089016209643644206e-01
5.056582832992390086e-01,5.197369486822399631e-01,4.977270753162081340e-01
5.115824091721291600e-01,4.724657118418744695e-01,5.088364889921590528e-01
5.214380117988562935e-01,5.097733392183938506e-01,4.445089576407867393e-01
5.150481769482107008e-01,5.741535129442842944e-01,6.097858595669091164e-01
5.140311356429377865e-01,4.906190851885470217e-01,5.175267329040053044e-01
5.009131914964696231e-01,3.863588399334778600e-01,5.254356586437018972e-01
5.860438906487916988e-01,5.573946578831148191e-01,4.407603406721064543e-01
5.876410965383506158e-01,5.052402201169681195e-01,5.360442303678797371e-01
4.899980746933057518e-01,4.809746297116630487e-01,4.648158184298227247e-01
5.179861089514393724e-01,4.504859997031526175e-01,5.157929321021774705e-01
4.551305987495071759e-01,4.564177076670273836e-01,5.328071552638736774e-01
5.154445313117062000e-01,4.735600600345400979e-01,3.975753446419855175e-01
4.458499536441785094e-01,5.055191319269884964e-01,5.177107714691874252e-01
5.395254367411738139e-01,4.992441008256407464e-01,4.953133824342329516e-01
5.024963488267488732e-01,4.663938994732552690e-01,4.927460025105525609e-01
4.734487726199482771e-01,5.305852433531373924e-01,4.819646339414727088e-01
5.571555086860964234e-01,4.877514543966944283e-01,4.912179655405099488e-01
4.981869690632274583e-01,5.001545400949846121e-01,4.996050783838386633e-01
5.951798249041129196e-01,5.060177216865012761e-01,5.126100836711314779e-01
4.701138499402467419e-01,4.466077647740542278e-01,5.444352898194673163e-01
4.523558194174526759e-01,4.897442570822604924e-01,4.778963932333071263e-01
5.391568510064310704e-01,4.729376893469134369e-01,5.111727520540179093e-01
5.026744210499334287e-01,4.937132657604051955e-01,4.845257704598731618e-01
4.722940185592546247e-01,4.454239137989580155e-01,5.425825111097349884e-01
4.618867047642374324e-01,5.310759308251680189e-01,4.679795645912962487e-01
5.244077531610252807e-01,4.922171227493220558e-01,4.602049362567312007e-01
5.414322068936907595e-01,4.767296304879485302e-01,5.542115149751097869e-01
4.553565345610436910e-01,5.616732817710851089e-01,5.030145762001382304e-01
5.315599028085558064e-01,5.155557215219597200e-01,5.026753114573011549e-01
4.591410274095026889e-01,5.352392972068718002e-01,5.006430841018206790e-01
5.645842801613237816e-01,4.260251904222870367e-01,5.534158132748985270e-01
5.001946608666647531e-01,4.555609826026520981e-01,4.872310459642213987e-01
4.578771949900879989e-01,5.667428442877823214e-01,5.510336050362556470e-01
3.753739131290992903e-01,5.018421943959170406e-01,5.169232520357480709e-01
5.354280496854711968e-01,4.988303176059125099e-01,4.707464803930260788e-01
5.229525095090874487e-01,4.790315203045463766e-01,5.528122997658166948e-01
4.303798667097907260e-01,5.308740990378467695e-01,5.500208170056656298e-01
4.956416080503028287e-01,4.679083319944101760e-01,4.955158348356057951e-01
4.776479390115780377e-01,4.654751042597341515e-01,5.269837724911794474e-01
4.802951904907146741e-01,4.394848633924632320e-01,5.529274977994134144e-01
4.438984921505298997e-01,4.889068043608826852e-01,5.068117745245100947e-01
5.086784070327849960e-01,5.039628819420637340e-01,5.277494311292969531e-01
5.356463126990239632e-01,4.463457456810629442e-01,4.729412480555865717e-01
4.214381489356024968e-01,4.962622487603971511e-01,5.144708409486741241e-01
4.429310142188940813e-01,5.846187013009008782e-01,4.509827557899019346e-01
5.033796991796741782e-01,4.020501243992268270e-01,4.723601321225134875e-01
5.463652328728230145e-01,4.938122509129401760e-01,5.897933666885868398e-01
5.349562393602184107e-01,5.389997709466252118e-01,4.727047916890099177e-01
4.567016097891619109e-01,4.925494223301670749e-01,5.227592313787047251e-01
4.505309359484990783e-01,5.428986324296480870e-01,4.846077493382602852e-01
5.474218324164477067e-01,5.093220928785745505e-01,5.042889417875401348e-01
5.086129318208094663e-01,4.755062245695990675e-01,4.838785599293290995e-01
4.991097922045232282e-01,4.572810175580253600e-01,5.046545104669885040e-01
5.378963509796365061e-01,4.313714876254889918e-01,4.192820130746624518e-01
5.194028104104174703e-01,5.488162036330022087e-01,5.512243622512474905e-01
5.061847106236017080e-01,5.538201458039970770e-01,4.290455032578497918e-01
5.852943467669869948e-01,4.813598477360592209e-01,4.797764070321279828e-01
4.457230976239551778e-01,4.899137366552663297e-01,5.480713062911368727e-01
5.304874904394873969e-01,4.743654718281376526e-01,4.854613879018251366e-01
4.832287068076001613e-01,5.466753203244316683e-01,4.469033745546458491e-01
4.564345209352764221e-01,5.281891057108164533e-01,5.366091302634774518e-01
4.642986299647948734e-01,5.068091813325890094e-01,5.520534411193361857e-01
5.728487048359882650e-01,4.666800651785634746e-01,5.605687538093193645e-01
5.111051353855801116e-01,5.719988176930803636e-01,4.343830743404258343e-01
5.211661717288381679e-01,4.597360889169657128e-01,5.413693589006862705e-01
5.046778024064200174e-01,4.664582441721126793e-01,4.803460109847704773e-01
4.180233232284735201e-01,5.515568948909165270e-01,4.907279955170660846e-01
5.975411860986478141e-01,5.569984540428896125e-01,5.361477875171418717e-01
5.397283750955214066e-01,4.230395773484078581e-01,5.350474908047136990e-01
5.560625143180798480e-01,4.889479099806989248e-01,5.215945797113124005e-01
4.886485465098163727e-01,5.075006585806461912e-01,5.334243785929724257e-01
5.130825186421993367e-01,4.473543360095741384e-01,4.817881370044944100e-01
4.879169167912186800e-01,4.625312934285462085e-01,5.082058666431629179e-01
5.442103077957416435e-01,5.086594117495547573e-01,4.991111439955681628e-01
5.127035325681430500e-01,4.469398456280956333e-01,5.236590923554805821e-01
5.157332017412751268e-01,4.856976379556235401e-01,5.342051930644354796e-01
5.063664976584688615e-01,4.612403454041905104e-01,4.491745493144354007e-01
4.626894061514034706e-01,5.476210748563056230e-01,4.936787824366080657e-01
5.083144585489861589e-01,4.473965770881256909e-01,5.047568104156074931e-01
5.322978988271489520e-01,5.065729046943316938e-01,4.544335808285975276e-01
4.808695500356464647e-01,5.062526777668684419e-01,5.380032021533724951e-01
5.877410685787350930e-01,4.888577608489481086e-01,4.907678033550602614e-01
4.992244923131274326e-01,5.171355604538523387e-01,4.697561794621545328e-01
4.764256783805225215e-01,5.152183174662445797e-01,4.510206273853470949e-01
4.646183958483515730e-01,5.263629725565229789e-01,5.375385652749682386e-01
4.520705664996750306e-01,5.921279549178778412e-01,5.601861185322494219e-01
5.070233918020156105e-01,5.219045069388761338e-01,4.992939990275060413e-01
5.139805919670553669e-01,4.650676540279538029e-01,4.858493858688686662e-01
5.187009187935194277e-01,4.772944015428773890e-01,4.651274995743998608e-01
3.865693132112876795e-01,4.362230927090866017e-01,4.458453132004425723e-01
4.894222093528551865e-01,5.388123844922996231e-01,5.369140387378135149e-01
4.559773382249144302e-01,4.726559024053143543e-01,4.809882866353761277e-01
5.149550741785673402e-01,5.192889183493631933e-01,4.308467992582194483e-01
5.001041047255382344e-01,5.137779264701374249e-01,5.023859008872608722e-01
5.004737130424399272e-01,4.982821812446706633e-01,5.095807458965206926e-01
5.150684293902360045e-01,5.485016827289386221e-01,5.249221239041969023e-01
4.773337095659966889e-01,5.289137454465694388e-01,4.945496401882709669e-01
4.669051665993666500e-01,4.923758638580622016e-01,4.563996664280882687e-01
5.210820928153978571e-01,4.552489841765118284e-01,4.775436751255476286e-01
4.686942115214967064e-01,4.862818656878378776e-01,4.947283929670925895e-01
4.793311434047045072e-01,5.157745319826797514e-01,4.881673743787702247e-01
5.061407796057059150e-01,5.565431893915123718e-01,5.056288333823892867e-01
4.619811731734582150e-01,4.993413622088652692e-01,4.476289854830266535e-01
4.039749057542998401e-01,4.524913739542293367e-01,4.118077205368879667e-01
5.160143938002632602e-01,5.619836017765532654e-01,5.400496774588543492e-01
5.741804850702876273e-01,5.108475701102803690e-01,4.983962572211577124e-01
4.755588160991859881e-01,4.909420157786121841e-01,4.798651947373447912e-01
5.787602503308165725e-01,5.154846248264213227e-01,4.742560070142926576e-01
5.212666148650397790e-01,5.640319456080872262e-01,4.531080704960073757e-01
5.386162666766362017e-01,5.274542471278268474e-01,4.757588180901579644e-01
4.182258967291567764e-01,5.514983789040713846e-01,4.511404642278409871e-01
5.436356748120197979e-01,4.770420255607035198e-01,4.793969110402800937e-01
5.329528743727559581e-01,4.927563598340718443e-01,4.564568574769338194e-01
4.166807008523304434e-01,5.204905570353430821e-01,4.380727039266871792e-01
5.885055087689938791e-01,4.777810485160443599e-01,4.882983375963514949e-01
4.946900010228161837e-01,4.901815696732692018e-01,4.829116935287458556e-01
4.869116212384911879e-01,5.167887162894880815e-01,5.473065618923171893e-01
5.188575427341775015e-01,4.273105057282376995e-01,4.478818985408140052e-01
4.774844518958509809e-01,4.670856929156500525e-01,4.681944498155458656e-01
5.402006495068510938e-01,4.508341545121713478e-01,5.030427590653794301e-01
4.869459317563165635e-01,4.472081552601072651e-01,5.022252299586460467e-01
5.210264475815349350e-01,5.270566687875792855e-01,5.433090547563383943e-01
5.685521527315344770e-01,5.249358491370571533e-01,4.840544905526073527e-01
5.493113781620101443e-01,4.777709696496534875e-01,4.785960282013325129e-01
5.551011616168466389e-01,4.518114590270183584e-01,4.983973858128647461e-01
5.636864866195033796e-01,5.136121790862988590e-01,4.554292552616344136e-01
4.724247677259187927e-01,4.859422107922198308e-01,4.521062993370920102e-01
4.539840804414060349e-01,5.883060202875105560e-01,4.948514475198657059e-01
5.061263677300703590e-01,5.417783114747496409e-01,4.632954781338933792e-01
5.232914541117670293e-01,5.440618798104713827e-01,4.613219115972004292e-01
5.158709980212851098e-01,4.500857352670489808e-01,4.526551328711235223e-01
5.608108041712914771e-01,3.889589474973830230e-01,5.601891970482457683e-01
5.124503647588667388e-01,5.119046462736095426e-01,5.234577975210402689e-01
4.266081529496996705e-01,4.159608386419809123e-01,4.476275548308821239e-01
4.861991904762576477e-01,4.825723529017924562e-01,5.968328705020010672e-01
4.528826821288578497e-01,4.762916768002605217e-01,5.373938962905603356e-01
6.240452412670179916e-01,4.578285119423176064e-01,4.142268064778363290e-01
4.786558451581061635e-01,5.145129748787826696e-01,5.509961252542289190e-01
5.126261496909968463e-01,5.034062103988561354e-01,4.906483488326705555e-01
5.185551614642663898e-01,4.183720335413521063e-01,4.426316887940605627e-01
5.348220976141719873e-01,4.797559814233166575e-01,4.737014457998889871e-01
4.873185430309542321e-01,4.651217542076426237e-01,4.950871230663462241e-01
5.425231090699794700e-01,4.829009920679301349e-01,4.139438259490184624e-01
4.647085312215691322e-01,5.577348889479469829e-01,4.759632849399081933e-01
5.405530566641509882e-01,5.318116107334076581e-01,4.824496950315346755e-01
4.335035744706487448e-01,5.365476920673244443e-01,5.325957719989896644e-01
5.536054675973504091e-01,5.479617174477627861e-01,4.509359580750840202e-01
4.711904683088266599e-01,5.701162936358007416e-01,4.691752312114522705e-01
5.227210417246581642e-01,5.246368294491671191e-01,5.081974366968917689e-01
5.323039734880409268e-01,5.058431983961851897e-01,4.898699545306312020e-01
5.332763571656330415e-01,4.954548380253889772e-01,4.644245544143345561e-01
5.131734357950776815e-01,4.734538873534026027e-01,4.887043800864626086e-01
4.840815679057011156e-01,4.454814071766266537e-01,5.001446551673059959e-01
4.976698844023152435e-01,5.096943956766004646e-01,4.609407135807054856e-01
4.908397450535316731e-01,5.600890070124516784e-01,4.965052019619942136e-01
4.510190546537563017e-01,5.088681046516037032e-01,5.885208737085900754e-01
4.496039159877085467e-01,5.234791517281447426e-01,5.391248659377563257e-01
5.963613418348375772e-01,4.953536724467470509e-01,4.841878710517456552e-01
5.232878929277916535e-01,5.675177382410622196e-01,5.104967374129308899e-01
4.365213940439903739e-01,5.424130172177841214e-01,4.609174992631741019e-01
4.716904267594086431e-01,5.001592057059178753e-01,4.858262918197931990e-01
5.538087779563800606e-01,5.223225443651877686e-01,5.487534535424286597e-01
5.198791855216410296e-01,5.607681244662848785e-01,4.736265651720490966e-01
5.619131807387659494e-01,5.629344181915012513e-01,5.717425159105242738e-01
4.757815097520591285e-01,4.607195593518574883e-01,4.857473648574469061e-01
5.025554449440485794e-01,4.642182384351030699e-01,4.436240379391870325e-01
5.045821002758601459e-01,4.938050040877359215e-01,4.672453038556692029e-01
4.689347352608698172e-01,4.951227065569716035e-01,4.412971718423110423e-01
5.052117934996179782e-01,5.362708332319578997e-01,4.792788372749495207e-01
5.005093650649921067e-01,5.157705776967491662e-01,4.864461291921280961e-01
5.493517876836160330e-01,5.375891715001723803e-01,4.786597594947779033e-01
4.226629145126610254e-01,4.825490552941376077e-01,5.807378000494766157e-01
4.696842882990150403e-01,4.833954719292920532e-01,5.013611373980227937e-01
4.646046649289997665e-01,4.830719461921375579e-01,4.644786029847440267e-01
5.743940700309386749e-01,5.046426461297192079e-01,5.147768837191417646e-01
4.976491366007227413e-01,5.140416917289348797e-01,4.535403948415244191e-01
4.596768239195154204e-01,5.108067525070275616e-01,5.077171523834371758e-01
4.770134794792775246e-01,4.701152844325176550e-01,5.115959619209314857e-01
4.674108515490760785e-01,5.220430976682287616e-01,4.729486651149004128e-01
4.598879981206757672e-01,5.697330870105730138e-01,4.854320568458103113e-01
4.964504742464485587e-01,5.063534841726125002e-01,4.696009530245199293e-01
5.260885313375385230e-01,4.563689101257179526e-01,4.605544292268131112e-01
4.452721597965865197e-01,5.195405350966630920e-01,5.145148256261905528e-01
4.947661232064862191e-01,4.472751589483896506e-01,4.656818211677371533e-01
4.938862823039820160e-01,5.299361850165229537e-01,5.445948298780614039e-01
4.656629509791305743e-01,5.051887118001280319e-01,4.649016351426611959e-01
5.053516763819856372e-01,4.716117050080544937e-01,4.955124303784097517e-01
4.996601158165051015e-01,5.578973416840237176e-01,4.593669590149231374e-01
5.049808014011386570e-01,5.418997026761672720e-01,5.167899253996819375e-01
4.874821533129037876e-01,4.095678495987027379e-01,5.003353183177140506e-01
5.430218734253872137e-01,5.532938119656134468e-01,4.997148605754597739e-01
5.112457314909398809e-01,5.432218361817776620e-01,4.774556651618892533e-01
4.487294020980535092e-01,5.117349291500756792e-01,4.663084219927531859e-01
5.043363502330915349e-01,5.601357495456544822e-01,4.525806375301519857e-01
4.567720358333132724e-01,5.025155153679944364e-01,4.708725113529615425e-01
4.777122346063686908e-01,5.316304102247052521e-01,3.742495794702977441e-01
4.879225503035741207e-01,4.884194417071304750e-01,5.220769473846964548e-01
4.913665071738128609e-01,4.995765966264819613e-01,5.221299633142546526e-01
5.145384511009281070e-01,5.749638658901892185e-01,4.869300538347105523e-01
5.281885064339839619e-01,4.970438502028924899e-01,5.236358210146161429e-01
5.122547182421030021e-01,5.325566858596114672e-01,4.984184567804642030e-01
4.631194694863677852e-01,4.700808679664054135e-01,6.204754540607753110e-01
4.337883572592198256e-01,4.189006771955835484e-01,6.123340674772853598e-01
5.239745729397120577e-01,5.192483885941371335e-01,4.884631518116873128e-01
4.545643570901969355e-01,4.264697050053161131e-01,4.278415391538789581e-01
5.132438130281976596e-01,4.498434521595999214e-01,4.878728536956896122e-01
5.200084476483405327e-01,5.581751014464032545e-01,4.101042000733794990e-01
5.581688645615953126e-01,4.003110981872005092e-01,5.573761366609554235e-01
4.500401772891713392e-01,4.736446716272318391e-01,5.146389960198582969e-01
4.615809231609118712e-01,5.223519319405616201e-01,4.888247968825442658e-01
5.681609884905114427e-01,4.850259448691439657e-01,5.018125162372920611e-01
5.133948104926581157e-01,4.802187185778005740e-01,5.346224123692993047e-01
5.178941261884990599e-01,4.289810046844686475e-01,5.026118417918766790e-01
5.454134946250244198e-01,4.535359536046844053e-01,4.584605148349850667e-01
4.697263224501152523e-01,4.662574540785530131e-01,5.054146153555503229e-01
4.865798763743259259e-01,5.446225761769533102e-01,4.688871301867935659e-01
4.647370005852944352e-01,4.937927218739847635e-01,5.041700736123554405e-01
5.483475938646343861e-01,5.110503979784078998e-01,5.294858900355439157e-01
4.888705615403458604e-01,5.299117384900855487e-01,5.578683606366146019e-01
5.991323941973065725e-01,4.758216657402696281e-01,4.887855688510743812e-01
4.969148271121950344e-01,4.879467636382028850e-01,5.219336909276744985e-01
5.145372949536234364e-01,5.154019086147808570e-01,5.538633959041669996e-01
5.123251273574516151e-01,5.315471978110852813e-01,4.998322343990025396e-01
4.521866062841450873e-01,5.430900788101102883e-01,4.402733708110031507e-01
5.605936986203213790e-01,5.036169974088618995e-01,4.903146246829280797e-01
4.688105218269177366e-01,5.218966566545415464e-01,5.093089149908248681e-01
4.878153114000681190e-01,4.969462135620528742e-01,5.038892826667099589e-01
4.736610638079830626e-01,4.900816362667847481e-01,5.129516462439260849e-01
5.522412304821288087e-01,5.106394403883387501e-01,4.628887344410682059e-01
4.517365726803134751e-01,4.704105175539923800e-01,4.923756470927876938e-01
4.003315073615784647e-01,4.898389919991994468e-01,4.996836193122378145e-01
5.358226004112103258e-01,4.578186197486636133e-01,4.635306891448943145e-01
4.402237110513860241e-01,5.869557760015072789e-01,5.865894668920156318e-01
4.980884086566599867e-01,5.218605228621469028e-01,4.717887788060841081e-01
4.656193576909523624e-01,5.069480220275157656e-01,4.730692454439959782e-01
5.216560752601385742e-01,5.163171064021249146e-01,5.272296425433795619e-01
5.489980937050678023e-01,5.475048709906406019e-01,5.938078835906251962e-01
5.153427482368772017e-01,5.002636717884824114e-01,5.620678851670748433e-01
5.538307429516116098e-01,4.548660930548921733e-01,5.188890717567901101e-01
4.450983545560656118e-01,5.370687016131110436e-01,4.663304722763343957e-01
4.989120409982925053e-01,4.926196484935098097e-01,5.453285290153657705e-01
5.351284324084093491e-01,5.128969130117134734e-01,5.015882032758437470e-01
4.948343732286109575e-01,5.434821635808567697e-01,5.386345326761219354e-01
5.900758276712970707e-01,4.233525221153284224e-01,5.110397760881094653e-01
5.232649182088688899e-01,5.192867536565684006e-01,4.788805998963949762e-01
5.145651161589676059e-01,5.953583260319631476e-01,4.931558565916431269e-01
5.388369604405317537e-01,5.129431985128886096e-01,5.505020130826486779e-01
5.428803777897202032e-01,4.806626366995205846e-01,5.350498120520014167e-01
4.422216446056339012e-01,5.704530179690188163e-01,4.703064081113575434e-01
4.366476254464538020e-01,5.844577672569205573e-01,4.162351419747474246e-01
4.821971558839281413e-01,4.768738579704756009e-01,4.635966896981264518e-01
4.644254789515370185e-01,4.838753311185006178e-01,5.126400945336617720e-01
5.056897029543668820e-01,5.073067655547811583e-01,4.528877773383149785e-01
4.774056489858439223e-01,5.279939304509457809e-01,5.306937343482182046e-01
5.306443190178042890e-01,4.856334325156173581e-01,5.593739458478353965e-01
4.886751452956544228e-01,5.307441405880246599e-01,5.383631034436922036e-01
4.665848469572815849e-01,4.513969397450519616e-01,5.475255168461858890e-01
5.490278744944052658e-01,5.620231054966819961e-01,5.088439549106393844e-01
5.753751417237316090e-01,5.195332088513904267e-01,3.895252456295472121e-01
5.387593088979995004e-01,5.063954392950633654e-01,5.271123391150142057e-01
4.871182020952342095e-01,4.712726801172940627e-01,5.369140694421846716e-01
5.288480209116227515e-01,5.034384951690112908e-01,4.543837019093698304e-01
5.276508881780925808e-01,5.604763718617703505e-01,4.521905749824449150e-01
4.697081392018472301e-01,5.046165912280735633e-01,5.601010578935048390e-01
5.032670558015470696e-01,4.398788572308320877e-01,5.404236138616932417e-01
4.936200443676634908e-01,4.600315922295326598e-01,5.146544411070178571e-01
5.269540235342593526e-01,5.663505577595205898e-01,4.996724081468083556e-01
4.792502202225984997e-01,5.216387671015474403e-01,4.812834516490863135e-01
5.007817972735655321e-01,4.638616382138450733e-01,4.839150266021121638e-01
4.834433486349541953e-01,4.553628991880093180e-01,5.169545884926137758e-01
5.274539780348882489e-01,4.149579157280358643e-01,5.234132592421583130e-01
5.105725733856106840e-01,4.914196395585582189e-01,5.196343955019411265e-01
4.791228249879774803e-01,4.755943937160202473e-01,5.119825106190203368e-01
6.150637615142094949e-01,3.979948021301630834e-01,5.216424116734188487e-01
4.927891718780171848e-01,5.228834705728789833e-01,4.642886871245853753e-01
4.517607718273326523e-01,4.426132500151103710e-01,4.574836404849441651e-01
4.504074891828465099e-01,4.772329887536332360e-01,4.220439493680804843e-01
4.446039165622009404e-01,5.206553840092394969e-01,5.424611302440333072e-01
4.972074747888701185e-01,4.885459747138282127e-01,4.176795424425516767e-01
5.663574737916742263e-01,5.907563190017255383e-01,5.031312826318504738e-01
5.085494802670750270e-01,4.808208656898001476e-01,4.651808493578691861e-01
5.060843462780063584e-01,5.178782024880049795e-01,4.990840512658176187e-01
4.917273823220630891e-01,5.035677864227501299e-01,4.496563407838605197e-01
5.014561726726863844e-01,5.087765359606001292e-01,4.999867990980829680e-01
5.162763945834600854e-01,5.540027249016775679e-01,5.122365748596747759e-01
5.189957453796649745e-01,5.220948348757357138e-01,5.024978951566205776e-01
6.063320096637788703e-01,4.599240032891956376e-01,4.925098804140621844e-01
5.137140147960488346e-01,4.578293839349705241e-01,5.278869798497544119e-01
4.604627643335247877e-01,4.225097107500087046e-01,5.229574547322076716e-01
5.015423950961953592e-01,5.297336063668778294e-01,4.776656403855113475e-01
5.034063441102905045e-01,4.059253616856328684e-01,4.404388190310649653e-01
5.051769221117605735e-01,5.149775871631575574e-01,4.900649352097799505e-01
5.137958910779976129e-01,4.660464025286839007e-01,5.227268814525104501e-01
5.196812360210639747e-01,4.911927211715522712e-01,5.071130245281103566e-01
4.099608839493086854e-01,5.822999447769834358e-01,5.352298305815467172e-01
5.158740229080327477e-01,4.580703062263881686e-01,4.775785695213341508e-01
4.554759466093740716e-01,4.774205599044312187e-01,4.672016823467534108e-01
4.935980458935830817e-01,5.057321297620500644e-01,5.074796934546591531e-01
4.893492048618510726e-01,4.785305743481094720e-01,5.252847584942991199e-01
5.350869759736041065e-01,5.266567548874345750e-01,5.304318782156655088e-01
3.497344181007837061e-01,4.434280932352371862e-01,5.472593006848760488e-01
4.662589941273823091e-01,5.068584745219919530e-01,4.891484165833015485e-01
5.389971905872364966e-01,4.476123480442426583e-01,4.250338660547763880e-01
5.215746098092601812e-01,4.958040846979500094e-01,5.083193573557035494e-01
4.871970524847644146e-01,5.066023004010071773e-01,4.828984320285059639e-01
5.031090636764876667e-01,5.456683923568520500e-01,5.172934000737158255e-01
6.125969110234011916e-01,5.011721765472181289e-01,4.774724123534227482e-01
4.722382346047281909e-01,4.847306080908195813e-01,5.277542646763753176e-01
5.080950922534513969e-01,5.414275181627372646e-01,3.770731407228889998e-01
5.395495478001728351e-01,4.518962532347562400e-01,4.843902069880478001e-01
4.850499414056655967e-01,5.585120303556454502e-01,5.279350987865824019e-01
5.056213966591809328e-01,5.284440058192882983e-01,4.078185811719960419e-01
4.500689207799409841e-01,4.609216415303213910e-01,4.627111744273595950e-01
4.201616993338165296e-01,4.704160055926842054e-01,4.877346583407782821e-01
5.167433258868413537e-01,4.895575305782299824e-01,5.767072269465756129e-01
5.407605642355535203e-01,5.126901701107641207e-01,4.312992974054429829e-01
5.294786520390132312e-01,5.448668977869589591e-01,5.305128952717351742e-01
5.125822036702263329e-01,5.066763882609134351e-01,5.333890637892292341e-01
5.208699887771682802e-01,5.629821150691139975e-01,5.871430249560677384e-01
4.328906837453961876e-01,4.752006938667008296e-01,4.550884461440513062e-01
5.256708986557712127e-01,5.265393198522284601e-01,5.257972978656513252e-01
5.263151803462542411e-01,5.611511753988536189e-01,4.886074817715276852e-01
5.660737450151716033e-01,4.991916224906737254e-01,4.889964144390751555e-01
4.622307770319967202e-01,5.308777265066980666e-01,5.263219379641288498e-01
5.011728885082624707e-01,5.091076323647911739e-01,5.767636403245581800e-01
5.066108550794492515e-01,4.515799330713053394e-01,4.459755849778893610e-01
5.236953206245731351e-01,5.009331046344620564e-01,5.509728673666349774e-01
5.273613810288622084e-01,4.927916643957795384e-01,5.213688049331214325e-01
4.859968369402453137e-01,5.136046040236593724e-01,4.947865476533468976e-01
4.116872384923138672e-01,4.853595740800071279e-01,4.966298392090828240e-01
4.809421748585733791e-01,4.916253347452616551e-01,5.172790087676895077e-01
5.088130619503427043e-01,4.331379372465932187e-01,5.239934020564103179e-01
5.150133649826841298e-01,5.210258966886657239e-01,4.408767655490384851e-01
4.766677678476379243e-01,5.402526597375548745e-01,5.119557611973178934e-01
4.891068937624631352e-01,4.857415109695178979e-01,5.850682918076411942e-01
5.165555330626916408e-01,5.029793060166334318e-01,4.833446102990417992e-01
4.803599164996739113e-01,5.111464652626285243e-01,5.095929334495339358e-01
4.535037000666045648e-01,5.173995696771083175e-01,5.372567530520832024e-01
4.920644923434228657e-01,5.087366263778471120e-01,4.973635626393147491e-01
4.982042913680352347e-01,5.041759899216525787e-01,4.338387768580399539e-01
4.654343582756624853e-01,4.748763942126377757e-01,5.217037964698920671e-01
4.648150462317972575e-01,5.136768280907595408e-01,5.022051596671079920e-01
5.496749468577705189e-01,4.750024816223550328e-01,4.769725551236876915e-01
3.981794751981376779e-01,5.056002425748642448e-01,5.343173996988780372e-01
5.176155716320267608e-01,5.054248111658561360e-01,5.073762967768279397e-01
5.391880801967092740e-01,4.253501025356652976e-01,5.112752183398917571e-01
4.777569338522094644e-01,5.216005675644845851e-01,4.657427521455123065e-01
5.646655028731067949e-01,5.597895153950643854e-01,4.897977024729152085e-01
5.129072412231114875e-01,5.479509063363476873e-01,5.433719935206986484e-01
5.561842886418518761e-01,4.721660768095118921e-01,4.815344276035636861e-01
5.508332935381257123e-01,4.133047728033631407e-01,4.464320791476088512e-01
4.738667010312551109e-01,5.031467723467775155e-01,4.553096641626404040e-01
4.515963426269954950e-01,5.095789275186007883e-01,5.272274744734493090e-01
4.915755068462445143e-01,4.481074248467352694e-01,5.564726399456044748e-01
4.838319746371868568e-01,5.613599760878185130e-01,5.328987119587886845e-01
5.583100346939795511e-01,5.454727352654129557e-01,4.432581287044137786e-01
5.429925551001619777e-01,4.707188667133889171e-01,4.818408635413656271e-01
4.894722332460340608e-01,5.204815540172220700e-01,5.566925739885372204e-01
5.337496726164450145e-01,4.328250119259807183e-01,5.231505935306312027e-01
5.662361827115508506e-01,4.359030845582501645e-01,4.413125339511048129e-01
5.228984600698226570e-01,5.175300078066711329e-01,4.414584426115249483e-01
4.969624229967172235e-01,5.051815659285403548e-01,5.144295962365647013e-01
4.398398999142522081e-01,5.355385801454182193e-01,5.049223426251105984e-01
5.250665883662343214e-01,4.453553276609442668e-01,5.372653648830663098e-01
5.192663199008487052e-01,4.475191410418542515e-01,4.410243522092059942e-01
4.641726992473951263e-01,5.791288442177843221e-01,4.651996794897377274e-01
4.746296716172082597e-01,5.664993710594720122e-01,5.311528171692646572e-01
4.681135174487761064e-01,5.395881830596572781e-01,5.597748833035921523e-01
4.974307036058575049e-01,5.400116057909828404e-01,4.534166441146094129e-01
4.297190809272148360e-01,4.559273294642929297e-01,4.870795641145056476e-01
4.569689209922806472e-01,4.593026101138988904e-01,4.250330101323873122e-01
5.287850587502371802e-01,4.258053974376043715e-01,5.445933384758031570e-01
4.232897905678802974e-01,4.029453386605789666e-01,5.729682755918054093e-01
5.386696060280725673e-01,4.817574693668678631e-01,4.975532560031704632e-01
5.485059759540166224e-01,4.593903569856022107e-01,4.566463743427657263e-01
5.354226142772734454e-01,4.573789426610551101e-01,5.550924440564922735e-01
4.980994744092459015e-01,4.731179348767806658e-01,5.217983283945496487e-01
5.061454892476826561e-01,5.478745325914889941e-01,5.965948189858393258e-01
5.201248103799569478e-01,4.985577405218213909e-01,4.480647427420427764e-01
4.471800588410698718e-01,4.739393676492378860e-01,5.249078180928745674e-01
4.719953816292785653e-01,4.655502904092959082e-01,5.733939293462887443e-01
4.735515054529178536e-01,4.872535930504556245e-01,4.883710874841464267e-01
5.144745775101208229e-01,5.144695652541548814e-01,4.780787889131434820e-01
4.872381699002273914e-01,4.787607268395561166e-01,5.632889580288398257e-01
5.601805585370379648e-01,5.106318469529133042e-01,4.461577933436374210e-01
6.154973105260611588e-01,4.952832939665721135e-01,5.200394951075851813e-01
4.729905359269588883e-01,5.137195412414802265e-01,4.809152170414321414e-01
5.824452259733527981e-01,4.587008229904268042e-01,4.102562655730607188e-01
5.029172966884816187e-01,5.089341092719535942e-01,4.835161788713424613e-01
4.932891660608305084e-01,3.903205428744846994e-01,4.636245222466625626e-01
5.672245781951250621e-01,5.381945330573557618e-01,4.672772656353130216e-01
4.734895735007682571e-01,4.568618751007963441e-01,4.238983921940617794e-01
4.649242001603761110e-01,5.302687851146864473e-01,5.570191014489932479e-01
4.788535338173081635e-01,5.211242495877763670e-01,5.109865519799245970e-01
5.252915050634057170e-01,4.255042952414626045e-01,5.141040230254971810e-01
5.674326639966262853e-01,4.633430941516387680e-01,4.851814546653859805e-01
5.765400074022675181e-01,4.735964318088113356e-01,5.316468744488501708e-01
3.708352971517364649e-01,5.534288502837513279e-01,4.909939174667433681e-01
4.930979634830843228e-01,5.650947156644395841e-01,4.921964941819719219e-01
4.829841711113584957e-01,5.029266298454990736e-01,4.706553516016976357e-01
5.163617247324242543e-01,4.792215538201800018e-01,5.458200958699521710e-01
5.308512078860320171e-01,5.237727032694113882e-01,4.356373137238491178e-01
5.229400695228992868e-01,5.331365135257155607e-01,4.817856748317110860e-01
4.991592671846118434e-01,5.396861427124300947e-01,4.505929302624115396e-01
4.774994507624619744e-01,4.942871987581742288e-01,5.013445004715995079e-01
5.193056313448382033e-01,4.842257572076001937e-01,5.252734110513187504e-01
5.204123779085489954e-01,4.972813168011988583e-01,5.269803229737934913e-01
5.892323611837203545e-01,4.875553491337661915e-01,4.847214978883739867e-01
5.080585551504006592e-01,5.757952251017375289e-01,5.063181970051788827e-01
5.717717339713455083e-01,5.209682907878523395e-01,4.964642181532956111e-01
4.736201229566008308e-01,4.610863834121334826e-01,5.560967344059756234e-01
4.969345771007322998e-01,4.736398007309151059e-01,4.509796502257057971e-01
4.925105668173395679e-01,4.797841312792174295e-01,5.341876714904922885e-01
4.976417451141241233e-01,4.526484537147483223e-01,5.030245738078508166e-01
5.438016483722869499e-01,4.705107033957519058e-01,4.721483171458904504e-01
4.954484193673556192e-01,5.422709507024451314e-01,4.753720188482705167e-01
5.408977728313343336e-01,5.187291487445349070e-01,5.266622578359387852e-01
5.190360009998472579e-01,4.332792647429229982e-01,5.925280557052506891e-01
4.897387553734066090e-01,5.544474421707793477e-01,5.349029795387677533e-01
4.912303143634612623e-01,5.994467098757554346e-01,4.418777906499872232e-01
4.785489078529973073e-01,4.943928690239263735e-01,5.457875606696246384e-01
5.329395477566168937e-01,4.731142963980089489e-01,4.614613069625751463e-01
5.132253710022472992e-01,4.840074840039430004e-01,5.134602287960109424e-01
5.399935186715455471e-01,5.169768779482606380e-01,5.244411370232242575e-01
4.385272904550193140e-01,5.691282274043319989e-01,4.800302470720625436e-01
5.667971448426184500e-01,5.255269629335369563e-01,4.927617065681893505e-01
5.311594272957586016e-01,5.106101399928461015e-01,4.923050826819875825e-01
5.214421461449745276e-01,4.788420698467620307e-01,4.958279676756373044e-01
4.718556387293935117e-01,4.654391704580803646e-01,4.815181036013471139e-01
4.661339718251853448e-01,5.135334926868121430e-01,5.372436557730283502e-01
4.391759001706206922e-01,4.736130745177451473e-01,5.182957028086093709e-01
5.453572345167343460e-01,5.439721529716922133e-01,4.900688703082988207e-01
5.378857752184580399e-01,4.861585745879185572e-01,4.924136278485301554e-01
4.471095312466303873e-01,4.593821622415448225e-01,4.350277657167058165e-01
5.192255951338722308e-01,5.585047653671892931e-01,4.871819245914786878e-01
4.927679449727979111e-01,4.394899580994772736e-01,4.716006715230260382e-01
4.568529083240329691e-01,4.879305799106230523e-01,4.718634647909595303e-01
4.476956088260634625e-01,5.355011758028569435e-01,4.780756749020469432e-01
4.903126229373841460e-01,4.688345977924572860e-01,5.109691432490089946e-01
5.749079113942174857e-01,5.079344027714040033e-01,5.267907856295520608e-01
5.062694006792062273e-01,4.335633147765575734e-01,5.570135411507949330e-01
5.309341394629236710e-01,5.410380499006575139e-01,5.993264370548510023e-01
4.994406427309555641e-01,4.423058650611221831e-01,4.511825986433993796e-01
5.051684001208500696e-01,4.680851015196531573e-01,4.818179755045169932e-01
5.308635944406026042e-01,6.064623572400905660e-01,4.302085319717748879e-01
5.090081989016000952e-01,4.536573677945863747e-01,5.245729348477513598e-01
4.915710707447652483e-01,4.631981930984705453e-01,5.168183391784844094e-01
5.099456544004608016e-01,5.035776030004087689e-01,4.999340280155076810e-01
4.228130497840540958e-01,5.550186359357230925e-01,4.923978817328628632e-01
4.665346347968010732e-01,4.954433178755269229e-01,4.837828174567152528e-01
4.821596594411278192e-01,5.006667057506033469e-01,4.760447042682226515e-01
4.373596049258052787e-01,4.808919491067195073e-01,4.838024288861400568e-01
5.009564772225716389e-01,5.580479706412111440e-01,5.184977004613646745e-01
4.867462232123409005e-01,5.283078962647196342e-01,4.212715556662014471e-01
4.931863032282847725e-01,4.781729053172001365e-01,5.088233105343152873e-01
5.459723096824721233e-01,4.865648392140329292e-01,5.165319217279299435e-01
5.554176589032181477e-01,5.387086410205992326e-01,4.832588603731373667e-01
4.996541168781863385e-01,4.591397630683327069e-01,5.183312761816705194e-01
5.318195906571716591e-01,5.220459776677784935e-01,4.642233774446054007e-01
5.217039334987537691e-01,5.235601674232472913e-01,5.489099536832308113e-01
5.430329838217853311e-01,4.812963145026100120e-01,5.445221748259931882e-01
5.851338808960805382e-01,5.299885358179827755e-01,4.414571572751000983e-01
4.942686376207397481e-01,4.651838815880070532e-01,4.921738406481414585e-01
4.530878478145692334e-01,5.404068648609767767e-01,4.915063892378937482e-01
4.085729391611163108e-01,4.470138010603208478e-01,4.821893088250492898e-01
5.032209846808882725e-01,5.315691167328904232e-01,5.125222296254066112e-01
4.832503471556031660e-01,4.261373988256350609e-01,5.165977223893900572e-01
4.922477723171043706e-01,5.360796293643818045e-01,4.999027809588040827e-01
6.057803943133041047e-01,5.147777113250644465e-01,5.377866089211701395e-01
4.695057276920276412e-01,4.774363851096953271e-01,5.174838798086982550e-01
4.915086613001328764e-01,5.052234291042246861e-01,5.972320937179479428e-01
5.248794815875391651e-01,5.505670471344915606e-01,5.727248588176563349e-01
5.043779051322685447e-01,4.803540162941100089e-01,5.283559234496576495e-01
4.311879909613987594e-01,5.256358976701424046e-01,5.493586360141592406e-01
5.274717695232041814e-01,5.483806821819912081e-01,5.449878125474378887e-01
5.220615275289189894e-01,4.746502185851665390e-01,4.861401958824613234e-01
5.516184532767416382e-01,5.184128853853794405e-01,5.855426185774184056e-01
4.843232262744872618e-01,5.101765221149442420e-01,4.924447044681211083e-01
4.141798464014559977e-01,5.084412399290972884e-01,5.229924581498508473e-01
4.506550512335478764e-01,4.775241564536734096e-01,5.555700661499086701e-01
5.504204910615208002e-01,5.487130366532921855e-01,4.959615494250046996e-01
3.908092755017291142e-01,5.026698703233289933e-01,4.788885152898066933e-01
4.622352405563804889e-01,4.941660359537435321e-01,4.771783534897753309e-01
5.228498998692874267e-01,5.359035883928957578e-01,4.890231153755695281e-01
4.566916637683135494e-01,5.167886310551611517e-01,4.878595177045278453e-01
4.924700368300200526e-01,4.769192707162410727e-01,5.069664496309913559e-01
4.425060061272831358e-01,5.255038214793757989e-01,4.928907597565149179e-01
5.434040389823542316e-01,4.667019661682703657e-01,5.694691848866921813e-01
4.371004542245922608e-01,3.962271413058854330e-01,4.968430459692299017e-01
4.472603465121931521e-01,4.666142376899881650e-01,5.220279602148190090e-01
5.387686579035304568e-01,4.820927641577130718e-01,5.465953348456016325e-01
4.960869504058254553e-01,5.256453234894254978e-01,4.577882575557282729e-01
5.028581626903241286e-01,5.549671651214211909e-01,4.703452653684540019e-01
5.286443682786630127e-01,5.571486604034959766e-01,4.713228065542349743e-01
4.748699384331090956e-01,4.122098723073997495e-01,4.928345028200041833e-01
4.550940450346024901e-01,5.310428015212705910e-01,5.058181757562700831e-01
4.900413458555881174e-01,4.291604310191005078e-01,5.228985245829792516e-01
4.702202259814961538e-01,4.723878710617868681e-01,4.423604095838208905e-01
5.320271631169816162e-01,5.078579860641756483e-01,4.967609008233442869e-01
5.050723177320841639e-01,5.562533923807633229e-01,4.878587933679333077e-01
5.566701361050935271e-01,5.204715029570465834e-01,4.670133272096415045e-01
4.873280644608882772e-01,4.645640512633480435e-01,4.292736343670808252e-01
5.530550629300247101e-01,4.611637350679276270e-01,5.068360185976901189e-01
4.318400702907865818e-01,5.042923220827972841e-01,5.437674854513154798e-01
4.742391519136882061e-01,5.367395811265485150e-01,4.584291755917441757e-01
4.743660310970385097e-01,4.359071841626717680e-01,4.796258830970255294e-01
5.477682623262440931e-01,6.041434563542232850e-01,4.882857722217607277e-01
4.687634710595277032e-01,5.550123644972350112e-01,5.071070599170678372e-01
5.717842149063900870e-01,5.632222468350633893e-01,5.985124984871280640e-01
5.530760808314849619e-01,4.425706688735659977e-01,4.746789144669902316e-01
5.538329973415277996e-01,4.882305224341761951e-01,4.425485024902010012e-01
5.325802076941729135e-01,5.005271169129803521e-01,5.121674969139671241e-01
4.881878395863867293e-01,4.584288472747017895e-01,5.694908514067422711e-01
4.620230912900292197e-01,5.123734904604922979e-01,4.902861412160554599e-01
5.817588290995641120e-01,4.605432137457466935e-01,4.530122453458292342e-01
4.987610963559719890e-01,5.189292890453122142e-01,5.177149897618633645e-01
5.246235983056882768e-01,4.685228729633647560e-01,5.109480174672881292e-01
6.058369019755902585e-01,5.664526689024562689e-01,5.689988142969677476e-01
5.590646557521441462e-01,4.730302408413559756e-01,5.227580736949295481e-01
5.438253189507277208e-01,4.251322378629170951e-01,5.302669912218610504e-01
5.119460481599089618e-01,5.256235249660432540e-01,4.866459774172661734e-01
4.850908018452055326e-01,4.857433171570643693e-01,4.752551268277931951e-01
5.131348571980874906e-01,4.463763433423424964e-01,5.417551321265697828e-01
5.317653272933302588e-01,4.970815423528705534e-01,5.236767700884432664e-01
5.143842848206389151e-01,5.239195818555301143e-01,4.871264265867440990e-01
5.210799182296386167e-01,5.080539036271027875e-01,4.531965400530235666e-01
4.445373082802909215e-01,5.028386875810701984e-01,5.442933151445120687e-01
5.343559810110505293e-01,4.930914685883837634e-01,5.518473757823950665e-01
4.774927701534787405e-01,5.355027048726457295e-01,5.550390043360613479e-01
4.852698251009051056e-01,5.160253373926323439e-01,5.214149348466919909e-01
5.199975572194559525e-01,5.259341097150425082e-01,4.543673535984089629e-01
4.365568633723578285e-01,5.110105285266899333e-01,5.541092151404322097e-01
4.963934206373152858e-01,5.156071175304338672e-01,4.640273901875729412e-01
5.329801745159135073e-01,5.294512742203398847e-01,4.733957188665700588e-01
5.129924817485101984e-01,4.658894448102078867e-01,4.996933732844112130e-01
4.873001702004888802e-01,4.725121684366836994e-01,5.015216759277344449e-01
4.078086139299610391e-01,4.874076946548512312e-01,4.859904930982997251e-01
5.287463244441285015e-01,5.060343328993631706e-01,4.820502417185457134e-01
4.954583320575228211e-01,5.078034647279140446e-01,4.820928894114624996e-01
5.534896014068813042e-01,4.725313439072346133e-01,5.122094833574801775e-01
4.776404681785222373e-01,4.725249490225824078e-01,5.181803426847789718e-01
4.891057969844500031e-01,5.345525659191699974e-01,4.621296141705897309e-01
5.291861057970979054e-01,5.365699912457514431e-01,4.887991439699154173e-01
5.158333303304941664e-01,5.537645707369963644e-01,5.138412177860144370e-01
4.403280208635394488e-01,5.156517411888393854e-01,4.282816153206604470e-01
4.402404258066156539e-01,4.788510916550934859e-01,5.535294047823703378e-01
5.422903235727245530e-01,4.862806088543693006e-01,4.901574634346037018e-01
4.169178084177509458e-01,4.656052201122353185e-01,4.761728600018682589e-01
5.652104514832109183e-01,4.870693528284736895e-01,4.706280730371955046e-01
5.050653121779851151e-01,5.429497589553403669e-01,5.057664207845311566e-01
4.822384919087964184e-01,5.415184269620005875e-01,5.264911254672288710e-01
5.168218226779011104e-01,4.852353205472399456e-01,5.179255984358488440e-01
5.523820747079953852e-01,5.885739165098168302e-01,5.648931180818689279e-01
4.757206419882500370e-01,4.486752423523522326e-01,4.878221324091590594e-01
5.557714026319013900e-01,4.341252466520620912e-01,5.100940813854643041e-01
5.090340758715573566e-01,4.533820340589994613e-01,5.533830617999675461e-01
5.214053519179282503e-01,4.139994103415135518e-01,4.278506968025091450e-01
4.643399148089631390e-01,4.903140100288394532e-01,4.984386621524765637e-01
5.777637817449237101e-01,5.129329316914417181e-01,4.868332444379048773e-01
4.752290530218697406e-01,5.698860449654047367e-01,5.618871747391459559e-01
4.327699045741722483e-01,4.884836678099913065e-01,4.366543165993153064e-01
4.477880620030069703e-01,4.436777099377115507e-01,5.679654540190706147e-01
4.609282277817712825e-01,4.283085820429364809e-01,4.580571645454554752e-01
4.942558384781395864e-01,5.706756748074707231e-01,4.506213267638478071e-01
4.650723182048068227e-01,4.707679347536368186e-01,5.765277618986984765e-01
5.686425879745165002e-01,4.784372503988497671e-01,4.743320071096117085e-01
4.265024578234381525e-01,5.490732143795871156e-01,4.996224031766756113e-01
5.313071858446213325e-01,5.321969816233397266e-01,4.926403394914266043e-01
5.090068926453034104e-01,4.311394256853722240e-01,5.104594561759945304e-01
5.070897017238521487e-01,5.016557180748334455e-01,5.084481611999989159e-01
5.526600032883808300e-01,5.426150900871085092e-01,4.134180914587043398e-01
4.946742228822748610e-01,4.639747913280469760e-01,5.019035058755700884e-01
4.907894002763095731e-01,4.907545502272792626e-01,5.137160955397456208e-01
4.364422811657116541e-01,4.604928277019231797e-01,4.876105285426878821e-01
4.932927157541394658e-01,4.748318355628702303e-01,5.317989448844937517e-01
4.795986705343034950e-01,4.873788321800290313e-01,5.527527371973117720e-01
5.129266352987845723e-01,4.601728238824860928e-01,4.223960886031950523e-01
5.839782950843965814e-01,5.217966758952127249e-01,4.589243511615930804e-01
4.175928111157813372e-01,4.468780746733978515e-01,4.793528396826334803e-01
4.694985890291063502e-01,4.546997296613741191e-01,5.180142041181672319e-01
5.055047904801781566e-01,5.175111802108509629e-01,5.300911863914783417e-01
5.029125635334508182e-01,4.762984202527252298e-01,4.767315330436138754e-01
5.072377781802533958e-01,4.896313414706660039e-01,4.995898236767976619e-01
5.278133274620790960e-01,4.934673005659889200e-01,4.317792396265855981e-01
4.914764973648553803e-01,5.050619800742512933e-01,4.869016899286922051e-01
5.324059478427068948e-01,4.908540404011941249e-01,5.382289087892863089e-01
4.652732298680148371e-01,5.493768292460513569e-01,5.098278767462939287e-01
5.111123055534101400e-01,4.760230402764916713e-01,4.215421357810609782e-01
5.771213459703188331e-01,5.643561556728502460e-01,5.194649873116952143e-01
4.983055336633913091e-01,4.796632060135626041e-01,5.765941859406547021e-01
4.877157486139751530e-01,5.316862752521075430e-01,5.467000022130179548e-01
5.235641904808733260e-01,4.968636176364910617e-01,5.612082236101403332e-01
4.801852370151750149e-01,4.327524312167909115e-01,4.133198668053793545e-01
5.431691540624727921e-01,5.035808863336950214e-01,5.186258514656683083e-01
5.293061553653820583e-01,4.635693418309941305e-01,5.106116533954109249e-01
4.708199189437393684e-01,5.251347919718440949e-01,4.693178838787733786e-01
4.522608308147833545e-01,4.080271564160980469e-01,5.262989931352481943e-01
5.028461001339452618e-01,4.362776236191267532e-01,5.085013274543265238e-01
4.641015655131639495e-01,4.948481554276702443e-01,5.973163051668789469e-01
5.685477001708686418e-01,5.297455846213060537e-01,5.262201354463157399e-01
4.746710957608724080e-01,5.026256260653211294e-01,5.604809076474598362e-01
4.958477177995964102e-01,4.848982282287843115e-01,5.057001341063853683e-01
4.724692671212463724e-01,4.562556233399691630e-01,5.757850961560903036e-01
4.682051566749309557e-01,4.869940348988688328e-01,5.601459618264754692e-01
5.357657664128065989e-01,5.071862522382603045e-01,4.220593391220934798e-01
4.940302037699296211e-01,4.282168980117986856e-01,5.376384529457512995e-01
4.931705802333161137e-01,4.770077641032169913e-01,5.100962832395975477e-01
4.712871814143589355e-01,5.270118918939725727e-01,4.738634284263397722e-01
5.337068506653058764e-01,4.966060901575786168e-01,5.105279578755269609e-01
4.457732474086018026e-01,5.036598412458245244e-01,4.485383979091863149e-01
5.689340025677995794e-01,5.372396247634539934e-01,5.352515843893042025e-01
5.327294385865305459e-01,4.842053321701814128e-01,4.715388450850387936e-01
5.064667833764637805e-01,4.953964067055841580e-01,4.778198449643939472e-01
4.646179603674456815e-01,5.350698754785482292e-01,5.099815791663443454e-01
4.928165574452908482e-01,4.898816807790413730e-01,4.767373964971411415e-01
5.187413680104354663e-01,5.263869637659718270e-01,4.851221260758394882e-01
5.262763395339846717e-01,5.219981911060477264e-01,4.970305536102221922e-01
5.059714563977416590e-01,4.905367104874883699e-01,4.859662654930100856e-01
5.497843932563155622e-01,5.453938441278243232e-01,4.252678430774464724e-01
5.154406637665767121e-01,5.585310801529222990e-01,4.588474589199794673e-01
5.414569287062553915e-01,5.163730494693714590e-01,5.182162722808499877e-01
5.009757059044384064e-01,5.300567633034676263e-01,5.201474742395487683e-01
4.726070908147196326e-01,4.921019082630372354e-01,4.795466805061618376e-01
5.393753453776239937e-01,4.712879145546425841e-01,5.412141473077792808e-01
4.780685210221070625e-01,5.107495484529945839e-01,4.609175385258825197e-01
5.242939168847385867e-01,4.751463219830772688e-01,5.209827029754422467e-01
4.994083424236332447e-01,4.443935792861004042e-01,5.026619245864136776e-01
5.771897211379072301e-01,4.347799995407645168e-01,5.632037002845303730e-01
5.245068622501433131e-01,4.287963329028792181e-01,4.594786275890294647e-01
4.816307400140779627e-01,4.499541313578526158e-01,4.833873416490583885e-01
4.616373175101585735e-01,4.810508874917543420e-01,4.445729437697380493e-01
4.481362611251880623e-01,5.092834736794300543e-01,5.402023184402733325e-01
4.264649095814536661e-01,4.765274863571729580e-01,4.763601829304993096e-01
4.120040325602115638e-01,4.501361615533795990e-01,4.420874981200051401e-01
5.791576890564202884e-01,4.658133520298963770e-01,4.636865708633318706e-01
5.944807748565131833e-01,5.382660263001006751e-01,5.593569818370079938e-01
5.244020244635507755e-01,5.259302505430480945e-01,4.733862138955270971e-01
5.010753016025928375e-01,4.745610607372305334e-01,4.843221130261112783e-01
5.010293187472706355e-01,5.381375032439715822e-01,4.951059827708651495e-01
4.531006438710872830e-01,4.917708687279466750e-01,5.061654240316917353e-01
4.796692453831338243e-01,4.550456744940300502e-01,5.705922423417147948e-01
4.789168808003557154e-01,5.346297530829045019e-01,4.861602901715555980e-01
5.827201538005573056e-01,4.596079001480103954e-01,5.426314821017089729e-01
5.338721812070237327e-01,4.954917242685857870e-01,4.686043695545780152e-01
5.881538142195349428e-01,5.760261927518587344e-01,4.358747024811595039e-01
5.285522196540907158e-01,4.435904580207771786e-01,5.277894931652757915e-01
4.775031530817431813e-01,4.516198916929357043e-01,4.787854238773383564e-01
5.762583682565058929e-01,4.652285932494472642e-01,4.937128843832728209e-01
5.941750112572069531e-01,4.924990311466634907e-01,4.720329282880926791e-01
4.937129425898627022e-01,3.762724221071914732e-01,4.715528559959962229e-01
5.305475806741737355e-01,4.862922313190835011e-01,4.526924972735094088e-01
5.056313444872462259e-01,4.989018907539972680e-01,5.094127853796140970e-01
5.041714293543128056e-01,4.593473711790561076e-01,4.831404480781038013e-01
5.163656768451535539e-01,4.119144362673173299e-01,4.887803552324541667e-01
4.872543094779965833e-01,5.330071261198807697e-01,6.167943557512336472e-01
5.228460199998318236e-01,5.633355231472068070e-01,4.915789634614551318e-01
5.001216551939531296e-01,4.980414246171741000e-01,4.799321404120548973e-01
5.357993475419016161e-01,4.517873472301202065e-01,5.309303782196058696e-01
4.617951797861117869e-01,4.156523651476402570e-01,4.672118564224497228e-01
5.260026207695226441e-01,5.620508910016629445e-01,5.393525799456611036e-01
5.154834267531223091e-01,5.793141612548803332e-01,5.417062714654005129e-01
5.339664235376441193e-01,4.356292843282251748e-01,4.474949672894599773e-01
5.234362814113274753e-01,4.859404789755038534e-01,4.835566627197210865e-01
4.643151392180000503e-01,5.401612957414868577e-01,4.831194541955977639e-01
5.295643240617162739e-01,4.688557793902040083e-01,5.333148292915173005e-01
4.757138880600484954e-01,4.680834125230995957e-01,4.970001736120910341e-01
5.098345534848259808e-01,4.959018268135287344e-01,5.151094560898944463e-01
5.273629683954420555e-01,5.516012904734957090e-01,4.816177294130771780e-01
4.881797633579073037e-01,4.315282037884866084e-01,5.340070063484041452e-01
4.283082646867135690e-01,5.901725231615422285e-01,5.174988603551732291e-01
4.915006570693521426e-01,4.186894496578649205e-01,4.781749626443779211e-01
5.189168780090752664e-01,5.059160503264716890e-01,5.343441846634684467e-01
5.530435074387345384e-01,4.619140979880369535e-01,5.046991654537423821e-01
4.911137819197261556e-01,6.260654599168791190e-01,5.157211095600545692e-01
4.922241134625794379e-01,4.816814932579384645e-01,5.101795245960190073e-01
4.604698109846424026e-01,4.099875546314480368e-01,4.606660864451407877e-01
4.310101109386637597e-01,4.896255639554167316e-01,4.734636800944962975e-01
5.242067569194017729e-01,5.827624868722478535e-01,4.809147263845133802e-01
5.019569121767056830e-01,5.041750664217402589e-01,4.350591843041951012e-01
5.089257867009642222e-01,4.779498408698741319e-01,4.949785089837093754e-01
4.942912628759739690e-01,4.812498972802128905e-01,4.972286418113661122e-01
5.029039474304162205e-01,5.431791973936532791e-01,5.221050567886805771e-01
5.251578983261669942e-01,5.403542793685479628e-01,4.779172749056131431e-01
4.606093799703683822e-01,5.651126259943192176e-01,5.191766952687200121e-01
4.675490599196518993e-01,5.282229093592141211e-01,4.925390707851391991e-01
4.696753983741970839e-01,6.070801584994928168e-01,5.241446540440843904e-01
5.342444009329623267e-01,5.392792164761120999e-01,5.066209919291940755e-01
4.304325787236533141e-01,4.673192091969896045e-01,4.690302227379760658e-01
4.739795778049814001e-01,5.653225037604820979e-01,4.820815437391977598e-01
4.931348222531027337e-01,4.551756887361103066e-01,6.068753037124826610e-01
5.362644381019324724e-01,4.670160498177958752e-01,5.056417261478086678e-01
5.777087644000215017e-01,5.041134239350935076e-01,4.911735208559163679e-01
4.681113437641907238e-01,4.122634754983763306e-01,5.310132934993435638e-01
4.950199744961911175e-01,4.345072554367023221e-01,4.796735634307745522e-01
