accel_x (m/s^2),accel_y (m/s^2),accel_z (m/s^2)
-4.611048807415724093e-03,1.667186649832768730e-03,-9.792271549678329023e+00
3.439057498736180097e-03,3.485580061607237816e-03,-9.800025038049646753e+00
3.616212347155277340e-03,1.626459672435715854e-03,-9.792661530783915325e+00
1.671614364780766877e-03,-9.947526013117578142e-03,-9.790724142537660768e+00
2.842314228616421232e-03,-4.056505931644993970e-03,-9.797201158162909707e+00
5.942584548693203607e-03,-6.651513066331676653e-03,-9.797749695891974753e+00
2.616751738279341367e-03,-1.017194630562194904e-02,-9.799544863369236580e+00
-1.350281797094956930e-03,-1.400138248639711501e-02,-9.794285866465640922e+00
4.486408135468623187e-03,-2.358551436862056649e-02,-9.807512513691305500e+00
-1.759239012917894734e-03,-1.518674867891841446e-02,-9.790277791837505461e+00
4.107722370683135511e-03,-2.990982632811554909e-02,-9.801238168641280168e+00
-9.386376159578385323e-04,-3.091678146950013750e-02,-9.798637036696161928e+00
-3.125933522491640675e-03,-3.227189390857107543e-02,-9.800298099163354593e+00
1.102544261065407146e-03,-4.562603746937812094e-02,-9.783077845076389778e+00
6.175206736387223692e-03,-4.773691790444953287e-02,-9.787079187430199667e+00
2.865508596351020766e-03,-6.351311403500027597e-02,-9.790588687977603399e+00
3.061575759969700425e-03,-5.994672911631378914e-02,-9.797854784406494488e+00
4.007865503515655597e-03,-7.570918008278851308e-02,-9.799289730347650718e+00
5.593488645927966471e-04,-8.177156796496629076e-02,-9.793662299278489414e+00
2.212968574795741439e-03,-8.911789495011378237e-02,-9.792863561425161123e+00
-3.945214043088627991e-03,-1.073394536847343261e-01,-9.791305981030371086e+00
-2.155834977562937418e-03,-1.082525541718393075e-01,-9.790579591006792981e+00
-1.432343639288159503e-03,-1.233778376122496301e-01,-9.788571578501361614e+00
3.052037330389101126e-03,-1.379417019022218804e-01,-9.795466021289401581e+00
-2.982525167539538426e-03,-1.431868912633389446e-01,-9.779833000560222089e+00
-1.484307030243580024e-03,-1.641064140386098713e-01,-9.784162789213940670e+00
2.517388280124125896e-03,-1.679262630748102614e-01,-9.797883934963095953e+00
4.128086474700224003e-03,-1.781661212070649591e-01,-9.792555208043188131e+00
-3.560800466929540421e-03,-1.976542290323062834e-01,-9.788988387784705480e+00
-2.027233744845398714e-03,-2.086360987364550001e-01,-9.788213877468979973e+00
-8.566841066320333292e-03,-2.185169759752401131e-01,-9.789369707186635239e+00
6.263813608864826632e-03,-2.373250537166485818e-01,-9.784855279445469733e+00
2.969697416657271494e-03,-2.657141496883528853e-01,-9.797906087902093830e+00
6.839713620617637879e-03,-2.753492335210827591e-01,-9.789748502197863189e+00
3.945938832009793056e-03,-2.871290196092631253e-01,-9.792319665455396560e+00
5.247130555192301878e-03,-3.125619756122258175e-01,-9.796202701634914689e+00
5.770827260689021659e-03,-3.392307536282230807e-01,-9.790285629895047137e+00
-5.449625780208479896e-03,-3.507747070612858287e-01,-9.789219041842315505e+00
-1.371673641502996460e-03,-3.549884546761356008e-01,-9.780576656648136691e+00
-8.945784754392170288e-03,-3.844449694989876543e-01,-9.787981028380430715e+00
1.519419200122779177e-03,-4.067913026879735328e-01,-9.779746088664262871e+00
-2.483014655138834643e-03,-4.231892036910188115e-01,-9.788193597373954447e+00
3.290184785364761106e-04,-4.465728500398254974e-01,-9.781447941143660785e+00
9.558220357657725569e-03,-4.716972373399241358e-01,-9.785208317677623668e+00
-3.057641431903780800e-03,-4.809036892511679984e-01,-9.777117863299819689e+00
1.973171136381525557e-03,-4.998572810242911668e-01,-9.774906902647048312e+00
3.748776010967161745e-03,-5.380003354423732453e-01,-9.787735890691939389e+00
3.420063678641492924e-03,-5.533683817145113037e-01,-9.774864231509923229e+00
-3.420345833447440819e-03,-5.757628479745892092e-01,-9.775858287067809016e+00
9.131672876688047211e-03,-5.906092239177306302e-01,-9.779608396898387568e+00
1.103565425648518443e-02,-6.251006191644875587e-01,-9.764928552166795228e+00
2.715184696098581815e-03,-6.460129281406034041e-01,-9.765389206819964585e+00
-6.869217338243896812e-03,-6.737360390678576172e-01,-9.769155738287953028e+00
4.536294303299228899e-04,-6.928978939350356470e-01,-9.769537793629668343e+00
2.913539553122617733e-03,-7.223705395297349563e-01,-9.766980029298091281e+00
3.450152120805286080e-03,-7.564528926777015494e-01,-9.763568605090613417e+00
-2.700157469375000577e-03,-7.842863346191389917e-01,-9.756956329104738757e+00
1.262880406628952637e-02,-8.054080888473682531e-01,-9.760104839415847167e+00
4.563279932443956195e-03,-8.390852643970766467e-01,-9.760008479796258740e+00
-1.084739517003663768e-03,-8.666145654595139858e-01,-9.760615630383915331e+00
4.701940623263348856e-03,-8.997419971716609233e-01,-9.763326139420613003e+00
1.398358395135897462e-03,-9.172388869449500381e-01,-9.753278042112734525e+00
7.848301895750383174e-04,-9.498216032981732226e-01,-9.746038051719722262e+00
-9.293724454264054927e-03,-9.880349789479969669e-01,-9.743919534237326374e+00
-3.116687633842859205e-03,-1.010188237664032540e+00,-9.742858411908665417e+00
-6.944887658674671511e-03,-1.054051809458697919e+00,-9.738937005135747782e+00
1.118893688075949661e-03,-1.073081217588962355e+00,-9.726609012091490314e+00
7.627366923350416966e-03,-1.112935792408908275e+00,-9.726882889076899019e+00
4.296618736479346570e-03,-1.142327310433032039e+00,-9.726852985873701840e+00
-3.375294170846901767e-03,-1.178198865774612081e+00,-9.716970491912848118e+00
2.233295964352828653e-03,-1.210742128054072664e+00,-9.718889381976072883e+00
1.525461398353624484e-03,-1.252387755266885394e+00,-9.718754516397998700e+00
-1.780826859426017008e-03,-1.289892129143454413e+00,-9.708862060089110457e+00
-4.046058146603883493e-03,-1.323309993743440716e+00,-9.702755869589140048e+00
3.035921894589378289e-03,-1.356670305706342283e+00,-9.704374346543410468e+00
-2.180259669563910973e-04,-1.384500973443119731e+00,-9.697685670175282269e+00
1.482201461755334147e-02,-1.431159655512925566e+00,-9.686052042818468877e+00
1.420755715790799571e-03,-1.466854537629373789e+00,-9.676977841155762761e+00
7.653299142648289574e-03,-1.512104904385819903e+00,-9.678589250963375079e+00
-2.312917688169977871e-03,-1.544175066405224728e+00,-9.661502304279071751e+00
1.668196546173958102e-03,-1.573032256089555547e+00,-9.662058256639944887e+00
2.356972709742081659e-03,-1.620445729913704280e+00,-9.656820287354420884e+00
-5.666628572968420048e-03,-1.659178437949318630e+00,-9.654946818014586540e+00
1.087237005554768680e-03,-1.702239650275793492e+00,-9.648380791763107922e+00
-2.225591709618633240e-03,-1.736333515158267726e+00,-9.634880452078641966e+00
-8.376926643579203635e-03,-1.781009084391387276e+00,-9.629576778250374502e+00
-2.663432050772070007e-03,-1.829485383353902872e+00,-9.610805187693818752e+00
-3.606097740502195101e-03,-1.864490096445852174e+00,-9.614564735330258571e+00
8.141149448045148160e-03,-1.907652510015463987e+00,-9.605229671970903382e+00
-1.402810523837926156e-02,-1.949984149439389247e+00,-9.606636594733132029e+00
-2.623358616502532732e-03,-1.991558527568954684e+00,-9.588823024762490377e+00
-7.100962646026855868e-03,-2.042347762548434531e+00,-9.584749723138918043e+00
5.432929042217770049e-04,-2.080977211632294654e+00,-9.574189590621795531e+00
-2.996297776642736430e-03,-2.120411721882853762e+00,-9.550785135949835691e+00
-5.127817738957192971e-03,-2.170663775921403360e+00,-9.546655493438711559e+00
4.844773930237672617e-04,-2.214289354557042788e+00,-9.535371312676844013e+00
7.826612644659688631e-03,-2.260913696353972657e+00,-9.525526069978814903e+00
-1.743071419383071790e-03,-2.304340951900041290e+00,-9.528748665791333394e+00
-5.292207752847482433e-04,-2.353051514825789337e+00,-9.515563426031185656e+00
-1.276744917209422792e-03,-2.410754940545941416e+00,-9.500353865522386698e+00
-2.993512659604244310e-03,-2.439952856473882381e+00,-9.486563613021150587e+00
2.062190843439841610e-06,-2.493059983971883220e+00,-9.481468075072820412e+00
-3.307964430666340307e-03,-2.542133030608094035e+00,-9.460497880452901853e+00
-3.396216183159900519e-03,-2.596217381771683375e+00,-9.434126695529625906e+00
2.892589444233972622e-03,-2.635670230065481512e+00,-9.427565427427422762e+00
-7.674899401716520943e-03,-2.695688998452234308e+00,-9.419915958712580917e+00
-9.535657446582914863e-04,-2.736433768451664861e+00,-9.406088242451597026e+00
-4.990877191446067666e-03,-2.788124645337585861e+00,-9.390747265532292332e+00
-4.514951933259443370e-03,-2.846452776586049893e+00,-9.367294981649383345e+00
-4.219698766002130024e-04,-2.894564281063700228e+00,-9.355146735169661554e+00
-7.089489740663212219e-03,-2.941031453369531867e+00,-9.344932727400557582e+00
-1.715388302052272499e-03,-2.996716326744265579e+00,-9.331948035068528213e+00
2.819002005301523683e-03,-3.046628078617137358e+00,-9.310570213557440411e+00
5.872954495088778676e-03,-3.102341433688553085e+00,-9.285540136556397428e+00
2.906557249402294107e-03,-3.152662191213842391e+00,-9.262671669046845579e+00
6.295280835427449762e-03,-3.209007329957962895e+00,-9.249214171727814460e+00
1.180775767334600601e-02,-3.259996039678463298e+00,-9.233854337835769144e+00
7.842221647901770560e-04,-3.318935174551926881e+00,-9.213549931032934737e+00
3.440793117455918405e-03,-3.371259716311430399e+00,-9.192100728507289986e+00
-1.600038464259541859e-03,-3.419867078726183784e+00,-9.178057238917144645e+00
4.772648382911130749e-03,-3.479215631885902660e+00,-9.156680450059088372e+00
5.265231999477548025e-03,-3.525501446043073361e+00,-9.132759604768947881e+00
2.383082923483057728e-03,-3.582875616782156492e+00,-9.111123723754465331e+00
5.864604002478629972e-03,-3.643397476357590925e+00,-9.092856997273155883e+00
-1.129896730886491112e-03,-3.694032492613201324e+00,-9.065534333453355131e+00
-9.946730384652187687e-03,-3.747731060986438489e+00,-9.048335915680024044e+00
8.763709052365960261e-03,-3.791512783580404111e+00,-9.021633292633934431e+00
4.913766633722671312e-04,-3.850872321244797281e+00,-9.002608878136275194e+00
-1.934592427855061011e-04,-3.907791082434747487e+00,-8.985608886782353366e+00
-6.167249836244542878e-03,-3.967492575482587824e+00,-8.954348388377445289e+00
-3.833203116077156872e-03,-4.011906084580334486e+00,-8.943233293412985674e+00
1.246342455761935940e-02,-4.058385547621192302e+00,-8.911591441589539642e+00
2.315097155811809103e-03,-4.110217773254526641e+00,-8.889145485271097158e+00
-3.047321773524970610e-03,-4.172475757831600518e+00,-8.864907753098298926e+00
-5.350054619356179111e-03,-4.223502879188373527e+00,-8.844462512462458292e+00
5.474681683840461159e-03,-4.265835882583591143e+00,-8.817579341446922570e+00
3.032613046869768458e-03,-4.320476746373500099e+00,-8.802804868318617082e+00
-7.053922685368118175e-04,-4.369088083257620880e+00,-8.761685780997687800e+00
-5.307081573537820486e-03,-4.418823608938035719e+00,-8.739540803547710013e+00
1.118798548729533875e-02,-4.469563873386215747e+00,-8.716809787117117736e+00
2.928194701991956167e-03,-4.518407819594241204e+00,-8.687686610770006368e+00
-3.780169173125551545e-03,-4.573525466948049178e+00,-8.659083684701842643e+00
-2.651418369580387999e-03,-4.613995689102371678e+00,-8.636515277634053689e+00
-1.894370989208861780e-03,-4.667596296154486346e+00,-8.612594097667049198e+00
-2.279690969961757629e-03,-4.715821126936629248e+00,-8.585352358629585012e+00
-1.244781857467253811e-03,-4.763508802762031813e+00,-8.552321630283740816e+00
-4.862546270413778751e-03,-4.809392299360265355e+00,-8.529012379504194996e+00
1.852899161489775411e-03,-4.857704142381880530e+00,-8.499856200079593194e+00
-1.640271131970811452e-03,-4.905839311274492687e+00,-8.466834892539779389e+00
1.722712577651942171e-04,-4.948422328542736004e+00,-8.451468399173545976e+00
3.606250727121364935e-03,-4.990729202407127474e+00,-8.422798187298839778e+00
1.142943707049080739e-03,-5.045371685009166995e+00,-8.394679671109996022e+00
-2.074810402385176677e-03,-5.080963447485641105e+00,-8.367817885856524640e+00
-4.334380586636130822e-03,-5.133103992150352290e+00,-8.332389631861110146e+00
2.749260105709520896e-03,-5.177737061888892711e+00,-8.316344359761684402e+00
-5.783482770541574502e-03,-5.217315107759635140e+00,-8.289685822196233289e+00
-5.183488540080263482e-03,-5.263213223816681108e+00,-8.259723267423186854e+00
4.918189381302588356e-03,-5.315893456368516290e+00,-8.231703331221426723e+00
1.464094656106714083e-03,-5.342364676495994225e+00,-8.206934238917526159e+00
2.162726353876899370e-03,-5.392863389098177862e+00,-8.173966342415965869e+00
4.633429460038422827e-03,-5.438713328924916546e+00,-8.155631851001363231e+00
4.090791631930082786e-03,-5.468596494036692235e+00,-8.118418127101021398e+00
-4.084073651045504964e-04,-5.514471486548562673e+00,-8.090017979509262602e+00
4.686433474374274502e-03,-5.569191114872459103e+00,-8.070315346505019249e+00
-2.041769021794607487e-03,-5.605282406473588885e+00,-8.034218656334696007e+00
-3.675195127545822452e-03,-5.645619308340429576e+00,-8.012466999298748505e+00
-2.355436671356776410e-03,-5.678465125743033859e+00,-7.982617850892757438e+00
7.675130189331396541e-03,-5.719566026905099854e+00,-7.957598183894778465e+00
-3.653014256193424982e-03,-5.762377138035623680e+00,-7.907497171139000969e+00
-1.622139208585476455e-03,-5.792379678300730639e+00,-7.886733387762901337e+00
5.405888720848117494e-03,-5.838998927799603500e+00,-7.855282104002779597e+00
-3.066586601854223194e-03,-5.872865657649188442e+00,-7.834609606012946870e+00
3.380419765764919315e-03,-5.916681207204899096e+00,-7.803027458601158983e+00
-6.363386839630303824e-04,-5.957883774815624811e+00,-7.778489633274002557e+00
3.436253533029771587e-03,-5.991893167243621754e+00,-7.749014705548848525e+00
7.386745683994205142e-03,-6.031944744694463623e+00,-7.714443233371886421e+00
-2.750113798334705411e-03,-6.056683493736404245e+00,-7.694836067299904769e+00
7.155922860665577326e-03,-6.097360943388464349e+00,-7.665500664321028168e+00
-1.085764330199248066e-04,-6.133670857555363121e+00,-7.627353370086773943e+00
-2.664123407659318207e-03,-6.165809190141110285e+00,-7.603835014114189050e+00
1.316835252444302148e-03,-6.201953119225486866e+00,-7.589380645401162973e+00
-2.387272564074579325e-03,-6.243270392555014148e+00,-7.553341901579534223e+00
8.501769006094273690e-03,-6.281219449928822307e+00,-7.523969019859935159e+00
-7.889514823798302393e-03,-6.313827590690023861e+00,-7.485948642384468776e+00
-5.679040471194642982e-03,-6.336898001785459478e+00,-7.457730054692102151e+00
-1.217441824874872063e-03,-6.385156867518216650e+00,-7.422976036622527474e+00
5.327569890603713054e-03,-6.414975590513320114e+00,-7.395649402538068351e+00
1.337583902839100183e-03,-6.445584670150857676e+00,-7.368058186305418644e+00
3.726885225541903823e-03,-6.480114213081970220e+00,-7.345883345768890571e+00
2.893767549425248567e-03,-6.515678717116319518e+00,-7.308789311747966977e+00
-5.282797623010025180e-03,-6.538390032806661978e+00,-7.290656113309065489e+00
3.443304247948392183e-03,-6.573608877717814991e+00,-7.262542399327453602e+00
-3.527610648454675406e-03,-6.609640616579173233e+00,-7.224406730508841967e+00
-5.008741527059274411e-03,-6.636303657093159281e+00,-7.201692856988540115e+00
-4.207568909089892846e-03,-6.666449839170407010e+00,-7.158367536191134306e+00
1.596719800888150853e-02,-6.699177835066564946e+00,-7.142726240989329511e+00
8.762971683899162603e-03,-6.724231004025143399e+00,-7.110511285350614052e+00
-2.106718731942474991e-03,-6.762920495052656911e+00,-7.083719859101854865e+00
1.128532020575632793e-03,-6.795964521845418993e+00,-7.057885062324428027e+00
7.063800225604913510e-03,-6.823400833587982994e+00,-7.027061918683469521e+00
-7.441226248622128097e-05,-6.845976636387233860e+00,-7.000168505273040687e+00
1.140900757704536080e-03,-6.879441937548363306e+00,-6.965841300823135462e+00
7.569752197448493874e-04,-6.910623895332244082e+00,-6.939746275739970827e+00
-8.282041412942359963e-04,-6.926052264971733763e+00,-6.904561246892512827e+00
5.724078314117292572e-03,-6.974352241432244526e+00,-6.878444078236268133e+00
-7.493440566615826824e-03,-7.002966086816283742e+00,-6.861502933036324414e+00
2.968633013134907260e-03,-7.015562805753674525e+00,-6.825108638828477403e+00
7.522167951027432763e-03,-7.062542320546450370e+00,-6.804589042938287591e+00
-5.856665022276611593e-03,-7.076091299725348449e+00,-6.771945598355140206e+00
1.936642308638661424e-03,-7.112030496362071297e+00,-6.746218892455086547e+00
-8.568082382390386151e-03,-7.136030115262158802e+00,-6.721785182083512389e+00
-2.050036136739114695e-03,-7.151216958048919103e+00,-6.689281950796967635e+00
8.358413646146580552e-04,-7.179415769775944867e+00,-6.659051860735123007e+00
9.844743713674598135e-03,-7.207450847360170165e+00,-6.631761483215183439e+00
-1.625714478312075386e-03,-7.250112751020479251e+00,-6.605849850001157542e+00
1.305538115831318896e-03,-7.261568923422704991e+00,-6.578898989696055466e+00
3.935840770773543643e-05,-7.293486912180632942e+00,-6.546801086408707171e+00
-5.143484125579732627e-03,-7.317086781105957449e+00,-6.513153701634050385e+00
-9.506892744371548201e-03,-7.328122284930315367e+00,-6.481363906450458678e+00
9.600797698878164865e-03,-7.365848076190056659e+00,-6.456094721182954466e+00
1.574766080291054634e-03,-7.382964667985186580e+00,-6.442039823107634788e+00
-1.423444878121837235e-03,-7.401629304395144437e+00,-6.403185600835394453e+00
-2.072069911244122861e-03,-7.438554680231749927e+00,-6.371712500869873175e+00
-6.190936418751932183e-04,-7.460524819314839462e+00,-6.349402818813040916e+00
2.296123466379344715e-04,-7.485010073649865703e+00,-6.321470842197570050e+00
3.361879350796043164e-03,-7.506262066149934853e+00,-6.277241057988821815e+00
-7.818447433541514391e-03,-7.529820194974187864e+00,-6.260375220368214144e+00
3.760856061686152201e-03,-7.552642144620388187e+00,-6.247873831918576926e+00
-2.294050124627727144e-03,-7.571641821610198164e+00,-6.214555953542705957e+00
1.442002404410674954e-02,-7.591021922241560027e+00,-6.190200149612725689e+00
-5.909811471829107959e-03,-7.620698333439048788e+00,-6.158805659353826734e+00
-8.447403930369818325e-04,-7.640353845750453843e+00,-6.129002420768262738e+00
-4.908024854358836696e-03,-7.656604332834893611e+00,-6.100401171973372172e+00
3.267541709999770456e-04,-7.684413088107236334e+00,-6.077886820111457311e+00
8.885763307164031705e-03,-7.703267810401837501e+00,-6.047428909521651796e+00
1.567706902544869444e-03,-7.717871233264684605e+00,-6.015456517222041555e+00
-1.144525118727227021e-03,-7.743098703870176180e+00,-5.986262234721202447e+00
7.304522550435297960e-03,-7.760107759363967794e+00,-5.974093699219007902e+00
-3.558072932623322117e-03,-7.783522519025415143e+00,-5.941863491123139163e+00
-1.653597222862608065e-03,-7.816781575577304686e+00,-5.904583004213763253e+00
-4.415103913875412060e-03,-7.830966653757027274e+00,-5.888260729164596086e+00
-6.750372500850286735e-03,-7.847822923209240464e+00,-5.857792058271627411e+00
1.031100879355290479e-03,-7.864446822464876696e+00,-5.828625022531173983e+00
7.477651729659092784e-03,-7.887795815169710067e+00,-5.812972087360424034e+00
9.616685997502776376e-03,-7.904996883040801947e+00,-5.781702601587759283e+00
6.480367963529003010e-03,-7.923214140499435842e+00,-5.760615449698655688e+00
2.060709084137225377e-04,-7.944733370090353297e+00,-5.731380876015839121e+00
-2.564523474716990086e-03,-7.952432583068436145e+00,-5.705528658832609068e+00
1.996010336491954411e-03,-7.976178924004656778e+00,-5.669454660959788228e+00
-1.190704237150865897e-03,-7.994403349073711418e+00,-5.648228248446629962e+00
2.360778815892440857e-03,-8.024409515824443062e+00,-5.623111885770336826e+00
7.759134506301560569e-03,-8.037587146291633289e+00,-5.604242757120063700e+00
-1.760534866424869798e-03,-8.055134731395236614e+00,-5.568935248591074583e+00
-5.854200486287695383e-04,-8.072535266970374934e+00,-5.544446085719270556e+00
-1.359278242944961419e-02,-8.087339150893743778e+00,-5.516707782240815483e+00
1.550318056461741931e-03,-8.112076686955532523e+00,-5.502365106264011985e+00
-3.038002536072678152e-03,-8.121765762538169398e+00,-5.467631507056112561e+00
-1.304905293915555606e-03,-8.139095947888296934e+00,-5.450247699724580563e+00
-6.796502893459586102e-03,-8.158994513214244293e+00,-5.421340586864237920e+00
-1.004723378449658665e-03,-8.184263322020600029e+00,-5.401093188695266889e+00
7.487157226082804748e-03,-8.185955282123769550e+00,-5.378191949581087705e+00
9.523643699011213751e-04,-8.206219377486611677e+00,-5.346091713530941369e+00
-1.775603459251817078e-03,-8.225459095445579294e+00,-5.314142740880978266e+00
-3.878846440787339818e-03,-8.237551383292034402e+00,-5.293737755754567509e+00
-1.437882590623946154e-03,-8.249672200309701608e+00,-5.272283760163195332e+00
-2.222534482392351293e-03,-8.270841624972932848e+00,-5.243601548544888580e+00
-1.851085298321771292e-03,-8.281708615221752723e+00,-5.227022165178620838e+00
4.376387627509203265e-03,-8.301098251700201658e+00,-5.209303500264621967e+00
7.218678153709630167e-03,-8.316397132481682775e+00,-5.172939599490659290e+00
-2.487971549859240017e-03,-8.333140782055981077e+00,-5.146452546804493267e+00
-3.874535428672816560e-03,-8.350884422759079939e+00,-5.120716424982207471e+00
1.508579932847856943e-02,-8.362992650100379066e+00,-5.110977100986762167e+00
5.856189145556687072e-04,-8.364477162819341061e+00,-5.074185953392990278e+00
2.736105322950134911e-04,-8.386548404653829891e+00,-5.059396574255738521e+00
7.510855463796492840e-03,-8.404145358274817568e+00,-5.034440104422862383e+00
-3.868405613188970193e-03,-8.415039949678254416e+00,-4.999078163116333684e+00
2.010570397879387142e-04,-8.431194168074394923e+00,-4.971093569424223979e+00
-1.078005904915766170e-03,-8.454082593282876701e+00,-4.964180495188864839e+00
7.001923466020393456e-03,-8.460160479712047987e+00,-4.932709999092659281e+00
-6.031044637498755336e-03,-8.477557300221960190e+00,-4.920408387617904111e+00
-5.918499580349225950e-03,-8.485830493972354560e+00,-4.894889813098836306e+00
-3.981554447048019259e-03,-8.496360307469565498e+00,-4.863827415699736534e+00
7.582575630551266401e-04,-8.517900904211405333e+00,-4.837308887863031259e+00
-1.360879306270894231e-03,-8.526075376453778887e+00,-4.815548244785322396e+00
3.939168963633426146e-05,-8.544275421276106286e+00,-4.786591150620128410e+00
-5.524135298148215648e-03,-8.544415414435718503e+00,-4.765430930112015240e+00
4.111637216725689929e-03,-8.553568722745852781e+00,-4.749666906288458890e+00
4.558818045770511584e-03,-8.577295598316064584e+00,-4.726495823575294075e+00
-3.744581023784246138e-03,-8.591353366262252322e+00,-4.696203833421399132e+00
1.631250423603572463e-03,-8.606653453310746826e+00,-4.679043757136544635e+00
-2.213241473700619652e-04,-8.616859016946730065e+00,-4.651147715555416617e+00
3.258084404742392880e-03,-8.632308369113012247e+00,-4.639090885695385857e+00
8.039980630410196658e-04,-8.638451529222887615e+00,-4.612299255214057148e+00
1.830007782019455733e-03,-8.649430823431085713e+00,-4.598938772275933395e+00
2.992096119912100727e-03,-8.665748388552065862e+00,-4.567374544437578621e+00
-1.815355426236746252e-03,-8.669935441905741058e+00,-4.554055980946898785e+00
-5.476566843236269425e-04,-8.688429946316032826e+00,-4.534045120145309582e+00
2.101885047575078594e-04,-8.713268313821524558e+00,-4.505969402854825390e+00
4.816595581087788902e-03,-8.707543666507840285e+00,-4.487479677735781713e+00
-8.684514504742229732e-03,-8.720315806650257073e+00,-4.463530391128312402e+00
6.668354369132053518e-03,-8.729555168722372471e+00,-4.439260396272911358e+00
-3.129791447543685094e-03,-8.737890206447376684e+00,-4.417279196582343914e+00
1.182519492740071072e-02,-8.758322374266482413e+00,-4.397390821478972533e+00
-2.886466368433603363e-03,-8.759969315776793053e+00,-4.379334190211483957e+00
-7.218437571588777035e-04,-8.767939171781462093e+00,-4.350237238042528709e+00
2.104154539961028587e-03,-8.787149287916838247e+00,-4.334995069207623786e+00
4.116763177031564601e-03,-8.802252296788527275e+00,-4.319348358021708023e+00
-4.832830183499224261e-03,-8.808708367836754149e+00,-4.283801466160405802e+00
1.077669970473737896e-03,-8.821016407638365919e+00,-4.272144906828953204e+00
1.568558354715048411e-03,-8.827864888422153555e+00,-4.255901861861436153e+00
1.916635302314767270e-03,-8.834612231803971483e+00,-4.222071871703986012e+00
4.025588572615411225e-04,-8.838100149234026759e+00,-4.199221437608743557e+00
-5.360174463077381664e-03,-8.848176859414957462e+00,-4.179777621578227631e+00
3.799819602418844696e-03,-8.857518564017075491e+00,-4.166170728366794584e+00
5.896683070705698894e-03,-8.872724009918259824e+00,-4.143902904055432046e+00
3.547182784674837871e-04,-8.886003240086331800e+00,-4.114614681927979412e+00
-2.286117757159943954e-03,-8.895258222946962334e+00,-4.104091082923758904e+00
-3.371906016234570147e-03,-8.890337884033149507e+00,-4.077699404124374816e+00
-1.112321321292206698e-03,-8.911871864749327798e+00,-4.072051313090648605e+00
-4.183340295123459326e-03,-8.917979299993181286e+00,-4.049990818089893807e+00
-9.709796640191250194e-04,-8.930303110193040794e+00,-4.020073923942626415e+00
-5.890573752085394039e-04,-8.939295196077539529e+00,-3.996590837940743768e+00
4.993620578345329790e-03,-8.953749913461960475e+00,-3.982367139522513977e+00
4.092244912879178589e-03,-8.951900529308971954e+00,-3.956957785821267226e+00
4.283765821374676749e-03,-8.965011026872806710e+00,-3.946157228056200061e+00
-2.010364787898348722e-03,-8.976419605624522902e+00,-3.919398146517482306e+00
-1.097219749553249085e-03,-8.982372608823466109e+00,-3.906608842672087523e+00
-1.050174471694184132e-02,-8.985448929944984897e+00,-3.885656638476416624e+00
-3.718844580155618654e-03,-8.990397374973543521e+00,-3.867478584152258758e+00
7.073258991179435205e-03,-9.001257450074939825e+00,-3.857010692793079620e+00
7.150227780065416226e-04,-9.014478878339568624e+00,-3.821530059616705888e+00
4.695877124999012220e-03,-9.023918732575005208e+00,-3.799120094551997617e+00
2.055089670902947741e-03,-9.025238078234538719e+00,-3.797354155429236044e+00
1.254677286905066594e-03,-9.036146525986513467e+00,-3.777826397944986869e+00
-2.111296950007308416e-03,-9.030363711765351908e+00,-3.749929572405607647e+00
3.742767087606684636e-03,-9.054275041531512969e+00,-3.726811401710126148e+00
-1.258184364449380695e-03,-9.059185600974148045e+00,-3.717956945143139347e+00
1.449873773016250580e-03,-9.079017219337004008e+00,-3.693132489969832566e+00
7.182785905919151885e-03,-9.082022856653129139e+00,-3.676717163119599618e+00
-4.899737619139853465e-03,-9.088150399202358898e+00,-3.659761756151366008e+00
5.601167027308543225e-03,-9.084193514117833601e+00,-3.636712547027333375e+00
-2.681724294372996812e-03,-9.095458382564530098e+00,-3.628477205818855911e+00
5.545304837406852226e-03,-9.107875684745215139e+00,-3.601392009731399391e+00
8.792784091709115665e-03,-9.114372718567445020e+00,-3.585784988864008760e+00
6.455965731172962595e-03,-9.123076658770086667e+00,-3.558307086386236495e+00
6.466309701650648119e-03,-9.132386164309053811e+00,-3.552121220355585862e+00
-7.194560981209442707e-03,-9.130857803188506594e+00,-3.531601209064390012e+00
-1.279954440856263852e-03,-9.146061825179630844e+00,-3.511575590959020055e+00
-4.933999966009065818e-03,-9.146970097031969615e+00,-3.491651684124611243e+00
2.887350882104740279e-03,-9.161516867762067307e+00,-3.481566167811229739e+00
-4.467702710577409024e-03,-9.166247778981333028e+00,-3.467833407601424334e+00
-4.449011664886002269e-03,-9.167986828227945750e+00,-3.445563167010521344e+00
-1.015537643895005927e-02,-9.176181991110283320e+00,-3.440264879752652938e+00
4.041210987815411224e-04,-9.189444510603458127e+00,-3.408172200883691438e+00
2.933163730019030385e-03,-9.199566403128933700e+00,-3.395865025064977338e+00
-2.697360764174519445e-03,-9.184096183978185834e+00,-3.387084790246057686e+00
4.496337065867693668e-03,-9.201219653071710525e+00,-3.359350787215286349e+00
3.474977879641006490e-03,-9.207706994450838067e+00,-3.337306569063605899e+00
1.461421813912952518e-03,-9.219870307550170452e+00,-3.323800856631209832e+00
4.530495478877136564e-03,-9.211179805014754862e+00,-3.313172301966908151e+00
-4.274327655899756891e-03,-9.234238815883253793e+00,-3.275561266260760718e+00
6.942866310748973223e-04,-9.229368169061437754e+00,-3.277721391545888707e+00
5.221720793096754076e-03,-9.237206912086216803e+00,-3.264781899813881338e+00
-1.043703187332466371e-03,-9.249314478520417993e+00,-3.244461124621885517e+00
-4.115395511550405325e-03,-9.243187918634829359e+00,-3.226419498882883374e+00
3.963105682871579348e-03,-9.252975401976071268e+00,-3.205796269807086762e+00
-9.488617618896426700e-03,-9.257249284819542012e+00,-3.190612657086379311e+00
3.263345103193196570e-03,-9.270837331489405031e+00,-3.178438527025467586e+00
-5.679002722740545198e-03,-9.283709472425671905e+00,-3.156760850820119035e+00
-9.722239188696661519e-05,-9.276681426738521807e+00,-3.147871342129226147e+00
7.298173878060183186e-04,-9.283719553855366513e+00,-3.126833412853068150e+00
-4.405259209811842290e-03,-9.286760834937201281e+00,-3.111234067171951168e+00
4.820982574276171453e-03,-9.291638312166298874e+00,-3.102478154177203074e+00
-2.609720514916040197e-03,-9.295310863906550480e+00,-3.086935892169088369e+00
8.887878201009841248e-04,-9.296123666418338871e+00,-3.068687309442579281e+00
-4.959668906835949624e-03,-9.311892431860867347e+00,-3.052947105756947721e+00
-5.191343606754071638e-03,-9.311197588926399149e+00,-3.037316215006906184e+00
-7.293172851256360433e-04,-9.315492842831202935e+00,-3.028820789696652138e+00
-3.192192035940806701e-03,-9.310670378082406273e+00,-3.004283054358905858e+00
2.291011459146765229e-03,-9.329222825421815912e+00,-2.998804004122169076e+00
-8.052364413791333886e-03,-9.329209757589772778e+00,-2.971359445457443460e+00
-7.366717143945501409e-03,-9.335971489637653775e+00,-2.954029031771219671e+00
2.539885166440034904e-03,-9.342610063041298929e+00,-2.952504366880809084e+00
5.946263015707675854e-03,-9.348585591762240909e+00,-2.923913755343757082e+00
3.563597700575532861e-03,-9.343385055610067269e+00,-2.915463514783222632e+00
-6.480508040809886128e-03,-9.347807564935591174e+00,-2.899022350225208822e+00
-3.276699579680034113e-03,-9.358216948752584585e+00,-2.881728711437360868e+00
4.706374238304104028e-03,-9.371706790923489905e+00,-2.860617346407955175e+00
6.501078832454492903e-03,-9.373168213816102323e+00,-2.855869907055689882e+00
1.057601993130339495e-05,-9.370204152476654613e+00,-2.849193629693760776e+00
9.663036478047663802e-04,-9.370875698388294595e+00,-2.821212339134294922e+00
8.939401047168773692e-03,-9.373817103603419909e+00,-2.813391191780006739e+00
-6.607418446048345280e-03,-9.387300574014602716e+00,-2.791928044148935140e+00
5.651032886626347271e-03,-9.387910060842701299e+00,-2.784937753893349299e+00
-3.917312610383755743e-04,-9.403594106449688184e+00,-2.774947398750210681e+00
4.318675186923152422e-03,-9.408691996350446729e+00,-2.758553350929694226e+00
-2.623691002401366042e-03,-9.395710835239352576e+00,-2.735708434140478928e+00
-3.699886337628795034e-03,-9.414871741540812522e+00,-2.730917013164866791e+00
2.152661924741981064e-03,-9.409288249186511521e+00,-2.721607990959697965e+00
-2.123109289029004483e-03,-9.419096931494260971e+00,-2.704123854269787408e+00
-7.711283651049376502e-04,-9.420734128067307367e+00,-2.690299870758785072e+00
-1.800936447292265236e-03,-9.417562508487893780e+00,-2.671326179950106905e+00
6.309573955394043136e-03,-9.429019935794311635e+00,-2.659819210763129327e+00
-3.942946076852584317e-03,-9.423863670186470642e+00,-2.640459174790015240e+00
3.651747779275629161e-03,-9.435112001441815721e+00,-2.631753054451448026e+00
-1.268172843557053772e-03,-9.435780059890397808e+00,-2.613609489026335275e+00
-5.717885593012022975e-03,-9.438540511144749345e+00,-2.606520676444440632e+00
3.216676845742690201e-03,-9.449805217187348561e+00,-2.598999742058225149e+00
3.794699859508470809e-03,-9.447884812387920661e+00,-2.569642498490253502e+00
9.090732824705854628e-03,-9.448436596841759183e+00,-2.551879089495018960e+00
8.282703878240865215e-04,-9.459309296910992870e+00,-2.554496629499133142e+00
-4.290960044358098596e-04,-9.461709612769796607e+00,-2.540185510660011747e+00
5.813536732973646412e-03,-9.460439774700208915e+00,-2.526118621423745658e+00
-5.214391532758161016e-03,-9.466589524854592597e+00,-2.507540281260284942e+00
-1.518521025972997514e-03,-9.469460600641680159e+00,-2.499052157453731660e+00
7.585360860966430287e-03,-9.476201356674124554e+00,-2.489628282167876794e+00
6.725702721060641820e-05,-9.478382071397799535e+00,-2.479226055230509207e+00
1.146840550316349447e-02,-9.479976835333490115e+00,-2.465973608485269697e+00
2.949284804645090075e-03,-9.477554888478303852e+00,-2.443451032184337901e+00
-8.848189272408625398e-04,-9.494717056249426079e+00,-2.433889892239812003e+00
-3.636387091556397052e-04,-9.491413123929929085e+00,-2.432430164406845119e+00
-2.511229846033836543e-03,-9.496418094624639039e+00,-2.419853214377372996e+00
-3.748202547308583394e-03,-9.501010877236653940e+00,-2.399017027621715314e+00
-1.663997322291768102e-03,-9.504702345776934180e+00,-2.380829930009330742e+00
6.273770372041210901e-03,-9.497565711292697443e+00,-2.379179105384169546e+00
-3.015261983217132585e-04,-9.498941435636167441e+00,-2.358431695881678447e+00
1.209774743784330919e-02,-9.509197497568859347e+00,-2.353583531825552466e+00
6.705391542685556865e-03,-9.517586197033667261e+00,-2.352812336622917222e+00
3.932860223334017774e-03,-9.504572831021990353e+00,-2.317309418157942780e+00
6.780111825560552336e-03,-9.511935627024634243e+00,-2.318230077224991970e+00
-1.333560657112975488e-03,-9.518435689083801776e+00,-2.303331680501770951e+00
-2.549241782320080512e-03,-9.519559536095693275e+00,-2.288588910991508296e+00
-8.719405311170959176e-04,-9.517205789845347041e+00,-2.278930679993052433e+00
1.157940157204705948e-03,-9.528475973032634272e+00,-2.263001600434075833e+00
-1.223486265849850789e-03,-9.525515138256679393e+00,-2.258907746153936635e+00
-4.857255793019902234e-04,-9.529208757693119480e+00,-2.251735864047211155e+00
1.230703171482832974e-02,-9.539180923535280243e+00,-2.223803725946041698e+00
-7.764997583952963287e-03,-9.533810300502411295e+00,-2.226483042166986337e+00
4.623977616478314179e-03,-9.547008578817829161e+00,-2.206026001555015270e+00
-1.499400627394852016e-04,-9.547505925988302167e+00,-2.209264118311363934e+00
4.314925314008516075e-03,-9.540369465098745394e+00,-2.179885378852547628e+00
5.987479690628876115e-04,-9.546976944435643375e+00,-2.175562757415494541e+00
-3.090907957601446432e-03,-9.546471747915523665e+00,-2.162427975532402957e+00
6.324424232620387727e-03,-9.552995691104307241e+00,-2.160354214858629884e+00
3.336336871269205296e-03,-9.565755169804388558e+00,-2.143282711209090419e+00
1.995595345598641466e-03,-9.561040594423111827e+00,-2.130487142073106188e+00
4.143826970357244836e-03,-9.566017142552494690e+00,-2.118187190826204880e+00
1.292042805184162807e-03,-9.560815491676319056e+00,-2.108708376902548753e+00
6.164451371424088146e-03,-9.569010920862817571e+00,-2.108901759705506862e+00
-3.774567795921405546e-03,-9.571350703224256407e+00,-2.082978700520203397e+00
5.793201116061746361e-04,-9.574087495272586068e+00,-2.079851844453820764e+00
6.112724228139181960e-03,-9.571451301656811239e+00,-2.063034484180841677e+00
5.949338578441642870e-03,-9.571712107594025909e+00,-2.044448202941473003e+00
1.615722180017012356e-03,-9.579359360982811822e+00,-2.042666672405502926e+00
8.503381130481518779e-03,-9.582832205220672250e+00,-2.034227533950006439e+00
2.419504284054751347e-03,-9.586614630443062168e+00,-2.015771069561401951e+00
-6.813437294942389401e-04,-9.579934967820294744e+00,-2.013456901504441010e+00
-3.112337888992771501e-03,-9.594529774423509849e+00,-2.001839077689857582e+00
-2.001878382966651784e-03,-9.585000962904896227e+00,-2.001839688385527616e+00
-4.679950478303538698e-03,-9.598385268045271701e+00,-1.980495475127793670e+00
-3.792479189547315419e-03,-9.599076111937275613e+00,-1.956261831250037497e+00
1.906723116822158859e-03,-9.599077683423077545e+00,-1.957340706604221880e+00
1.518513071353605731e-03,-9.593780634295745458e+00,-1.945731870832317245e+00
3.853183793372876118e-03,-9.603926635767564335e+00,-1.938674781672152125e+00
-2.556097082509736686e-03,-9.608125442211509437e+00,-1.935598193967329905e+00
-2.000972772560468457e-03,-9.601343785932440866e+00,-1.922381739501948239e+00
-3.119506766620026329e-03,-9.609118379564652201e+00,-1.913638411978064946e+00
6.206098470026989288e-04,-9.601520637428693661e+00,-1.897610743754287732e+00
1.970632903848245319e-03,-9.611018867300648694e+00,-1.877145001176592221e+00
6.273440237987641666e-03,-9.617835595208715560e+00,-1.882277232430920932e+00
3.965019664461889339e-03,-9.614771028994997693e+00,-1.874384114626153730e+00
3.827985487211011013e-03,-9.623792471959040640e+00,-1.858244216732624299e+00
-4.214823704463586777e-03,-9.621835451313193843e+00,-1.851329376810930016e+00
-1.207810042310066608e-03,-9.612448240517355913e+00,-1.837509769455247799e+00
7.750430542327401730e-03,-9.610094591423049337e+00,-1.823994933795874518e+00
-5.856142215393270872e-03,-9.624653703005080274e+00,-1.831139431062888123e+00
-1.841549373893585848e-03,-9.627480723324152834e+00,-1.807590791132606567e+00
3.711419071916282047e-03,-9.628752299209878629e+00,-1.802140379566920636e+00
-3.420760201594159888e-03,-9.628506779221835288e+00,-1.797473539814245180e+00
-6.642677901154505661e-03,-9.624664598399828463e+00,-1.789766753164412139e+00
-2.214820278732690731e-03,-9.627966445873639145e+00,-1.772401543494697584e+00
-8.929882714170122443e-03,-9.632787802691783696e+00,-1.765693877826211233e+00
5.308038165215295603e-03,-9.635427595348364349e+00,-1.763244837693380473e+00
-3.918795298879260841e-03,-9.639177250875709646e+00,-1.754680088451601172e+00
5.770115762719105895e-03,-9.644234554561073480e+00,-1.735797291101518702e+00
2.836120268961266587e-03,-9.645379354961152174e+00,-1.737884204100355712e+00
-6.492982621961683985e-03,-9.649687315770830054e+00,-1.721379026983737015e+00
3.826883824981817776e-03,-9.642614795035090225e+00,-1.717615905688565148e+00
2.952966868280327423e-03,-9.650885662248505525e+00,-1.704716367716469172e+00
5.358069106587588608e-03,-9.639984283389017250e+00,-1.699233398376499560e+00
2.150515650575808048e-03,-9.647572679774391702e+00,-1.683952407065009593e+00
1.192821465480539255e-03,-9.658933086236810794e+00,-1.678274718508375507e+00
-6.361867647665952336e-03,-9.647426805699968355e+00,-1.661510028518136339e+00
1.503435400571246326e-03,-9.665836867737993998e+00,-1.653402081021191350e+00
3.647513138287146071e-04,-9.656349806305595251e+00,-1.641901474904859493e+00
7.338631191299795423e-03,-9.657202427792682897e+00,-1.635776918092163301e+00
-8.242312360067711660e-03,-9.661153966779254532e+00,-1.633725113262596285e+00
-1.286392780130066367e-03,-9.665808516362483616e+00,-1.625973197121664215e+00
2.411183163507145226e-03,-9.656337888668756975e+00,-1.609118648852832179e+00
7.736150211840900305e-04,-9.659356248765066155e+00,-1.611245454536495370e+00
2.703331126277438816e-03,-9.660394214144577774e+00,-1.594255310911704804e+00
-7.474250490744619412e-03,-9.664241420184517040e+00,-1.595759290533844910e+00
-2.537813167463061955e-03,-9.661942334091015994e+00,-1.577870354360955130e+00
6.895053245350289293e-04,-9.673032797134844429e+00,-1.578619857985638752e+00
-1.158922123785279847e-02,-9.670349734840726796e+00,-1.568397482720471192e+00
-5.410109282325271420e-03,-9.670645697388177808e+00,-1.558883869747144546e+00
-1.050959960627031488e-02,-9.671752248616096281e+00,-1.547344220028796791e+00
-5.508639516240704768e-03,-9.676366876706142151e+00,-1.546337963685763706e+00
5.486938698331575090e-03,-9.678423052481688771e+00,-1.533376743843925194e+00
5.889372327009764242e-04,-9.677966168827815352e+00,-1.529747718615891872e+00
9.165485922628002768e-03,-9.669380247040693988e+00,-1.512942491505118836e+00
4.431094134893029911e-03,-9.667826046432249854e+00,-1.514128077745773293e+00
3.384035008294440736e-03,-9.678212659928298933e+00,-1.506529344078108013e+00
-7.808799435503864690e-03,-9.682990343629194641e+00,-1.494786822292133666e+00
6.385252563423269093e-03,-9.675833255852241521e+00,-1.488039065632152491e+00
-1.428346336973266824e-03,-9.680266717613291050e+00,-1.468455184708779226e+00
1.931101146923908541e-03,-9.692052664369843029e+00,-1.474910274759635653e+00
-8.898447662911816020e-03,-9.688420704104595771e+00,-1.475331508628479060e+00
7.111011754139053703e-03,-9.688278812894415282e+00,-1.460436878511266912e+00
8.558245162824881531e-04,-9.680111913075846175e+00,-1.451768074141453813e+00
2.495102786921555606e-03,-9.691253553930796016e+00,-1.444878265557694608e+00
8.528843035993256480e-03,-9.687013911757492934e+00,-1.434154590426630405e+00
-4.006603668092191778e-04,-9.700651739581800825e+00,-1.426134365567078621e+00
-4.013144802314652822e-03,-9.695252399619251449e+00,-1.415577329461778833e+00
5.299364523193866470e-04,-9.690900144020956120e+00,-1.403851327679040306e+00
4.287591071758052944e-03,-9.689860662734044894e+00,-1.399453703629757628e+00
-6.284738516363311267e-03,-9.688440156557311056e+00,-1.405963399652897960e+00
-5.117660408863009425e-04,-9.698539012496334877e+00,-1.394464490283774616e+00
-1.267698545733064903e-03,-9.689733092119839242e+00,-1.384103391358055601e+00
-5.578333173027391449e-03,-9.704164221711746308e+00,-1.380769522986021292e+00
9.423287665552391654e-03,-9.703137211171858567e+00,-1.360897572560060942e+00
6.124494973851165799e-03,-9.705784634039812175e+00,-1.361582923980381610e+00
-5.699721083113641444e-03,-9.704154894858232794e+00,-1.348951382980877467e+00
5.284914334402211582e-03,-9.705815629930112820e+00,-1.342145488678976761e+00
-5.320699660098756386e-04,-9.702006639970040425e+00,-1.341075269807220804e+00
-2.992838888809712296e-03,-9.705296195219288435e+00,-1.336106176731463702e+00
1.632121361028444385e-03,-9.717033416530178158e+00,-1.317178478789135854e+00
7.749899807577711498e-03,-9.699490429241221179e+00,-1.319179000394355761e+00
6.017749419361598587e-03,-9.704351583115405688e+00,-1.305712453680315521e+00
2.477486669422047840e-03,-9.703503223600865368e+00,-1.300482466417625771e+00
1.030979363358765222e-02,-9.702503217838399863e+00,-1.294583534970031202e+00
-6.792328532241522811e-03,-9.711117397805503870e+00,-1.297105502479877659e+00
4.052779538101944357e-03,-9.713193884555716195e+00,-1.292003872491906735e+00
1.561924792585936243e-03,-9.712366780220076379e+00,-1.280011340221365312e+00
-4.261769396829522254e-04,-9.709001488544860337e+00,-1.268322883869932749e+00
-1.163215968697851096e-05,-9.705545002584704761e+00,-1.261977127480439664e+00
1.443002107801218126e-03,-9.716309661115669627e+00,-1.262209552780575894e+00
3.410027052151331801e-03,-9.706286245598640505e+00,-1.257891555127669037e+00
-6.199032335798675478e-03,-9.709872051591975861e+00,-1.245501616040036286e+00
3.158145193982353407e-03,-9.719727469943070020e+00,-1.244896447674028961e+00
4.918641495076944356e-03,-9.716287773246612858e+00,-1.228225149506320557e+00
-9.203266378765189229e-03,-9.722851782146518573e+00,-1.227437417340370818e+00
5.771876570113015394e-04,-9.725927497059261739e+00,-1.222917169891907907e+00
2.597517666082801036e-03,-9.722447482167499544e+00,-1.210215761620326402e+00
-4.215758578510688144e-03,-9.719741914824004070e+00,-1.197866209430617390e+00
-9.279379893462164422e-03,-9.722476677345985863e+00,-1.197591634689546547e+00
1.593123473088541974e-04,-9.720408980799989607e+00,-1.195396802023543037e+00
4.113808085957249179e-03,-9.724743906243800140e+00,-1.182002664887874976e+00
1.315440594130637018e-03,-9.720006815705293235e+00,-1.187258993455059919e+00
-6.765367611682338456e-04,-9.723861828936211538e+00,-1.177117879009182966e+00
4.782794427882906992e-03,-9.721978606496950448e+00,-1.176409639320967981e+00
1.499416584904740470e-03,-9.722343673204475678e+00,-1.158692984069823684e+00
-1.884208598665272367e-03,-9.723328812302106883e+00,-1.150190280189541392e+00
3.897605091303452595e-04,-9.726637284454911381e+00,-1.156830095181145879e+00
-2.868234337542000748e-03,-9.729727419497734786e+00,-1.148249957698045609e+00
9.176947705924515426e-04,-9.731772945784486595e+00,-1.139063528652654700e+00
6.132676959734636481e-03,-9.721888471892871308e+00,-1.132647512316826699e+00
1.226367519413061082e-03,-9.730729230152688203e+00,-1.128799221901038097e+00
-5.650125632033995218e-03,-9.725308656325209355e+00,-1.123971735163532104e+00
-6.012041552567079852e-03,-9.734022890765386293e+00,-1.111169210597602319e+00
7.539460549417531868e-03,-9.728281128390062094e+00,-1.109762204060730006e+00
1.237549494102009096e-04,-9.731290605305984442e+00,-1.101406631408444969e+00
-7.158713045302413439e-03,-9.730587947581174291e+00,-1.100402432277397757e+00
-5.566506151733608895e-03,-9.734402438115074219e+00,-1.081364197063668708e+00
3.066597845818515387e-03,-9.733009558937251171e+00,-1.087516653548697976e+00
-4.351125802739697589e-03,-9.733937430359619114e+00,-1.088876919949824273e+00
4.063791630277778510e-03,-9.735923421152826052e+00,-1.080481563480037543e+00
-5.852318322217143175e-03,-9.732052620025754663e+00,-1.063303076179515916e+00
1.162237222508496516e-02,-9.731906337603746238e+00,-1.059884967931943534e+00
-1.256317423037296233e-03,-9.733550680419558176e+00,-1.054198211856991696e+00
3.802848875155502052e-03,-9.742806331916007423e+00,-1.051097915850755404e+00
-1.855557266941552062e-03,-9.734749878404235446e+00,-1.042958391485193648e+00
6.603906216837907538e-03,-9.735593076817369962e+00,-1.040678230601816079e+00
6.163415495425621747e-03,-9.732982908694957302e+00,-1.036499280331230954e+00
7.562425998015823853e-03,-9.742375370979100779e+00,-1.037354963351770465e+00
-9.679308180158322471e-04,-9.743517181991597553e+00,-1.026305390666532036e+00
6.673682925366609953e-03,-9.745185605538118523e+00,-1.025039389705477255e+00
1.404562771521499290e-02,-9.737637752739320973e+00,-1.017357566439307304e+00
-1.201273075820410595e-03,-9.744045665875560758e+00,-1.007722562572205716e+00
1.180808259503472388e-02,-9.743630458198209610e+00,-1.008357635712145983e+00
2.099643267452058759e-03,-9.735232809971501311e+00,-9.991993185163078328e-01
-1.441587048011418442e-03,-9.733867891593746435e+00,-9.925575283585353903e-01
-7.249343453825606541e-03,-9.742793621860396769e+00,-9.951669333583404997e-01
1.373859683771686902e-03,-9.744299713810455899e+00,-9.836892620925682396e-01
-7.309533297716935309e-03,-9.751504646454709047e+00,-9.842773231682808710e-01
-7.774796818613810903e-03,-9.740269311737147717e+00,-9.795032925698426984e-01
-2.231774560372285204e-03,-9.741174625135979426e+00,-9.676265542376158990e-01
2.433652838672324421e-03,-9.754736725441579992e+00,-9.661730954129851279e-01
2.647076224190442195e-03,-9.744890755608196287e+00,-9.642515402182958439e-01
3.464689283214322183e-03,-9.749502202101254511e+00,-9.487761118686303119e-01
1.568755287203049773e-03,-9.747514264656967242e+00,-9.541220969198793700e-01
4.299436777535928234e-03,-9.749261736824150759e+00,-9.474769775390604609e-01
-3.532685984895573769e-03,-9.760672419633186436e+00,-9.336410682899235480e-01
2.299343056428755465e-03,-9.749806037984612317e+00,-9.241191511275874682e-01
-7.604865815735242091e-03,-9.754769910615319617e+00,-9.209013627561990489e-01
4.660057395240025171e-03,-9.746920318048351461e+00,-9.273911324504680032e-01
-1.423973361475695983e-03,-9.755700878229580653e+00,-9.211839652838391679e-01
2.057900718055265948e-03,-9.752684983801076513e+00,-9.000260903387482525e-01
-7.491856030279727373e-03,-9.755032746374759256e+00,-9.086152684464050555e-01
-2.280532072234899964e-03,-9.742602608968050859e+00,-9.049442417181561282e-01
7.806834127603485413e-03,-9.759852166838749454e+00,-8.950775024406801839e-01
9.014658609440915748e-06,-9.748336530027518876e+00,-8.990939063841699719e-01
-1.327678792249200376e-03,-9.759646541358044658e+00,-8.902876998596315206e-01
7.184658679536633577e-03,-9.753464000861200134e+00,-8.919150960472453926e-01
5.110278121140143272e-03,-9.758453761762330814e+00,-8.864977975312218206e-01
-1.339782410194517216e-04,-9.745003525028517188e+00,-8.785135754113059248e-01
-8.922753998080517820e-03,-9.759390668960401527e+00,-8.802980516860078319e-01
-2.440029865550567226e-04,-9.752884200815415738e+00,-8.742040100369503630e-01
-2.055951162226167701e-03,-9.757730302556051782e+00,-8.557715256728696263e-01
-5.791515960599190153e-03,-9.758135341340963720e+00,-8.548725604894662489e-01
1.772404215780890979e-03,-9.756778003370861541e+00,-8.584625268157041189e-01
4.540137763739438524e-03,-9.757860003295560247e+00,-8.515334291604301775e-01
-3.079110900109416392e-04,-9.756987363701659532e+00,-8.415654376450343310e-01
-2.560302085704836868e-03,-9.754951084058312460e+00,-8.325578956702650579e-01
-8.110012300103257993e-03,-9.766051226627935122e+00,-8.350578719725223475e-01
1.527897388223917055e-03,-9.764355820808756192e+00,-8.333814041036792242e-01
4.646093525247828315e-03,-9.763615730929750214e+00,-8.335496269417967952e-01
-5.107916787395322660e-04,-9.767138123123279669e+00,-8.267811281746080265e-01
1.562778143861498145e-02,-9.761560944045967858e+00,-8.160893144010776812e-01
1.160380960498700459e-03,-9.760285664078994117e+00,-8.164091993444690942e-01
1.171339595612381351e-02,-9.761466912836226584e+00,-8.115906959973788748e-01
-7.526314255294179120e-03,-9.758872651874385795e+00,-8.037431521664024636e-01
1.076319503073787549e-02,-9.758447617770356075e+00,-7.938565764859096818e-01
3.115533829727137449e-03,-9.764717336899916944e+00,-7.910788315194651199e-01
-6.640140707533970753e-03,-9.755646280084572908e+00,-7.968608131038052989e-01
-8.138815905783853069e-03,-9.765999993895004394e+00,-7.916420824380100418e-01
-5.202862984671687875e-03,-9.754219739533112943e+00,-7.875044670021733584e-01
2.987012610135655367e-03,-9.763511298501384772e+00,-7.815625096613354472e-01
4.808212124637126217e-03,-9.761170748135155506e+00,-7.690896131017406212e-01
2.266127115287821549e-03,-9.758613404935251978e+00,-7.709425292122737972e-01
5.036346480011093946e-03,-9.759410524269073406e+00,-7.771189551209258806e-01
3.644974402638458209e-03,-9.767227496571251777e+00,-7.582756248213499140e-01
2.573460691315830173e-03,-9.756198261881372957e+00,-7.584176234441991626e-01
2.273845930197753492e-03,-9.760248172249031740e+00,-7.526617840830679418e-01
-4.406888778243478640e-03,-9.761057981362545988e+00,-7.559717185774839088e-01
3.840445378556497837e-03,-9.759142318560105167e+00,-7.478320703629035560e-01
-2.624515086764897358e-04,-9.766278220401344967e+00,-7.478897911113100427e-01
8.518293284567666004e-03,-9.768328627518096496e+00,-7.442973211251585619e-01
9.500307773933793290e-03,-9.767096837014333843e+00,-7.389993374699119766e-01
2.031248666687665398e-03,-9.766422946406040140e+00,-7.337018086148096030e-01
3.128603246876244474e-03,-9.758724628912331056e+00,-7.295087275193754550e-01
-1.853752407284328402e-03,-9.776322141843239777e+00,-7.249790439640904083e-01
3.719879707353017026e-03,-9.772920342207319422e+00,-7.170617483255052882e-01
-2.864401418548060611e-04,-9.778365206012182398e+00,-7.134932962463325090e-01
-2.154703385628118414e-03,-9.771704883469579883e+00,-7.217342666770896198e-01
-2.575511110047587742e-03,-9.764187520256092157e+00,-7.162245609768826959e-01
-8.222019169667169752e-03,-9.761017076872233744e+00,-7.070988654764652770e-01
3.117697968745553180e-04,-9.772113778533038086e+00,-7.035034922576619554e-01
-2.942270264860383060e-03,-9.771768988259475819e+00,-7.036839357881103929e-01
1.136860751811408221e-02,-9.773097646920346548e+00,-7.043528223681697620e-01
8.497516791281276710e-03,-9.768038150583375767e+00,-7.013759908150655198e-01
5.095908830937132157e-03,-9.767675831941772913e+00,-6.931337287934176139e-01
-1.303210809772690050e-03,-9.768236414362180042e+00,-6.874505260264154316e-01
5.584073468571374571e-03,-9.767235295598654332e+00,-6.877000007369429291e-01
6.929053549797901989e-04,-9.767478158213872774e+00,-6.743950097674297206e-01
7.831124256404909528e-03,-9.766771081191899739e+00,-6.773753464676420810e-01
-7.930299103091893557e-04,-9.783512606845976123e+00,-6.665488882166161755e-01
-1.816908378305188499e-03,-9.769247765572288245e+00,-6.606605179420692586e-01
-1.082629169302841378e-03,-9.775377007837370513e+00,-6.652627213140666074e-01
-5.688236320543714128e-03,-9.767523816246232116e+00,-6.683800277777910415e-01
5.058127815209569056e-03,-9.772467869842419219e+00,-6.612900576062709090e-01
-1.060247170487495488e-03,-9.769637434634956819e+00,-6.547804481914446528e-01
4.909523045733204605e-04,-9.770538811103183008e+00,-6.557777249587876112e-01
6.611395129412877929e-03,-9.774478086072358352e+00,-6.440285129567112632e-01
3.802244844055937319e-04,-9.771493985816070094e+00,-6.455935392171774367e-01
-8.879886380113664532e-03,-9.778997907211081753e+00,-6.316531426526229565e-01
6.082141981309922320e-03,-9.776594039000773506e+00,-6.403162954023348119e-01
-2.461858883078947569e-03,-9.778512098057980495e+00,-6.242119083239868749e-01
5.527229831221571431e-03,-9.776975481759590636e+00,-6.260196986730047763e-01
5.448906809780168156e-03,-9.767966842793995852e+00,-6.222579732653291673e-01
-1.092963260065541332e-03,-9.780795682107120470e+00,-6.203136970524488758e-01
-1.653787913341266428e-03,-9.765127126904102894e+00,-6.199432282064768485e-01
-1.085363773454545416e-03,-9.775132390317761377e+00,-6.144883410903210219e-01
-4.659470641443945460e-03,-9.777575292050421751e+00,-6.124447035127823513e-01
8.134450167580698984e-03,-9.776767672184401903e+00,-6.067831730078843133e-01
1.832184958633370324e-03,-9.773464052757343978e+00,-6.075688141699551181e-01
5.109245501052997809e-03,-9.776523230197870618e+00,-6.093746049303588874e-01
1.008686353629019775e-02,-9.783509057571022183e+00,-6.066621173517604548e-01
-5.755081778580277072e-03,-9.779199075811373376e+00,-5.935662153264554819e-01
4.989554563916691332e-03,-9.772451942076548548e+00,-5.782982841379672445e-01
-5.243665725255089493e-04,-9.782521830939021612e+00,-5.888317460675831505e-01
-2.229337452973279617e-03,-9.778746709279621641e+00,-5.852219104660046911e-01
4.218335656319872722e-03,-9.783023415248763399e+00,-5.856578026226878508e-01
-6.197902402011980054e-03,-9.776878561301531434e+00,-5.833982464353255626e-01
6.406240222237632054e-04,-9.774246909395492011e+00,-5.799510780808547761e-01
6.744742726577106391e-03,-9.769062294312369943e+00,-5.813403100895014886e-01
3.872792511750984806e-03,-9.771700264401840030e+00,-5.681601671944598309e-01
6.661854936934451937e-03,-9.778451913975098719e+00,-5.558633830474329907e-01
-5.842734408448507040e-04,-9.777073083333862158e+00,-5.625577912043641104e-01
-3.290267759074467710e-03,-9.776516931499612539e+00,-5.559045678579487282e-01
-7.665740773695785271e-04,-9.780291440586402985e+00,-5.608566490807488369e-01
7.475836048901645346e-03,-9.784991842123686112e+00,-5.614512655854988488e-01
-7.343191046903614454e-03,-9.779422178873709015e+00,-5.514845799283218941e-01
9.508948633864176131e-03,-9.782448751852786728e+00,-5.545308725791732174e-01
1.063446938050193521e-03,-9.780466183425177817e+00,-5.549741279577951047e-01
-2.155741668179985381e-03,-9.771482756330140518e+00,-5.470862298426002468e-01
-3.699798038313311960e-03,-9.775763420222803646e+00,-5.438268125575995704e-01
1.483458897443945112e-04,-9.783371152728850717e+00,-5.521609285110826715e-01
6.994282825475088127e-04,-9.788784418951616217e+00,-5.379461051510754377e-01
4.950288522249849874e-03,-9.782150377185972800e+00,-5.292757481345482518e-01
1.849088807644525727e-03,-9.781692976234003467e+00,-5.399985313627654326e-01
3.000056598161796213e-03,-9.782913763746828195e+00,-5.268047481298331336e-01
2.770662615901916398e-03,-9.778582145909835432e+00,-5.280702357605352448e-01
1.490688967690103391e-03,-9.780838979657090704e+00,-5.269321095186986215e-01
-1.792712391191499024e-03,-9.784531493223605381e+00,-5.254967441886430057e-01
-3.680917293301257543e-03,-9.772677680703012015e+00,-5.111469255795382249e-01
1.047124959780098424e-02,-9.783690153482002216e+00,-5.166816108408427421e-01
3.116634118003824665e-03,-9.780617219387085726e+00,-5.044685638556015705e-01
-2.289379739006902788e-03,-9.789190542178680232e+00,-5.183483578115266610e-01
-5.952732848700810877e-04,-9.786403224334245365e+00,-5.068910116756087936e-01
2.031145169635581449e-03,-9.780306474237125514e+00,-5.042365566581212821e-01
-4.355854432716672539e-03,-9.780428804897125517e+00,-5.028878504871375776e-01
3.885421626711111839e-03,-9.790214508855054731e+00,-5.053681299480553557e-01
2.473470858973212186e-03,-9.781479676073574936e+00,-5.006908824955008663e-01
-2.960941332371356052e-03,-9.780452437701733004e+00,-4.888545581739986989e-01
1.097846232744627629e-02,-9.784958878048250597e+00,-4.948291340558244600e-01
-7.885019424033901797e-04,-9.784149359098368137e+00,-4.885243150046784111e-01
9.535041205304951167e-03,-9.780178324132164036e+00,-4.764332160204331479e-01
7.617056990323056720e-03,-9.776783391122535249e+00,-4.911714159114004552e-01
9.240301392107551750e-05,-9.774598000478839310e+00,-4.822270251361098214e-01
-1.196399566617386157e-03,-9.776877609163838301e+00,-4.760904465995891566e-01
5.783494711110063330e-03,-9.783661546322505842e+00,-4.729520422215143793e-01
2.085363452625809463e-03,-9.787503309128844364e+00,-4.777339985779861520e-01
2.737843917373379414e-04,-9.774240318368990543e+00,-4.681048788510672742e-01
-4.035353422965372999e-03,-9.782430610248228575e+00,-4.702205414808348083e-01
-2.685100300236553986e-04,-9.778837913208688448e+00,-4.697111991588159841e-01
-4.610136452851420238e-04,-9.794893376982885869e+00,-4.649009113201537091e-01
3.496229083822120255e-03,-9.781118168129035340e+00,-4.711208832589979245e-01
-2.786182009146892773e-03,-9.783669169661552090e+00,-4.605584918067970324e-01
-1.886437139392530427e-03,-9.780417294023175501e+00,-4.543302664529652590e-01
8.748941734684110086e-03,-9.792235701223363620e+00,-4.596710061424720828e-01
-2.333381996587244409e-03,-9.783198593986298874e+00,-4.543686107460739865e-01
-1.960836206336556871e-04,-9.778883133572289665e+00,-4.553467676757047555e-01
3.737070298777269307e-03,-9.781091938202457925e+00,-4.418546286470400042e-01
-5.563621039899100014e-03,-9.782808654640218649e+00,-4.389589520921163279e-01
1.604877960041150957e-03,-9.784539627247905713e+00,-4.470572144598833897e-01
-6.332831078344770478e-03,-9.789543766946140479e+00,-4.446259391146529794e-01
-2.408925107863448337e-03,-9.780721251848749631e+00,-4.433249663956723152e-01
5.253509586587306896e-04,-9.787846244993552602e+00,-4.362214470664755872e-01
-4.334530715516335918e-03,-9.782935752915774330e+00,-4.273265430679343835e-01
1.269526672756632509e-03,-9.773535083244476951e+00,-4.232038962080876821e-01
-3.322135884629480061e-04,-9.780444998668954781e+00,-4.258176610236664161e-01
-1.799424533029515263e-03,-9.788614368589310999e+00,-4.246667900124297956e-01
-2.848127111825284486e-03,-9.788201827518065556e+00,-4.181267948889322295e-01
-2.381245683548081568e-03,-9.788973212610139640e+00,-4.231011264493853008e-01
-1.597147519909240376e-03,-9.780999893017638058e+00,-4.161150597950681873e-01
4.153021719335720126e-03,-9.786902958352955650e+00,-4.185813499030341944e-01
-3.851550368679867910e-03,-9.788346905749229165e+00,-4.149462873767835180e-01
6.481364041323895570e-04,-9.792345093620783203e+00,-4.198848683151785166e-01
5.269283708638655174e-03,-9.785991538394467781e+00,-4.125140994187220245e-01
2.206493347449059450e-03,-9.794247118644891614e+00,-4.105339547993805960e-01
-8.719141213121915212e-04,-9.789054082844254268e+00,-3.989612447396990724e-01
6.117457938450088228e-03,-9.785290083342827572e+00,-4.093300646923345165e-01
9.753265498763303773e-03,-9.792212185854289430e+00,-4.082751155714896552e-01
-4.914935153923489022e-03,-9.784207582555783489e+00,-3.875469050022810058e-01
5.855959960988176179e-03,-9.786386809925268437e+00,-3.986634446637823959e-01
-3.893926079624195069e-03,-9.784892329126712696e+00,-3.923445137359893864e-01
-4.217130887193474426e-03,-9.784616898897676052e+00,-3.943091479179297032e-01
-5.301660258793822016e-03,-9.785417027036320547e+00,-3.968622105018626556e-01
-1.205342310229163758e-02,-9.793991232282584392e+00,-3.920275250935889022e-01
6.634342491462261182e-03,-9.780924738363729887e+00,-3.956723778811946368e-01
1.947700123480744202e-03,-9.789988667864736982e+00,-3.899047923148746264e-01
2.623223226503137474e-05,-9.791231531584148939e+00,-3.752855828114091130e-01
-2.915012967896739131e-03,-9.790003916127462347e+00,-3.787294554471016261e-01
-1.045303243632413753e-03,-9.779228736326780691e+00,-3.837346954439194713e-01
-5.921355862961491003e-03,-9.787905066434674950e+00,-3.790193978003719155e-01
-8.835467251975627273e-04,-9.785691583330001109e+00,-3.749029711720415214e-01
6.672801343135977871e-03,-9.795444442098602877e+00,-3.710443311520094101e-01
9.292308398029365535e-03,-9.795468528664507346e+00,-3.722649904282465672e-01
-1.147094455741559270e-03,-9.784606181348367571e+00,-3.700637744232154747e-01
-7.633727296244828889e-03,-9.796409657885279287e+00,-3.678582088773481029e-01
3.443110779458895526e-03,-9.788916661818866771e+00,-3.619913563904200160e-01
5.042040328762185247e-03,-9.783976037036923756e+00,-3.593195226211535198e-01
1.093699292232910153e-02,-9.782325763821221543e+00,-3.604861780617141798e-01
4.392879791743091802e-03,-9.789893159005199408e+00,-3.652849500314648834e-01
1.783634837730414639e-03,-9.782233664460257216e+00,-3.534171017801492343e-01
-9.775325726235734383e-03,-9.786612394001238613e+00,-3.531276596645837040e-01
-2.951347516742153405e-03,-9.781872566088564369e+00,-3.574772091732827950e-01
3.753045917251888151e-03,-9.784402282778307480e+00,-3.499627992333790294e-01
-1.871150364106358589e-03,-9.788551575515125336e+00,-3.599886160935176216e-01
6.249676346674404477e-03,-9.783412628723931803e+00,-3.444980878747743169e-01
-7.079802440785227385e-03,-9.789323310857396265e+00,-3.443656114594793594e-01
-1.799570470795441596e-03,-9.793240318366368768e+00,-3.426261564890779598e-01
5.129841193627263964e-03,-9.788984252618650572e+00,-3.401093966860071482e-01
-4.439273856980687459e-03,-9.790930223626322260e+00,-3.394363117203915703e-01
3.851628077220955494e-03,-9.784083114573700612e+00,-3.270673982522388501e-01
3.099572518335097157e-03,-9.793688661197368361e+00,-3.295721381502425551e-01
2.841563946183752083e-03,-9.788100745920651491e+00,-3.345389528644029387e-01
-3.367525299792803548e-04,-9.782716055917335396e+00,-3.310073095226433448e-01
-4.746931088889865219e-04,-9.788362341445052905e+00,-3.338597791300503270e-01
-7.072255466764858049e-03,-9.788761930071942174e+00,-3.325762465242873556e-01
-6.817143122631028930e-04,-9.791630485833826114e+00,-3.308129039290486628e-01
1.215223694478718107e-03,-9.790522550214062036e+00,-3.160306992563928774e-01
1.819159082135090276e-03,-9.793369559149693870e+00,-3.181401958115832040e-01
-1.296793857071089958e-04,-9.780259786500073105e+00,-3.321848852290319454e-01
-8.943346557641776093e-03,-9.793174955922209435e+00,-3.137161899675547372e-01
-1.765087903685629402e-03,-9.794300756145121412e+00,-3.163886869607819285e-01
2.052519651100439668e-03,-9.775756161846839376e+00,-3.198305625248246131e-01
6.081015461480682172e-03,-9.786997254210938024e+00,-3.103071561860734628e-01
3.651993275936852874e-03,-9.782969037484422259e+00,-3.090578494078393690e-01
2.159128061782720608e-03,-9.795342246424059596e+00,-3.116491934367637273e-01
6.460568758776628201e-03,-9.787245426727681163e+00,-3.224660308527929065e-01
1.001600058945071106e-03,-9.785924516128773121e+00,-3.114399832965207282e-01
8.721147069255447137e-03,-9.800370196186316107e+00,-3.038057294869689895e-01
-4.058311330748845189e-03,-9.786521944451632038e+00,-3.101866055515552500e-01
-5.271356072658634796e-03,-9.791542578754951265e+00,-3.061939778423173886e-01
9.130241786397874431e-05,-9.788631534146936986e+00,-3.009652885410152301e-01
-7.246033672879288994e-04,-9.785400260691119456e+00,-2.919523350648183246e-01
5.810823093054432549e-04,-9.793121247181616695e+00,-2.922694689967527126e-01
-3.424227426135857243e-03,-9.792113016609180320e+00,-3.018249268805239804e-01
6.984016826034706790e-03,-9.781440182127932204e+00,-2.918726765267876111e-01
-2.445728857730648537e-03,-9.791630314951209613e+00,-2.843551974018644901e-01
-5.701878774803103254e-03,-9.787405167005784890e+00,-2.935338715210611404e-01
3.656707029746345070e-03,-9.795842044461990028e+00,-2.805768841455481555e-01
-2.555848144331918266e-03,-9.785512103728017053e+00,-2.873742497367270943e-01
1.748920881880277733e-03,-9.781619979821492450e+00,-2.898878690704494443e-01
-1.143371796841019007e-02,-9.786779144938064334e+00,-2.827782706400859825e-01
-5.740597391911813827e-04,-9.785889221063598598e+00,-2.820900704533623737e-01
6.863904075173800010e-03,-9.792590704849299499e+00,-2.890511703224924456e-01
-1.003612642193732300e-03,-9.793337351644574085e+00,-2.854239015416032421e-01
-1.117056704852962060e-02,-9.794281038557585362e+00,-2.878833865420816762e-01
-7.812255005069046465e-03,-9.792138441020037831e+00,-2.844068129211329010e-01
-6.153798902891517448e-04,-9.789398510076491533e+00,-2.821044928710668143e-01
1.148729519970953256e-04,-9.788056333379033802e+00,-2.802403152268457820e-01
1.664611356231049735e-03,-9.795041834113368040e+00,-2.734439237398574307e-01
-5.878052850233793022e-04,-9.791578592896419408e+00,-2.825275634569576755e-01
1.006991414999729075e-03,-9.794384546091450261e+00,-2.787563588717492102e-01
-7.369534205091793876e-04,-9.794542066440113715e+00,-2.762160666962926170e-01
7.805345624400402034e-03,-9.795002217327727578e+00,-2.701861225758255824e-01
4.008290474956200528e-03,-9.790179388993493603e+00,-2.700772466197250421e-01
-5.454448192781066046e-03,-9.787605078951783000e+00,-2.678441113860213219e-01
4.370342173282987935e-03,-9.787576720237844086e+00,-2.669151730877193374e-01
2.263519820654434894e-03,-9.787449306535229709e+00,-2.687108346580159290e-01
1.818838805515147344e-02,-9.795546165418052453e+00,-2.697250951174989808e-01
2.994328298674367450e-03,-9.792442326083110160e+00,-2.657014168919198949e-01
-5.135335654053199174e-03,-9.782540103239634632e+00,-2.639854453373707832e-01
9.709618454474639934e-03,-9.787926456288861488e+00,-2.604995956475019692e-01
-6.267197192935830032e-04,-9.795299830785682005e+00,-2.526383930668313904e-01
8.950277950950237364e-04,-9.790100827868350564e+00,-2.503336939804348127e-01
-3.563859503069162233e-03,-9.791002284435872838e+00,-2.633151500300486836e-01
7.449733960397104775e-03,-9.805578081576349803e+00,-2.620542449001930230e-01
2.510230224618210330e-03,-9.788759508792891140e+00,-2.533551734406131462e-01
-2.410171445170188487e-04,-9.788898839249656092e+00,-2.558542537444843390e-01
7.606125934006509109e-04,-9.796355289323512849e+00,-2.375041671156235268e-01
-1.643240422667519495e-03,-9.792421652392702569e+00,-2.506549812100094532e-01
-6.856477071100762792e-04,-9.787607274202665408e+00,-2.492140203611993565e-01
6.768909869395646657e-03,-9.799673255539712358e+00,-2.459798566825202037e-01
4.269620133617453052e-03,-9.793453980943219506e+00,-2.493600417719115392e-01
4.489527099397815600e-03,-9.792222098164961253e+00,-2.506556933200561610e-01
-2.798436642660128738e-03,-9.796838084277982972e+00,-2.498863475390424860e-01
5.487093584510700436e-03,-9.790301201372200168e+00,-2.392015765349821410e-01
2.275443425193100170e-03,-9.789668487072979985e+00,-2.377590441273652322e-01
-3.575999070931049073e-03,-9.792868054000027911e+00,-2.409112916139744820e-01
-8.496605763570322378e-03,-9.788801678179835264e+00,-2.287982235140189613e-01
1.612416520168551875e-03,-9.791420176381809171e+00,-2.356960782492446560e-01
1.454991783355479538e-02,-9.795443588321642636e+00,-2.354914239646609675e-01
-2.012345194555693190e-03,-9.792261935913883164e+00,-2.421788971522207401e-01
-2.941338905989265319e-03,-9.783376652954245856e+00,-2.381825648281797048e-01
7.781539748313638996e-03,-9.789213635350984433e+00,-2.256966287576226970e-01
-1.114405073336019502e-03,-9.799986310051950866e+00,-2.243712045148683054e-01
4.299535544534092459e-04,-9.792238025613013264e+00,-2.379821328322010987e-01
-6.166765473265118334e-03,-9.788575030673362320e+00,-2.250537926246395648e-01
1.681509786958240845e-03,-9.792056714669223894e+00,-2.304027916994733638e-01
-3.993951805584415506e-04,-9.784074805644136674e+00,-2.281401595871739019e-01
-3.143019063884698247e-03,-9.789924625837082672e+00,-2.227949388154180366e-01
-2.961927946803598246e-03,-9.789969958866249655e+00,-2.189569463465622368e-01
8.242801648050093744e-03,-9.791881652521231771e+00,-2.240827258996692661e-01
-1.584298092369986919e-03,-9.791052742585828028e+00,-2.210287267189843807e-01
4.141669611245984983e-03,-9.789083273284873599e+00,-2.232487262736086997e-01
1.010124552722170164e-03,-9.786847472319051278e+00,-2.142941027247359798e-01
5.233240872181827959e-04,-9.791410761842849197e+00,-2.151761128303813775e-01
4.409082881844673604e-03,-9.793149957906159386e+00,-2.134773472320797283e-01
-7.369107193638761016e-04,-9.786422501750628555e+00,-2.100981268546693315e-01
5.410564608636290324e-03,-9.790505974636932507e+00,-2.101620986403369140e-01
6.128899236585450168e-03,-9.794472423225862201e+00,-2.183867944356615853e-01
6.784329679344006797e-03,-9.789842412315627129e+00,-2.115139373114180710e-01
-7.923304106336482092e-03,-9.796456752324436579e+00,-2.091553472188399654e-01
9.367445781542251123e-04,-9.789173887957058895e+00,-2.021111236181442061e-01
8.673987423776873375e-04,-9.790557807208127628e+00,-2.138559937704963554e-01
1.053801058446630391e-03,-9.800878449730596742e+00,-2.096129511927714018e-01
-5.853704873304458635e-03,-9.799649824448261271e+00,-1.997685919151208078e-01
2.964408377742516927e-03,-9.791677252863991043e+00,-1.990973197988515353e-01
8.468084739688753679e-03,-9.792835846891074780e+00,-2.056011509221233324e-01
4.045383829277917655e-03,-9.797049110651936843e+00,-2.064362376469348059e-01
-1.569358637171976503e-03,-9.790866497017852055e+00,-2.023290917602606209e-01
-9.011583802513680602e-03,-9.793201830962610543e+00,-2.003662045929267554e-01
7.454533817728729514e-03,-9.790191815061193736e+00,-1.984994689044626559e-01
5.682089290498247396e-03,-9.794548714000145040e+00,-1.977459925381290784e-01
-8.598146046387421552e-04,-9.796201539308970752e+00,-1.960953292540652260e-01
-2.315487920209066686e-03,-9.794190699517926646e+00,-1.991821680262966243e-01
4.696388992232187164e-03,-9.792300312529748751e+00,-1.951641419318794479e-01
9.008222130056600663e-03,-9.796297077258786956e+00,-1.893354234874906339e-01
3.255187784560627066e-03,-9.794970152321793577e+00,-1.845760255766620561e-01
7.750596480666664678e-03,-9.793390985447560482e+00,-1.936477667282778536e-01
2.167203383370678010e-03,-9.802529327823659600e+00,-1.837181948042058421e-01
-2.408015234511219800e-04,-9.801558702296462755e+00,-1.977019018132757100e-01
-1.100705209133179263e-02,-9.800355905650455668e+00,-1.909962154102920195e-01
-8.300765706904104577e-03,-9.790658965727995877e+00,-1.892541073692763920e-01
5.755925337515574794e-03,-9.792234597061984402e+00,-1.773888093891504147e-01
1.491918719318981396e-03,-9.795718004373936694e+00,-1.834983671973811903e-01
2.797714653366973996e-03,-9.789366677367139502e+00,-1.836433228746195134e-01
-3.781070894486471962e-04,-9.790207703852681576e+00,-1.841407535002821394e-01
-3.581768834212495888e-03,-9.799322665694690571e+00,-1.823275473141007519e-01
3.675250664894037528e-03,-9.792864491357621048e+00,-1.816387004565476471e-01
-6.919329245663847008e-03,-9.797449696119111096e+00,-1.785676096239231236e-01
4.593988365594887067e-03,-9.787818049347579930e+00,-1.926414958737429906e-01
6.563790149830914938e-03,-9.792657382853670711e+00,-1.757472476524503946e-01
5.483410890621367648e-03,-9.789937836577694341e+00,-1.746767968269716254e-01
3.206767585906469950e-04,-9.785803973236141928e+00,-1.793892772837885619e-01
-7.108853346873443210e-03,-9.797065752518095749e+00,-1.793701093031224991e-01
8.145629708958945087e-03,-9.790931298595710430e+00,-1.801651674993002550e-01
-6.425085069903916507e-03,-9.800885847507144533e+00,-1.820469998700141867e-01
-4.862099019739283927e-03,-9.792221921163241305e+00,-1.761626003065388246e-01
-4.779672013622127515e-04,-9.786390350831739582e+00,-1.683563390699705231e-01
-9.227329294384089414e-03,-9.790158738348139877e+00,-1.676603775859580037e-01
-3.390558310454732348e-03,-9.789596800751649397e+00,-1.726839445436110509e-01
-1.508844573613419855e-03,-9.795920296973811503e+00,-1.719341112283137019e-01
4.870144626052344376e-03,-9.800611377744058217e+00,-1.754728839989400380e-01
4.904259330482276099e-04,-9.794373397191376895e+00,-1.692906591531122829e-01
-6.721815202770283111e-03,-9.797193895774158889e+00,-1.664617654696660676e-01
-4.130285346454688755e-03,-9.789322416369500957e+00,-1.684163249420583819e-01
2.740802605737966378e-03,-9.793139703543557673e+00,-1.640673263881957944e-01
5.050545528722893626e-03,-9.786727102928521660e+00,-1.703276464227457265e-01
-3.150053483489832686e-04,-9.800610078786780477e+00,-1.633862093717203257e-01
2.741082064582353942e-03,-9.784473716531861598e+00,-1.640379004714940248e-01
5.475235578318987488e-03,-9.796107975204417784e+00,-1.658922027049134218e-01
4.332760245700843088e-03,-9.799272665290713391e+00,-1.595414291467737999e-01
-3.095616448314432705e-03,-9.794881655625518491e+00,-1.565563819280444136e-01
4.079487612765548611e-04,-9.790715034264426464e+00,-1.581789611070326673e-01
9.064497286243819799e-03,-9.789847885226812707e+00,-1.552303655536171334e-01
2.917319368187354552e-03,-9.791919705538465024e+00,-1.612399217263621176e-01
3.432791893563918745e-03,-9.794954836244297525e+00,-1.508483842656441476e-01
3.067773931028978289e-04,-9.793649145915640730e+00,-1.552455700975618746e-01
-5.946739827453479798e-04,-9.788226756917064009e+00,-1.613316792816915923e-01
-4.175403426806555650e-03,-9.799141919742368145e+00,-1.562665024306740258e-01
-4.393297951910078540e-03,-9.779584820454443772e+00,-1.496043257161878970e-01
9.834691448223661751e-04,-9.798469475025251896e+00,-1.529161044752832543e-01
3.036084208031854421e-03,-9.793766665147677131e+00,-1.504829448195781905e-01
-6.110583492515862455e-04,-9.799952258213652456e+00,-1.496034168779550311e-01
8.225159374690156622e-03,-9.780782453894092399e+00,-1.562846449991206754e-01
6.160685690368897412e-03,-9.812347176857093345e+00,-1.437981906865339887e-01
-6.935584508093927888e-04,-9.799927136742004663e+00,-1.501485329341795683e-01
7.894292049145959457e-04,-9.796793149882732976e+00,-1.432646167306785567e-01
-2.703002076091902666e-03,-9.783161272613481785e+00,-1.484146051280111345e-01
1.026654747084321381e-03,-9.799125518601169205e+00,-1.525216481771173305e-01
1.296239838789958569e-02,-9.798130982469800188e+00,-1.453169944930371160e-01
9.466586945795064587e-03,-9.794003568499855206e+00,-1.496146105227927903e-01
-3.885919056936307063e-03,-9.794659965411277369e+00,-1.422668800969469904e-01
2.464007665777602149e-03,-9.790248486373963388e+00,-1.413618457765013769e-01
8.112512540389346660e-04,-9.791142209328667079e+00,-1.355388134145462942e-01
3.182932608692428788e-03,-9.783501584217685121e+00,-1.423327237006060397e-01
8.022540777134722773e-03,-9.789176771165218227e+00,-1.423504315205643689e-01
-2.112815437712172589e-03,-9.800195191233424197e+00,-1.455427157765228630e-01
-4.506875685301204269e-03,-9.798580797001609000e+00,-1.363081799757906720e-01
6.415702124410616915e-03,-9.795815243877841638e+00,-1.356635546457001795e-01
-5.364915581961711942e-03,-9.800997957179665931e+00,-1.374004062011245642e-01
-3.598686790015825573e-03,-9.797894737911301277e+00,-1.394432152659922097e-01
-5.646189736389108354e-04,-9.799188944437062787e+00,-1.355850093018016733e-01
8.232531507645935234e-03,-9.792494411617928662e+00,-1.386396908643681980e-01
-3.624486406348039966e-03,-9.796836920087045542e+00,-1.374135572786756576e-01
-3.874121810405788385e-03,-9.789848016956522514e+00,-1.303631510478346356e-01
4.658600275764366791e-03,-9.790254881570168877e+00,-1.338394663206229629e-01
-2.038940827871355173e-03,-9.795442195173810873e+00,-1.318789871926369928e-01
-1.512798555377641322e-03,-9.805857536849881484e+00,-1.338128352685179490e-01
2.115431175929323709e-03,-9.790636767248010131e+00,-1.246960291886468203e-01
-3.409814362699746700e-03,-9.790587090805372483e+00,-1.325735677300393378e-01
1.346347795144040363e-03,-9.792242492235844864e+00,-1.209333211874523972e-01
-6.993154138135000523e-03,-9.791969168880040542e+00,-1.296762568808732252e-01
6.142554419046273965e-03,-9.794340250765042555e+00,-1.294682148441915759e-01
-3.451906540928064739e-03,-9.786199750191393321e+00,-1.345111410127660112e-01
3.958182771085379768e-03,-9.791923945669879004e+00,-1.334208784600386666e-01
-2.127921700216617393e-03,-9.781993733761110477e+00,-1.236941353811589206e-01
1.088072576702792289e-02,-9.797694370785588802e+00,-1.222164472288071735e-01
-6.126196403352378826e-03,-9.787777521232108313e+00,-1.271652692381761152e-01
3.684052855112092406e-03,-9.791330832155383135e+00,-1.204751732901396949e-01
-3.265336107563493462e-03,-9.801618296998336533e+00,-1.247491261318829509e-01
-7.844860607212575734e-03,-9.794438572467928594e+00,-1.219356780152085762e-01
-5.087270240151512031e-03,-9.787463865371901051e+00,-1.188559057043677147e-01
-3.436369036781523022e-03,-9.802955365574012703e+00,-1.281524113344972016e-01
-3.494205132974565614e-03,-9.789623634037695865e+00,-1.210744026797812567e-01
-7.193127145986050186e-03,-9.791877238536880412e+00,-1.157173534877390109e-01
1.069931715048084205e-03,-9.787829857293715463e+00,-1.184314873884989849e-01
6.010351559778216550e-03,-9.796072075937255264e+00,-1.249454987600243233e-01
-3.457696933956872463e-03,-9.788238460535342966e+00,-1.175137016280374397e-01
-8.077673824374418179e-03,-9.792030677994324250e+00,-1.131148257933271978e-01
1.433509734444963091e-03,-9.788772786500990364e+00,-1.265194892452802533e-01
-4.891874323082757645e-03,-9.802350652507119122e+00,-1.192153240259093139e-01
-1.049426062947271879e-02,-9.798350668304776079e+00,-1.118626536675113581e-01
-1.424497276052260741e-04,-9.792914741497455111e+00,-1.224559199357639072e-01
-3.175768581921898617e-04,-9.791743079189618726e+00,-1.225861922407174703e-01
1.418542506334254105e-03,-9.787167960504204345e+00,-1.198376787141474109e-01
-2.085422115725050606e-03,-9.801927963891973405e+00,-1.204533215242167415e-01
2.792592146748519577e-03,-9.793771594727953556e+00,-1.094102782841796240e-01
4.596908108057784861e-04,-9.792957894081080639e+00,-1.060179715763143321e-01
-5.472284552729488917e-03,-9.789033046022421303e+00,-1.105101591264539412e-01
5.161562298494979349e-03,-9.786880187418883992e+00,-1.129640748090073171e-01
-6.495787362260113662e-03,-9.797467132148304003e+00,-1.148435295668489980e-01
-1.355050812674368126e-03,-9.797811755980385229e+00,-1.145225319623577737e-01
-6.737449858330159073e-03,-9.794728570068516049e+00,-1.007752280738876960e-01
-2.173605830330277953e-03,-9.797141553153954519e+00,-1.085570009358953758e-01
6.200441762228521732e-03,-9.790379401059013276e+00,-1.033334412903993554e-01
-6.806231792363652165e-04,-9.796443570964436631e+00,-1.132934350894898301e-01
-9.070829783554818990e-03,-9.779878871225026415e+00,-1.074302799347208043e-01
1.320129345530158269e-03,-9.794317942542321020e+00,-1.117455283132704619e-01
4.421204150710718837e-03,-9.798863931837560770e+00,-1.095498366614589408e-01
8.918165036309412541e-03,-9.786056761483784783e+00,-1.052606705620784677e-01
-6.919451665589191475e-03,-9.783813283958062712e+00,-1.016229441117139920e-01
6.507687473511936972e-03,-9.786470480805876448e+00,-9.963845396243153907e-02
-2.652433949509457652e-03,-9.798832844233928085e+00,-1.058990085866644004e-01
3.401580049451055198e-03,-9.791753952628981850e+00,-1.080430173040771019e-01
-5.256035168754616231e-05,-9.799645151170507162e+00,-9.631032263477921906e-02
3.797601075411297924e-04,-9.796823608525787819e+00,-1.016467624226076449e-01
-2.420824986188320482e-03,-9.792622467875279568e+00,-9.693234314585980060e-02
-3.580954230253938653e-03,-9.799087065416486553e+00,-9.676054845246456759e-02
5.849609215452474843e-03,-9.796564468792253066e+00,-1.050351910866318683e-01
-2.458745054149570489e-04,-9.791006899147285836e+00,-9.744707081320712339e-02
-1.127499000392314342e-03,-9.794284806623423378e+00,-9.554782999594280124e-02
-1.042926750411856188e-02,-9.797308351969494566e+00,-9.330240632855442418e-02
-8.809660909438559156e-04,-9.782935951428303412e+00,-1.026554244767048513e-01
4.506776119617002490e-04,-9.785745214519495860e+00,-1.006605495633971781e-01
2.296271751940704917e-03,-9.789909067118033548e+00,-1.073184531482772042e-01
-5.704293361889221751e-03,-9.789548824109035152e+00,-1.003247583935558684e-01
5.221584667028788575e-03,-9.784019691523777595e+00,-1.004578417158277781e-01
-1.130261036513157021e-02,-9.791831419007277049e+00,-1.031369654042136874e-01
-1.981661899827632124e-03,-9.789569785963836424e+00,-1.055400095718089792e-01
2.379182183666731214e-03,-9.791233437670189943e+00,-9.301436201929644265e-02
-2.841925957951171866e-03,-9.797216722488730767e+00,-9.375957442420632115e-02
2.064563622219547315e-03,-9.795409287634834428e+00,-9.297902710152869399e-02
3.439569382587514580e-03,-9.790894917151348409e+00,-8.541498409513728629e-02
-3.595541744969029231e-04,-9.790894040062822157e+00,-8.416676643350810838e-02
2.918201668516248910e-04,-9.798191433648302251e+00,-9.102415353796936004e-02
1.797634266465292750e-03,-9.797609506667107837e+00,-9.281740668581812959e-02
4.215153480492257222e-03,-9.794477272120152733e+00,-9.749958857294403758e-02
2.080862979050195245e-03,-9.795997889715263085e+00,-7.454914235120782551e-02
-4.141186261887046705e-04,-9.802090334807706640e+00,-9.099528534272872948e-02
-2.105582062899578714e-03,-9.793619549351319620e+00,-9.258772199157927485e-02
-2.692123584342314812e-03,-9.785260623471815578e+00,-8.461581032295628635e-02
4.522764502460241247e-03,-9.791158827858602365e+00,-9.434758653071255441e-02
5.486031803905815768e-03,-9.793210308312231049e+00,-9.878612601857165998e-02
1.477937169446859669e-03,-9.805101502961843352e+00,-9.070292862094291031e-02
1.448257787304364167e-03,-9.799696931692166046e+00,-8.733720718296955621e-02
7.968933084174019844e-04,-9.790356068923827593e+00,-8.703936082160057541e-02
-3.287433841640357863e-03,-9.791169962863728315e+00,-8.496579669256362766e-02
1.377023818878567608e-03,-9.790371600788098760e+00,-8.600239360654127196e-02
-6.799336798834701087e-03,-9.790421798507120243e+00,-9.053587575409766108e-02
1.913368925118950556e-03,-9.800359182090055299e+00,-8.374643157199317123e-02
3.412043814318168472e-03,-9.805844192733761844e+00,-8.614807230919922787e-02
1.086472387962071802e-02,-9.797906417388952960e+00,-7.977821873839857636e-02
-5.616042757583455947e-03,-9.796191071660357963e+00,-8.428676085937707174e-02
-4.711911399036499207e-03,-9.791897712995808689e+00,-7.885625525470393860e-02
-2.166733332029870292e-03,-9.793365207550964513e+00,-7.774664053615983061e-02
6.978565104140471362e-03,-9.794170212822733035e+00,-8.051420376760078101e-02
7.829432377400979276e-04,-9.794063153767014640e+00,-8.738085753669595779e-02
-4.734735322766101505e-03,-9.793377395564961674e+00,-8.637827699991484920e-02
-3.996360547742928288e-03,-9.797732742740667078e+00,-8.145044448224018907e-02
-7.340735058109027281e-03,-9.795820655453599812e+00,-7.009861770723310737e-02
7.906330022544930808e-03,-9.804749788735806604e+00,-8.309370450310318845e-02
-5.213311319709942535e-03,-9.799102046916212672e+00,-7.763475678830131232e-02
2.491217433127813560e-03,-9.789373498069235069e+00,-7.917016066011224595e-02
-1.144944113859099619e-03,-9.793102455866415923e+00,-7.888110764845270018e-02
-5.489836827581602748e-03,-9.791602206675486642e+00,-8.376390239596744058e-02
4.354818740291300366e-03,-9.800457452303430017e+00,-8.280522333347606345e-02
5.475410347537727762e-03,-9.796299618772325246e+00,-8.649774516584995965e-02
-8.175833666628480254e-03,-9.786892526531275394e+00,-8.119984544563996209e-02
1.311733009657516796e-02,-9.788600259947651594e+00,-7.800070743908808779e-02
-3.969463575663344582e-03,-9.794869466126263191e+00,-7.115313670024175918e-02
-3.077440663168167162e-04,-9.797999007053000753e+00,-8.203248956556054294e-02
6.935373628235303074e-03,-9.788027448822834486e+00,-6.898144974695286091e-02
-1.954421021582161428e-03,-9.792772992450395009e+00,-6.949709106475768228e-02
-1.618813412495356862e-03,-9.798252100977208556e+00,-7.211641551908409831e-02
-1.441487855825686337e-03,-9.797928378965814034e+00,-7.395443671319136547e-02
3.386662985086998871e-03,-9.801932276308789938e+00,-7.829354508231504972e-02
-3.331248247644081218e-03,-9.794835590726384211e+00,-6.665633693325065390e-02
-1.063143236753632875e-03,-9.780601486638062170e+00,-7.449197800748906528e-02
-8.252889605352352678e-03,-9.789025665735689330e+00,-7.641223680077185998e-02
-3.942422674064864803e-03,-9.793292266307917160e+00,-6.561342041912998635e-02
-9.120298381441883928e-03,-9.796993395559878692e+00,-7.153251599885790402e-02
-6.187179474640985485e-03,-9.795313551389911666e+00,-7.238950763723417392e-02
2.278086036763448102e-03,-9.789137804743123894e+00,-7.636849081671973072e-02
9.652496554067757813e-04,-9.802822731859043515e+00,-6.781211845294377039e-02
-2.053141859374199921e-03,-9.790739958937166421e+00,-7.310978672410380075e-02
-3.208101710299777858e-03,-9.792838645627469418e+00,-6.675780525460710269e-02
-4.979717643080808481e-04,-9.790687452403979307e+00,-7.519921757770597903e-02
7.164882174674547851e-04,-9.788606303657916285e+00,-7.121921618408526278e-02
6.640505855710427535e-03,-9.790320104984708394e+00,-6.927320427628956556e-02
7.987055293636980899e-03,-9.795201586505617897e+00,-6.930777829139528334e-02
-4.967936597729622795e-03,-9.797337555466517856e+00,-7.064042223374245033e-02
1.065330824192670459e-02,-9.792617670620895609e+00,-6.977670198120085321e-02
2.944779564292998413e-03,-9.789310432951461749e+00,-7.265272881947872075e-02
6.572646724964167388e-03,-9.798212293364137793e+00,-7.380046101547262094e-02
8.129518656927991679e-03,-9.788792100404615226e+00,-7.308722125025471361e-02
-9.857928052778930708e-03,-9.795189324617886939e+00,-7.146650897717293782e-02
-4.060128383672136250e-03,-9.788116124283813946e+00,-6.649363494720848811e-02
5.693569149928473169e-03,-9.790892513740763192e+00,-6.754817197707105314e-02
-3.247934583694000749e-03,-9.798799269461802908e+00,-7.189407541738067342e-02
-2.894178046467195398e-03,-9.793855991009436934e+00,-6.950407520485976653e-02
-6.717396392328848055e-05,-9.794267854019839348e+00,-6.379804193177081306e-02
2.984271334598918596e-03,-9.797262245366180622e+00,-6.936165950629939736e-02
6.093831846405045952e-03,-9.791333395784937110e+00,-6.701680702168340276e-02
4.133742693255267574e-03,-9.801745473110567985e+00,-5.967932685687641486e-02
4.928687009668523966e-03,-9.798345600699720492e+00,-6.839330571447183038e-02
7.270046392538521279e-03,-9.798382186411666694e+00,-6.442075528997148748e-02
-2.146189366609494234e-03,-9.800557604832151881e+00,-6.315607314229483571e-02
-1.054717773475720086e-02,-9.788394469255612407e+00,-6.131818619713644281e-02
-4.457040805523690939e-03,-9.792774514158494981e+00,-6.648925572408460882e-02
1.940223698950876378e-03,-9.791299915018212729e+00,-5.876251497480267094e-02
5.678618155690145532e-03,-9.790288368291424348e+00,-6.445605894606240560e-02
-5.142107137070372341e-03,-9.799455611019665113e+00,-6.244720539578852564e-02
7.974434917106070202e-04,-9.783157058085734548e+00,-6.879505045049726097e-02
4.904357820617786211e-03,-9.797148544355852806e+00,-5.116985766029386734e-02
1.478243544339691122e-03,-9.796724964279968972e+00,-6.690805071275099380e-02
6.094040226014924878e-03,-9.787517080603370445e+00,-6.202207417044748594e-02
1.791181017673281004e-03,-9.786493183447525723e+00,-5.398283898341063591e-02
1.401734603548208122e-03,-9.797359240400721703e+00,-5.973078511836824728e-02
-9.721015492967234259e-03,-9.795833902608569232e+00,-5.944225720425575649e-02
7.017566202380400671e-04,-9.792336695099997712e+00,-5.983889693551890099e-02
-1.698232501510008041e-03,-9.789980515010379136e+00,-5.483736724712084259e-02
-2.199041497534884922e-03,-9.803632466159765357e+00,-6.274871882735663653e-02
-1.054030414867000850e-03,-9.793130411002707092e+00,-5.898516099746547309e-02
1.169248565290628705e-02,-9.797615950190103007e+00,-5.824656757863292539e-02
-3.587613861379711829e-03,-9.789709462334048595e+00,-6.243044375005324387e-02
-3.643785319308734481e-03,-9.798471277031836735e+00,-6.366120582704097586e-02
-4.594671946391850996e-03,-9.795315615385483454e+00,-6.551839196331241122e-02
-1.496228617104306295e-05,-9.795394811147883019e+00,-5.020382806240256124e-02
1.618773674919696953e-02,-9.794086024175351568e+00,-6.138433347197432000e-02
1.344508347877541692e-02,-9.790893675490831782e+00,-5.006482528708827706e-02
-4.604552864387594958e-03,-9.791375410277856517e+00,-5.696299854534273011e-02
-1.856833554770543748e-03,-9.798417297062437470e+00,-5.919410753811683162e-02
1.318033340814659402e-03,-9.787732668264142788e+00,-5.516004278937607086e-02
-1.036463314922234612e-03,-9.789941279180894185e+00,-6.104768854126624289e-02
9.499615084376210328e-03,-9.798206168539472571e+00,-5.571371168524236195e-02
1.320112996019059135e-04,-9.796311643828541804e+00,-4.935507596064445113e-02
5.356800122631188293e-03,-9.797712519449458313e+00,-5.036237848081020346e-02
-3.209987121825471235e-03,-9.797260155377413682e+00,-5.732764598864685535e-02
-1.031317850123164570e-02,-9.793849366403243550e+00,-5.079735134804479885e-02
1.415551166752652187e-03,-9.791880898714143910e+00,-4.839380381458829178e-02
4.092612286162814611e-03,-9.799559219853444247e+00,-5.685471325604422865e-02
7.201495845502514821e-03,-9.798113690985019275e+00,-5.682133007914237643e-02
5.082109288013244783e-03,-9.796214936572363641e+00,-4.490725122763310206e-02
-2.851727583983677469e-03,-9.792099521992549072e+00,-4.834046240384534676e-02
-4.273280890989526043e-03,-9.789763250743616751e+00,-4.744356406828119377e-02
4.292324651541733031e-03,-9.800868823651843087e+00,-5.819287332375468191e-02
9.524017889083292304e-03,-9.800542222722002705e+00,-5.499014604877559137e-02
4.470122456310562887e-04,-9.795234045746768814e+00,-4.937772603441685504e-02
2.888641999710531323e-03,-9.801337713437105137e+00,-4.815063817455245837e-02
2.277880021194225550e-03,-9.783809727596755934e+00,-5.397083993541847841e-02
-2.700148193644502648e-03,-9.788470073511403413e+00,-5.555864247045428500e-02
2.098575747240629275e-03,-9.792841317464398898e+00,-5.553796897394934484e-02
8.224726695838907023e-04,-9.788718364547193573e+00,-4.138979949560659538e-02
3.076629527735675468e-03,-9.792328212868115500e+00,-4.992332491963550473e-02
-9.783197959686040258e-04,-9.799254748737997289e+00,-5.262930486034884947e-02
6.586529300822202039e-03,-9.790710242975128708e+00,-4.383962758633912216e-02
6.980906164139380737e-04,-9.785078561300343480e+00,-4.309585830685864344e-02
2.329739205280141785e-03,-9.789845257897059838e+00,-4.404842107294051901e-02
1.246934441887704919e-03,-9.796232601769270687e+00,-5.719217457282423783e-02
-1.773163875229039109e-03,-9.794386581437748873e+00,-3.554167481919091875e-02
9.196694350429010512e-03,-9.786845414200477933e+00,-4.931100392275745981e-02
5.885459591345674688e-03,-9.789371432168529452e+00,-4.570952229735068817e-02
9.045254762448625904e-03,-9.797086655143550260e+00,-4.743804861588671318e-02
-2.623717086247986420e-03,-9.798122372861367779e+00,-5.247813885053978500e-02
-3.858745629064064524e-03,-9.783959296582064979e+00,-3.727462594106560612e-02
-6.832100524973514985e-03,-9.792936918155284332e+00,-4.668887133705904025e-02
-4.178430976649087571e-04,-9.803122442598320774e+00,-3.762235841824667498e-02
5.217433070353435370e-03,-9.796377125944772501e+00,-4.386874560742122509e-02
2.297252854442708922e-03,-9.807049949684857992e+00,-4.486313264578551535e-02
5.507000873727772167e-03,-9.794514589825388029e+00,-4.412643557865621874e-02
-3.021928066624416168e-03,-9.801234206007219285e+00,-5.584929204978594797e-02
-5.944609301739911056e-04,-9.795817759455246687e+00,-4.631185789312487755e-02
-4.675732195607897870e-04,-9.794613543945372314e+00,-3.613198521672923019e-02
7.493107800191826581e-03,-9.798793310521059396e+00,-4.302802153926332807e-02
-2.337591586134854602e-04,-9.792652565727578917e+00,-4.490912992276355903e-02
3.320979606070195711e-03,-9.800403782288775290e+00,-4.868184567968834864e-02
-4.867324793628670723e-03,-9.795778930730852707e+00,-4.457534044492560826e-02
-7.238177966757970271e-04,-9.800274558691517868e+00,-4.352488390934083906e-02
-9.361673731235420565e-04,-9.792715349312608453e+00,-4.241063693098070381e-02
-1.193664837236743355e-03,-9.788491030318796859e+00,-3.934163637421995291e-02
-1.184727867913809227e-02,-9.796307720292277921e+00,-4.952773023081772502e-02
-2.872950147474066362e-03,-9.790740646504744404e+00,-4.078135824308740803e-02
3.515528677166482579e-03,-9.803657103988687282e+00,-3.839996251411913891e-02
4.107956266839111852e-05,-9.787252188544714571e+00,-4.372004055694599794e-02
5.354306383718230450e-03,-9.790766396419261497e+00,-4.032906949003813024e-02
-2.456061082173091950e-03,-9.793871927280886069e+00,-4.541433581510462975e-02
6.617110728655943575e-04,-9.799133536045223636e+00,-3.416036964906486728e-02
1.755227412518832832e-04,-9.799277727009060968e+00,-4.381862720890240814e-02
-5.483022318530238366e-03,-9.793621422113135466e+00,-4.571755342877485695e-02
6.746371659025891289e-03,-9.803016934247503755e+00,-4.853297593850074837e-02
8.832582561679539965e-03,-9.796419088836721301e+00,-4.156197969229547678e-02
4.390005966703166077e-03,-9.799748857228234300e+00,-3.883168697222472154e-02
7.629378315330200347e-03,-9.796990559105443808e+00,-3.542994981207774063e-02
-3.879366811933849992e-03,-9.799397372396093431e+00,-4.222979079561242632e-02
4.633108338769738321e-03,-9.788448392011552812e+00,-3.601203074217432937e-02
7.741967070526456843e-03,-9.793828604768528123e+00,-4.650133149265110732e-02
1.367702804969648600e-03,-9.799654489866476581e+00,-4.475644918224445934e-02
-5.200301024115464889e-03,-9.797148428900015915e+00,-3.368218638544293736e-02
-4.366957535309723068e-03,-9.799401809434741040e+00,-3.947158290761112326e-02
1.082492607314649267e-02,-9.797901911825576349e+00,-4.551281882790899486e-02
5.971876671412312994e-03,-9.797382583486365704e+00,-4.419361062959283742e-02
-5.856447987088736137e-03,-9.797256761272141290e+00,-3.291865386092608647e-02
2.915515826853225679e-03,-9.795027003789337883e+00,-4.155636504667949843e-02
2.575579269173624945e-03,-9.794405739493649676e+00,-3.776803890430747296e-02
4.240645592187290876e-03,-9.800815290146271508e+00,-4.175963086703309013e-02
-5.640470722839559768e-03,-9.795896202164820821e+00,-3.629984351003495008e-02
4.697872261166577586e-03,-9.799436383605431899e+00,-3.431129487157717761e-02
7.131031052330833592e-03,-9.788926558358705066e+00,-2.944687929243252483e-02
6.795184657689420406e-03,-9.805405341246524742e+00,-4.200958214725707129e-02
7.537547948169049696e-03,-9.793066646086634464e+00,-3.753681597633337641e-02
1.853344677351390947e-03,-9.785603398975393219e+00,-3.844016251971892756e-02
-3.240919339626374424e-03,-9.794970307410027388e+00,-4.081160787391725081e-02
-4.396721373099954713e-03,-9.789775801970684199e+00,-4.148340178207691326e-02
2.201898051152774167e-03,-9.794659932305627592e+00,-3.736528258051081269e-02
-1.907397375877651832e-03,-9.797156228067361639e+00,-2.922977225363036780e-02
7.713001010239614423e-03,-9.794367116940561502e+00,-4.341973373865428559e-02
-1.712376072098670179e-03,-9.795847491224559889e+00,-5.134128123846968400e-02
-7.263157632731324052e-03,-9.795398390123652987e+00,-3.827540705355573364e-02
1.414069725930331041e-02,-9.791354733058648563e+00,-3.117277824156129001e-02
8.118691401566937617e-04,-9.795924485489390321e+00,-4.065224868355161308e-02
9.556451011664503226e-03,-9.794446328878510855e+00,-3.671180921655292639e-02
1.197698649265393871e-02,-9.793615096082181282e+00,-2.182115457115637452e-02
1.407201642758114163e-03,-9.785675875760242448e+00,-4.049997758839116169e-02
-4.649093611553178733e-03,-9.787392912560921587e+00,-3.068809510896603962e-02
4.518903335649682856e-03,-9.797477761030283006e+00,-3.306315676304863449e-02
9.476146400295378837e-04,-9.787376571962138172e+00,-3.086543041688611516e-02
-4.816112423147710445e-03,-9.785506036454201251e+00,-4.002319960917175706e-02
-7.581363795548212194e-03,-9.792986973226280867e+00,-2.792774235402721225e-02
-4.628421953605522097e-04,-9.785426313631546691e+00,-3.363162737061276691e-02
-1.821407453812641042e-03,-9.799415717714682117e+00,-3.194253892119261473e-02
2.533011972045029914e-03,-9.798056367232799602e+00,-3.279130532857801178e-02
5.860826556180183909e-03,-9.797481233154909930e+00,-3.818113173750597306e-02
-2.496799223254629694e-03,-9.795970758994879901e+00,-3.279467728949172350e-02
1.229615089426037630e-03,-9.785157544722524747e+00,-2.012247186342736027e-02
4.068775095557147434e-03,-9.799479576685532933e+00,-2.419539689121446777e-02
4.970324193991850284e-03,-9.785723969698489455e+00,-3.681400364172644074e-02
-2.411978650778643166e-03,-9.793294995158840166e+00,-3.496390750208865084e-02
6.088457242414193130e-03,-9.801778828609659655e+00,-2.504952534070816264e-02
-6.448503938746832833e-04,-9.793170671013164963e+00,-2.907139768858139905e-02
3.074739488467002901e-03,-9.788414944092592052e+00,-2.435588800326334014e-02
-2.923719805414851970e-03,-9.793148746929015047e+00,-4.089041730275468078e-02
7.508486561641062630e-04,-9.792536691249772218e+00,-3.702541621846339170e-02
-1.011827233864024886e-02,-9.789393580445260312e+00,-3.688368699760714853e-02
-1.874288867812659836e-03,-9.794679376816715077e+00,-3.320923515744664267e-02
-1.569496435094392675e-03,-9.795338728235208237e+00,-3.614927319618488344e-02
-9.376376115456134738e-03,-9.801716483042044459e+00,-3.897406474499642837e-02
-3.012788780787562827e-03,-9.794868178796336977e+00,-2.913446366104673405e-02
4.915813350730848874e-04,-9.799605990046902804e+00,-2.509594425442826515e-02
3.478077959303791777e-03,-9.797159214599155064e+00,-3.552995256060240831e-02
-6.358392375308150046e-03,-9.796238710020753970e+00,-2.429306785844482022e-02
2.653852515100381566e-03,-9.791031539569532427e+00,-4.049424358113803274e-02
6.150580588227433018e-03,-9.791199782160973086e+00,-3.262047125465777908e-02
-3.439068033716573356e-03,-9.795998960424107338e+00,-3.077040018362111468e-02
-5.334266412290729169e-03,-9.791489084376763685e+00,-2.630491955356056843e-02
3.576225729740655206e-03,-9.804444040716017383e+00,-2.359430311589078705e-02
-3.601592611659688750e-04,-9.798660865122903019e+00,-4.003084920920980949e-02
-2.265941020909517656e-03,-9.787628330946107624e+00,-2.495075413947732065e-02
3.027588214014549466e-03,-9.794042590364201217e+00,-3.372423048624650921e-02
3.550293187117528441e-03,-9.797768634646008223e+00,-3.117217116928591714e-02
-7.120248915032617414e-04,-9.790920129780394277e+00,-2.833984507238482969e-02
-3.549334515347168061e-03,-9.793849332110744044e+00,-3.020955073178158840e-02
-1.118054871781037560e-02,-9.792947696647464895e+00,-2.985444985915647678e-02
-6.572909637208957517e-03,-9.804088366162874379e+00,-3.325917929539956575e-02
6.553154558667474532e-03,-9.793275836728053463e+00,-3.236566452130181654e-02
-1.082805568961206976e-03,-9.797601384723728657e+00,-2.768455092278603730e-02
3.350477626124458846e-03,-9.796823333927896726e+00,-2.412536172699824427e-02
-8.336759713229714664e-04,-9.785391425582846026e+00,-3.117035286986770404e-02
-9.120831672546013055e-03,-9.794894788704045396e+00,-2.988669609956223425e-02
4.991471802387682701e-04,-9.786629923274178466e+00,-4.137439352276438276e-02
4.526353700450788404e-04,-9.789525675865965226e+00,-3.299447112669962046e-02
-2.298440561970610356e-03,-9.792172959696458179e+00,-3.853553184046205893e-02
-1.204012770314515264e-03,-9.788788378755199915e+00,-3.313976160584442693e-02
3.230284522897581938e-03,-9.793482656446636625e+00,-3.101735620257982037e-02
1.304448343420874356e-03,-9.803704499918959314e+00,-2.134379966665844730e-02
-1.004071165792828294e-03,-9.796093010277092006e+00,-2.774314920549968144e-02
-3.748514532616420794e-04,-9.788091846471933977e+00,-3.118459057773466381e-02
6.841817454649406702e-03,-9.793863948806620812e+00,-1.802958618812241370e-02
2.136221831622601725e-03,-9.790416674227357063e+00,-2.344842743346572944e-02
5.109920587890530094e-03,-9.794582137890856188e+00,-3.494027536577523629e-02
4.459056261632842431e-03,-9.791877691497115066e+00,-2.353875657779403233e-02
5.993223795003066630e-03,-9.785495835755014582e+00,-2.412758913774755778e-02
4.656469340770987703e-03,-9.795992155641950916e+00,-2.929252286556365339e-02
4.233988301695501208e-03,-9.797680532832982792e+00,-2.748567647314027751e-02
-6.073646935193586886e-03,-9.795277760146284152e+00,-4.178916361116405409e-02
-2.673311493438750952e-04,-9.786869591753065478e+00,-1.979440976494524843e-02
1.987646784103009982e-03,-9.784835593481068017e+00,-2.777227208497813279e-02
-6.485324275623644344e-03,-9.798492186518771518e+00,-1.358454500415059128e-02
-1.087508499202287848e-03,-9.790890352558454524e+00,-1.465793061368403719e-02
4.922204884432112085e-03,-9.795685919494545146e+00,-2.438517242397323509e-02
1.196029732839357096e-02,-9.791424835184791675e+00,-2.213993853682037077e-02
8.017828136669808564e-03,-9.794085979660778207e+00,-2.084048638104711582e-02
1.469888299681205773e-03,-9.795239104121067797e+00,-1.986215029097869109e-02
4.104211111071013468e-03,-9.788952833433143041e+00,-2.116077323943990965e-02
-6.337716635052115894e-04,-9.802096046152643183e+00,-2.621123917594029434e-02
-6.665523495324050460e-03,-9.792179802504387354e+00,-2.121907960646542135e-02
-2.163803328847852762e-03,-9.789496003711406047e+00,-1.435882406840940061e-02
-1.198281028913860281e-03,-9.799713289301587693e+00,-2.800087957769726785e-02
1.170198696337262229e-02,-9.790197611793875154e+00,-1.593220208079307310e-02
-1.404767660220583841e-03,-9.783430850909791587e+00,-2.354767914306021143e-02
7.371199015984879373e-03,-9.791456979272803451e+00,-1.693127782975507173e-02
-1.222505728206075767e-03,-9.786099341289499876e+00,-1.311383914159219670e-02
2.149764770940421066e-03,-9.788845714769463413e+00,-2.358743694969202970e-02
-2.929681453993992091e-03,-9.792194419746753198e+00,-2.992790065676794592e-02
1.178956825109739488e-02,-9.793207799007813463e+00,-3.129975033905529891e-02
-4.489281256450031697e-03,-9.795858011548002509e+00,-2.130907289701681334e-02
-7.207376829965947678e-04,-9.792136591437486715e+00,-2.744517839601168241e-02
2.396405733162360573e-03,-9.794663070217724865e+00,-1.729715533975368508e-02
-9.903650284056169165e-03,-9.796648558455204991e+00,-1.597516795086845187e-02
9.654948061666641414e-04,-9.799931654749755694e+00,-2.282975237754097594e-02
6.734027654242498353e-04,-9.797812472422322116e+00,-2.242892063440113382e-02
1.933236151328807627e-03,-9.796155840257622316e+00,-1.688572563532558454e-02
-2.531614853372066327e-03,-9.795110800889485603e+00,-2.244330206767068681e-02
1.490187401705656825e-03,-9.803347461623971526e+00,-2.060789804757091545e-02
8.032587764620315518e-04,-9.798509102521329339e+00,-1.413982787677857747e-02
-5.318606379714940074e-03,-9.799011242509566344e+00,-2.591608151303347041e-02
-1.352654752191127970e-02,-9.796523232638833178e+00,-2.688542911767590263e-02
1.567849219237080812e-03,-9.789228653687203519e+00,-1.811181679823165719e-02
3.601934161592675650e-03,-9.800926407280146080e+00,-2.692929185848779230e-02
-5.804329078364162814e-03,-9.807429774063548322e+00,-1.608053361181353141e-02
9.898904029981092732e-04,-9.794704526162119507e+00,-1.931679670046285852e-02
-8.419074631415938981e-03,-9.800835522606440975e+00,-2.073339809508130058e-02
3.239531074467625130e-03,-9.801401382129547812e+00,-2.657907425701745707e-02
5.941686454753457823e-03,-9.792832786815045765e+00,-2.750304474391183918e-02
2.627025554369173460e-05,-9.787839264003903139e+00,-1.893887652264383825e-02
1.326829943483092506e-03,-9.786026744519231713e+00,-2.277265906430859382e-02
1.751771170035804287e-04,-9.791370123717685559e+00,-1.504763153745379209e-02
-2.452169227612761675e-03,-9.806197246986561922e+00,-2.283188262200389063e-02
-2.781196609109014631e-03,-9.789729417460309335e+00,-1.893444904110955229e-02
-2.574276873741212102e-03,-9.789041788928617649e+00,-2.735064062220501219e-02
-8.295994198988902724e-04,-9.797266938925973889e+00,-1.811419167775997138e-02
1.469554341137110400e-03,-9.787661104763966335e+00,-2.431076847472687930e-02
1.274258189049429658e-03,-9.803645491645566423e+00,-2.833291196349004004e-02
-5.425421975240675258e-03,-9.795694919823812796e+00,-2.388755552878597810e-02
-3.945202681050335135e-03,-9.796608307040305164e+00,-2.086158204516990952e-02
-4.310730867423935228e-03,-9.795757477875342900e+00,-1.631416523678298758e-02
4.625122083745091331e-03,-9.797967824401396797e+00,-2.566192031379220528e-02
-1.175929548405471679e-03,-9.790478874080882576e+00,-2.219598735602724277e-02
-1.943641792902757633e-03,-9.790324475327668807e+00,-2.338849603298134849e-02
3.080008664997837577e-03,-9.795848346329712797e+00,-2.691662082919410795e-02
4.675743957955762892e-03,-9.797033876291056487e+00,-2.484505619436103152e-02
2.533326078847046754e-03,-9.799792146920630387e+00,-1.759438329300199583e-02
2.739455019286623962e-03,-9.798558607942204901e+00,-1.587818448242367397e-02
2.974125456118569336e-03,-9.788915232211248707e+00,-2.283036355960711000e-02
-4.750294377977624417e-03,-9.790809419333275088e+00,-1.265606442894998476e-02
2.884178503542345669e-03,-9.801664011604962923e+00,-3.016583602523208174e-02
2.656698183892914223e-03,-9.795067815158024160e+00,-2.485455965285411281e-02
-1.464476504668533021e-03,-9.793170533597203686e+00,-7.471546751592034186e-03
5.279684134563043633e-03,-9.792766042194214648e+00,-2.250307553968741714e-02
3.741210933592716611e-03,-9.793739754988481039e+00,-1.143420611781912483e-02
1.728288486940635516e-03,-9.791638978429473283e+00,-1.856494714893715606e-02
9.042975626248086346e-03,-9.792354645266541979e+00,-2.277873592069842162e-02
6.256753400887428603e-03,-9.800693021996462306e+00,-1.414624785626977452e-02
4.777641572555810061e-03,-9.802031693864742934e+00,-1.702918606492365150e-02
4.227971082020950434e-03,-9.791410016495799340e+00,-1.916911340905183905e-02
8.745137729610458037e-04,-9.794685165202118071e+00,-1.242270100391918222e-02
-2.243082742256195285e-03,-9.790530930384361952e+00,-7.421834977479401657e-03
9.930751312464884510e-04,-9.793886697730059154e+00,-1.996929406008590702e-02
-1.092999594972800075e-02,-9.791886541514793763e+00,-1.735749269604684036e-02
3.163854989719379601e-03,-9.791591941964799872e+00,-1.501363576483938367e-02
-5.370218486371758360e-03,-9.796362368029496892e+00,-7.041926441526100838e-03
2.700293199393240511e-03,-9.795369609119234156e+00,-1.942638895891677514e-02
-9.040719008475778251e-03,-9.792653816964577373e+00,-1.554436265759836025e-02
2.612812117335319793e-03,-9.801534381143186536e+00,-1.864159720500411718e-02
4.354614461675144869e-03,-9.797303971480859630e+00,-1.848849204053074416e-02
5.300262264528719271e-03,-9.796279898354388393e+00,-1.892005013420102952e-02
1.243438412479680108e-02,-9.791681692790277225e+00,-1.763834262648965312e-02
5.255176124831841553e-05,-9.794187132869582868e+00,-1.959316042078170644e-02
2.407634141423451585e-03,-9.795556573530902256e+00,-1.554424946231103624e-02
1.602875461956321419e-03,-9.790975988170988131e+00,-1.417115126780248320e-02
-3.698050411126384707e-03,-9.783086215826111598e+00,-1.259954796332647502e-02
1.347033920306983917e-05,-9.787639250561777970e+00,-1.398442403308380703e-02
4.425227967035504952e-03,-9.798465120907584591e+00,-1.744673560179487923e-02
-5.892438513619259813e-03,-9.781926565895343373e+00,-1.379807893131728552e-02
6.215835010155466162e-03,-9.800533282303456772e+00,-1.399891092490917338e-02
3.690316899037259912e-03,-9.791522249097655006e+00,-5.939274767609652519e-03
-1.307906491016871953e-02,-9.792538713160812591e+00,-1.087692036833778214e-02
2.157773926919052780e-03,-9.795502476317452079e+00,-2.573515926700997020e-02
5.843549618597200339e-03,-9.794056275980922877e+00,-1.541972970521419788e-02
5.674390815130599813e-03,-9.795067954922352271e+00,-1.297594837419903738e-02
1.020723254165040693e-02,-9.801963865125475905e+00,-1.099007735760248843e-02
9.286236547895275820e-03,-9.796359816307294466e+00,-9.348914532500134100e-03
-6.228386370273248512e-03,-9.787333205481186127e+00,-9.138523947173658041e-03
5.030599192874572398e-03,-9.797666343853952853e+00,-1.229820935088051306e-02
-6.604596174571050228e-03,-9.791631966598810521e+00,-1.836827121136078156e-02
-1.498016277982409244e-03,-9.785946249246626039e+00,-1.824437695678059884e-02
-3.946917854641383144e-03,-9.798390438261147750e+00,-1.606437882741336073e-02
-3.798891479451735245e-03,-9.790138124822952648e+00,-2.200141162861634150e-02
-3.373133921361047734e-03,-9.795780176882249890e+00,-8.919878677484425339e-03
-2.991507045369072668e-03,-9.805289165359816650e+00,-1.500722022650398044e-02
2.846384014882655852e-03,-9.791460794116865429e+00,-1.545243052037482273e-02
-5.128830758442607784e-04,-9.798811665353639455e+00,-8.917647344142708155e-03
1.328336217590090317e-04,-9.788770458849871403e+00,-1.153173442725007741e-02
2.527171015307447081e-04,-9.795591627365924481e+00,-2.445940715462895099e-02
4.841926619705147960e-04,-9.798536923791912656e+00,-1.063481551009122852e-02
-1.506084084517656744e-03,-9.797740696653768566e+00,-1.325008288940742254e-02
-1.060016515867754543e-03,-9.794016515904193199e+00,-1.619227618294616367e-02
1.808563664099664377e-03,-9.796198574042179530e+00,-1.010890925753857653e-02
-2.108404365513504800e-03,-9.797283226923331867e+00,-9.929909267838496825e-03
7.607774160196399856e-03,-9.794835780028391170e+00,-2.337404368500098015e-03
7.933727739411918639e-03,-9.791707791831390395e+00,-1.981781067643541630e-02
2.068519225675525576e-03,-9.798231504924842739e+00,-1.701489777866469974e-02
-5.152748831054664936e-04,-9.793318145384061424e+00,-1.995614067215246631e-02
-2.911245726386904424e-03,-9.803173509124050611e+00,-1.363109392181929488e-02
-5.224002299526358736e-03,-9.795511662712609535e+00,-1.715168018423019608e-02
-7.107693486857794528e-03,-9.790373690266845230e+00,-2.507516550355951002e-02
-5.581452227043598099e-03,-9.794946077377753468e+00,-1.555401282677051911e-02
7.570032499355774588e-04,-9.787039232842555947e+00,-1.953727068033690728e-02
-5.020405842147554303e-03,-9.803069757048335831e+00,-8.023429849667355895e-03
8.429526647158605904e-03,-9.793348689325181766e+00,-1.698917406669735869e-02
7.305358043983413777e-03,-9.793373997105135231e+00,-1.648763958266600410e-02
-2.587087771839425340e-03,-9.798424939234211095e+00,-1.086459804361703321e-02
-2.459910790774637659e-03,-9.794856543246783787e+00,-1.234752852964716464e-02
4.779269150800476325e-03,-9.791380090833170513e+00,-1.493331240967736562e-02
1.878916211817907621e-03,-9.798896534000606451e+00,-1.918453476580889508e-02
-4.941807920865420693e-03,-9.800072114261425327e+00,-1.178428975325401980e-02
2.279573045187275378e-03,-9.791920903696000877e+00,-1.752562952894404572e-02
3.822731654441092683e-03,-9.797286708170602765e+00,-1.476524868756969727e-02
-1.203631596950151131e-03,-9.795302564594805972e+00,-9.486122419005125345e-03
5.876853785218637098e-03,-9.799884069028484745e+00,-1.338637449595617146e-02
8.595595811503885936e-03,-9.786508007720186697e+00,-8.084664573126894987e-03
-1.290329352583988913e-03,-9.805343317763536959e+00,-2.900253227598528771e-03
6.466505026347466739e-03,-9.792914800573118583e+00,-1.726277815492435405e-02
-1.105568629620962313e-02,-9.788458319522792550e+00,-7.472970596513573566e-03
-3.047193638139431612e-03,-9.801706345775512474e+00,-1.648785888209363185e-02
3.521851429571057433e-03,-9.796124587482426094e+00,-9.097301510087965268e-03
5.941368667812195123e-03,-9.789595571256192841e+00,-5.598075131444320805e-03
3.195707721075478729e-03,-9.797439282900361590e+00,-1.348549620480101949e-02
8.962806695705523817e-04,-9.803405708340024560e+00,-2.671014056287645752e-03
8.327706730701297036e-03,-9.791118710082747256e+00,-1.237207901795708137e-03
3.548907495247742355e-04,-9.796711038115615722e+00,-1.933772514449849655e-02
-9.549673134314406661e-04,-9.787326589999258530e+00,-1.355759117436934960e-02
1.446291176456814334e-02,-9.797976983515241045e+00,-2.211246708825695406e-02
5.001377332386024513e-03,-9.785464079255728365e+00,-9.984760544993405082e-03
4.833750489082332298e-04,-9.802641882048522604e+00,-5.693235415404096153e-03
-2.055549871570289296e-03,-9.793507762840450326e+00,-1.462733017371081225e-02
7.338574467534240975e-03,-9.806518335874285341e+00,-7.838501295196979163e-03
8.544808298420110762e-03,-9.792281361354367775e+00,-1.378830416445767787e-02
3.397471178388508715e-04,-9.790313868505878148e+00,-6.095432112480631166e-03
-3.983514700002746371e-03,-9.787192035245391608e+00,-1.998156733442199573e-02
8.956681378706973090e-03,-9.788251022298881665e+00,-1.251373535915151734e-02
-1.230918437085904392e-02,-9.791497342777486068e+00,7.169246390546207132e-04
1.002317373793681042e-02,-9.791569569015004859e+00,-2.348231527611909647e-02
2.762374111981230444e-03,-9.792799443855539465e+00,-1.525950094836014612e-02
1.188915372288990458e-03,-9.791401544690357284e+00,-4.485843929591284800e-03
4.769647909933975513e-03,-9.795071692726827095e+00,-6.788692705800487316e-03
-3.510755560450579994e-03,-9.798765553357995373e+00,-8.434292493579889985e-03
-3.269100086629041658e-03,-9.796013447385462314e+00,1.563021625175450846e-03
-6.360917292472084532e-03,-9.795575273885013701e+00,-9.150594588021591230e-03
-8.702535158831670864e-03,-9.793196171123941696e+00,-9.455714032852535408e-03
8.680597223066695723e-04,-9.797239806885416513e+00,-7.882951994331019452e-03
-5.827491424843915004e-03,-9.785787326641896655e+00,-2.554549129206031000e-02
3.250196859490310421e-03,-9.794250386140952003e+00,-7.664645341374721338e-03
3.017543091121602152e-03,-9.786496131004877697e+00,-1.582452464749597998e-02
2.717549085776530069e-03,-9.790814278887738809e+00,-9.244442148333203643e-03
1.364518522456457331e-03,-9.797679313896180631e+00,-1.838848816363112398e-02
1.530857531939033671e-03,-9.793175531874227957e+00,-9.155287012635600699e-03
-8.577178397988983322e-03,-9.795667395712740699e+00,-1.271102898758240049e-02
-5.122927416178116485e-03,-9.789289750316539696e+00,-1.024281568851051136e-02
3.721492198942995180e-03,-9.790921296026322551e+00,-9.323630466826365176e-03
-1.315101953017954210e-03,-9.794998423732485193e+00,-1.492380018313312420e-03
3.683613972475394127e-03,-9.806588648175910805e+00,-1.775299293619313212e-02
8.143007590594745701e-03,-9.792036095981300647e+00,-8.956667485924990971e-03
-3.652136181979825143e-03,-9.791943712213468487e+00,-6.011756316821076362e-03
-2.136908998015927142e-03,-9.795708763913646422e+00,-8.970286068636606006e-03
-5.415020272486774887e-03,-9.799563069138732985e+00,-6.054298066851464093e-03
-6.101749055145658934e-03,-9.796195687725170131e+00,-8.769915380340886912e-03
-9.378808857494317502e-03,-9.796572727010309123e+00,-6.777185206821445193e-03
3.320955514026549191e-03,-9.791722369780615054e+00,-4.815813657530689136e-03
1.614032637093810920e-03,-9.796979309125529056e+00,-1.149691645597349966e-02
-2.493276251075680211e-03,-9.787042108945227525e+00,-1.194397655691404984e-02
-7.848601190309887829e-03,-9.796619124798146672e+00,3.899022745498520806e-03
1.147851239196115468e-03,-9.795203437817081138e+00,-1.389709587472682736e-02
-3.649889632399825994e-03,-9.797732268480762841e+00,-7.514014709758016532e-03
7.374426102345895762e-04,-9.808303579988800536e+00,-7.103052811916399888e-03
-2.947994292968968751e-03,-9.787157521986850739e+00,-9.505689348223050547e-03
1.678741845882449242e-03,-9.801648578421438884e+00,-8.569391735142149399e-03
-4.159511474138158707e-03,-9.797247499398318737e+00,-5.858413858281208073e-03
4.821858802970315286e-03,-9.787864991810630855e+00,-3.606052155515969242e-03
-5.496727581632230956e-03,-9.797350338628342925e+00,-1.068714673549171074e-02
5.362044274418414913e-03,-9.793726135127901244e+00,-1.705142584362812075e-02
5.275573970862947742e-03,-9.788543487595118719e+00,-1.350217834926926118e-03
-1.009370865497355744e-03,-9.799784743026059175e+00,-7.214918887503043998e-03
7.516037618270972331e-03,-9.794201853278636349e+00,-7.059764959667460572e-03
-5.322642235736798830e-03,-9.788380280685375467e+00,-1.533555373685916573e-02
-1.679713460319216117e-03,-9.800746257505014825e+00,-9.195835740835900732e-03
-1.603027221430509920e-03,-9.790823074639247281e+00,-8.586328131216285076e-03
1.251257631495030507e-03,-9.803114894125597445e+00,-5.826467717504240154e-03
5.612774084934189951e-04,-9.796013319148837439e+00,-2.081356414896880919e-02
6.109243788148728885e-03,-9.793113434101185177e+00,3.449035016007698240e-03
1.258139770297291363e-03,-9.803122600483098026e+00,-9.366279379419948509e-03
-5.822044958695499033e-03,-9.795347952667402325e+00,-4.331530798553123035e-03
4.211178144327924928e-03,-9.796060122594086650e+00,-1.452108167179437873e-02
1.358676913079011122e-03,-9.791273594301475924e+00,-7.232169839581104390e-03
6.772814147354220236e-03,-9.778847330050750131e+00,-1.060708414320465226e-02
1.403560074229678271e-03,-9.803771019861910574e+00,-1.071660787858848274e-02
-6.487399835179833742e-03,-9.796269931655162466e+00,-1.844451152222596063e-03
5.075398995912806929e-04,-9.792140782645573083e+00,-1.151764915149757970e-02
8.592822189231832421e-04,-9.793271498120004637e+00,-8.281025935382999373e-03
1.934467125476652984e-03,-9.792015616278295198e+00,-8.758567064322247270e-03
3.372237503679085570e-03,-9.795182676629433871e+00,-1.062762808478509916e-02
5.403253294287895490e-03,-9.792924188817019981e+00,-1.068129563570579046e-02
-2.672200218686040640e-03,-9.790713338670258281e+00,-8.934539488759675116e-03
1.891229952064792585e-03,-9.805985382690492358e+00,-2.737740109350485056e-03
6.412096081869710605e-03,-9.801830899027990540e+00,-1.030880811286740209e-02
7.026954384023445174e-03,-9.793714244498685773e+00,-6.204661134102021358e-03
-5.155145064626940818e-03,-9.797268055832519806e+00,-6.677822841078886150e-03
2.496746950862684371e-03,-9.790054605815164734e+00,-1.365837985119506756e-02
6.942510387492107672e-03,-9.794656511385362307e+00,-1.685452846895644369e-02
-7.399854347620961510e-03,-9.793711624971853880e+00,-3.867438587010391202e-03
-7.573156503403784094e-03,-9.788937218178141109e+00,-1.126114751979590684e-02
-8.765245449508260109e-03,-9.798920584911501308e+00,-5.012711767048974240e-03
-2.114476919913854842e-03,-9.796540954082821884e+00,-4.917884388913811716e-03
2.504154331747579249e-03,-9.794765953351896925e+00,-1.142020346284481659e-02
3.821818155618515300e-03,-9.792643736809811372e+00,3.243212546669788088e-03
-6.101608426981564373e-03,-9.795844930634123315e+00,-7.549899931925705548e-03
2.825814340436789279e-03,-9.790983139125922108e+00,-1.258502040132544568e-02
5.969891972407322805e-03,-9.791044097412763492e+00,-4.601985080293604508e-03
-1.427893404588727929e-03,-9.797773346642934200e+00,-8.741818950067705221e-03
7.219909522686474013e-03,-9.798196167162252834e+00,-6.846298053873826200e-03
1.931980435729199058e-03,-9.797357886300877894e+00,-1.697355957334038649e-03
5.985024150243775133e-03,-9.794522186732750768e+00,-1.692381547536665927e-03
-2.589727362850307527e-03,-9.801323300517417181e+00,-2.091725860716341784e-02
-6.382980498197491845e-03,-9.802834172027012016e+00,-4.559074836187999684e-03
9.802836405591446381e-03,-9.793396828199433912e+00,-1.198779914502984267e-02
1.893097338348075954e-03,-9.801029615980844767e+00,-1.161854595110953237e-02
-4.680161987533538841e-03,-9.795303398586343135e+00,-3.718713019577317858e-03
-4.709271341129732218e-03,-9.793137448330226036e+00,-4.310481388139394444e-03
-5.134124934915675585e-03,-9.797591236257719771e+00,-3.486991393642934270e-03
1.414792190508081752e-03,-9.802958565840995675e+00,-1.429125285133288695e-02
1.845554845931208880e-03,-9.787372542912049056e+00,-6.262725828612417632e-03
-8.235634283888203233e-03,-9.797056566847841097e+00,-2.348949784986762573e-03
-9.853870459060436182e-03,-9.804588112877793193e+00,-4.643080571272972454e-03
-3.880387369028906290e-03,-9.794946138543521030e+00,3.947065753259829113e-04
-9.318538727097166238e-04,-9.800220081626621393e+00,2.885008080066263185e-03
7.894133279775903192e-03,-9.786708324214723476e+00,-9.661543122137473613e-03
3.527658928756591521e-04,-9.797870797684174349e+00,-6.036045785221337036e-03
-5.853265658994241845e-03,-9.800464606371935616e+00,-9.650434436850726869e-03
-2.840118893825492336e-03,-9.800484114023221949e+00,-1.663057345081757343e-02
9.429332648147577614e-04,-9.791640822809990041e+00,-2.415591379119604552e-03
5.602295900030811356e-03,-9.788362847101902631e+00,-3.797706486356466470e-03
-7.337490216153738903e-04,-9.800573082128570590e+00,-2.732876561439311677e-03
5.521155905569291242e-03,-9.789295085494121196e+00,4.630097504997348311e-03
