gyro_x (deg/s),gyro_y (deg/s),gyro_z (deg/s)
7.950938191220935369e-01,5.347033253659525531e-01,5.074862256499095281e-01
1.102253111149511522e+00,5.147511048915234255e-01,5.162552224911055587e-01
1.455373380855510490e+00,5.789082281535172791e-01,4.746766027252783404e-01
1.812603872211964173e+00,4.561524239098794786e-01,5.328229888808948544e-01
2.074431413559714166e+00,4.849360633925053898e-01,5.450931654778869984e-01
2.438839587720575963e+00,5.155989119776175356e-01,5.421163218761366753e-01
2.666291976453513790e+00,5.033752499477982534e-01,5.472728667719553020e-01
3.007021021724125998e+00,4.802988668595585819e-01,4.831553489130020473e-01
3.338879896038717376e+00,5.071833202676272467e-01,5.112815770033634077e-01
3.652225225983035894e+00,6.103284473428993717e-01,6.478558314298166199e-01
3.948191058136742093e+00,4.987868899141749690e-01,5.905066223866323183e-01
4.238162075246366456e+00,5.598085737799435302e-01,5.504315815859587291e-01
4.618644427590012924e+00,5.080544294622711954e-01,5.401158196198903028e-01
4.864583688599340761e+00,5.627449384058950121e-01,5.066656346333757721e-01
5.201910774063710718e+00,5.404841522719295854e-01,5.509632770012711234e-01
5.492366409068967670e+00,5.870373022476246261e-01,5.931203275328884583e-01
5.816289380699764422e+00,5.889439424777048737e-01,5.066133861441733943e-01
6.207206837232035923e+00,5.741441888491666257e-01,4.495793162565996925e-01
6.563373805023259067e+00,5.622270724313971346e-01,5.625324742003307010e-01
6.858724147696664275e+00,6.095784087092527281e-01,4.404244402493081578e-01
7.181378460899659366e+00,5.511493535406958300e-01,5.953302907757100915e-01
7.475299145693711900e+00,5.456199839254342043e-01,5.724671440889018692e-01
7.767341867402921096e+00,5.576014489523903883e-01,5.634456365507343190e-01
8.115160723881627902e+00,5.388178196957131849e-01,6.152382848406250382e-01
8.378678915844034236e+00,5.334503854963401626e-01,5.664781384429407041e-01
8.668003412274362773e+00,6.467459312091404788e-01,5.291407338026270502e-01
8.942171340698751081e+00,5.668387580426221817e-01,5.621656137317381230e-01
9.347259146993737389e+00,6.451942614134429377e-01,6.267792788518675717e-01
9.618195108299099516e+00,5.798801939765412250e-01,5.792297866648450366e-01
9.945106153877713240e+00,5.559153388107044291e-01,6.172249137551557574e-01
1.023977819483921614e+01,6.242232623390359114e-01,6.372993416549685985e-01
1.060272933312472610e+01,4.877699308060280403e-01,6.858266432293447235e-01
1.091769287604811112e+01,5.785331231689202491e-01,5.342760331936322604e-01
1.128933195931635858e+01,6.337171182092332655e-01,5.998678637847337791e-01
1.150631118313373236e+01,5.892423296301317892e-01,6.033914018576775895e-01
1.179352169813655493e+01,6.422432319443961424e-01,5.983548538336540545e-01
1.220137195537755126e+01,6.339422651423149979e-01,6.610629587880518798e-01
1.245043202105085456e+01,6.121691946772160886e-01,6.336028504870051536e-01
1.283498730710036995e+01,5.813733916441758964e-01,6.290502570804006321e-01
1.306613665153607684e+01,6.632555217332111175e-01,6.241939089997134982e-01
1.353596062772692576e+01,5.973115549241623246e-01,6.315404049491867289e-01
1.376172678008920691e+01,5.558731713530695728e-01,6.415173896030046397e-01
1.412110025853181661e+01,5.142705600062564830e-01,5.701948752650666252e-01
1.436205021982919483e+01,6.025660320156752681e-01,6.809184640454831738e-01
1.466175913153426613e+01,5.466813364040896683e-01,6.192728591490790357e-01
1.500288946687550862e+01,5.690265458723295922e-01,6.697964012907020592e-01
1.525323103155999327e+01,6.684525191299797164e-01,6.294668292987253277e-01
1.566321574184405030e+01,6.309916990263756409e-01,6.809538735193083614e-01
1.596486379245116716e+01,6.923542009520488039e-01,6.800746584310091158e-01
1.630180419168317840e+01,6.572057826254904533e-01,6.042462996044494217e-01
1.655845924422559179e+01,6.300796592286104225e-01,6.723107776245879075e-01
1.695113110899800901e+01,6.464363442598237697e-01,6.424567772005579380e-01
1.725701585194716614e+01,6.873400594235932193e-01,5.974601154579021189e-01
1.749375042015740433e+01,6.819028038023317029e-01,6.650442118709045669e-01
1.780052968315687068e+01,6.960958893292018557e-01,7.363025998431705910e-01
1.811742117869321334e+01,6.611825169285380221e-01,7.147034474546599681e-01
1.847010394392967569e+01,6.627232251217979320e-01,6.816340304251322646e-01
1.869082345070073714e+01,7.230127577394703797e-01,6.416441895210821533e-01
1.907561043318455773e+01,6.157834739594734152e-01,6.888783667563348478e-01
1.942155414072901820e+01,6.926480638583718541e-01,7.229972654787363284e-01
1.979655562597478990e+01,7.041984462726244010e-01,5.848908430435892924e-01
2.002799658052365572e+01,6.734032343771407803e-01,6.921483090086089085e-01
2.042738633533967629e+01,7.084713904391410910e-01,6.733127975889723338e-01
2.066675791289032915e+01,7.183354501742175158e-01,6.830010385495984826e-01
2.104802898955852797e+01,7.041435941304946544e-01,6.308952759497392648e-01
2.131521631812657347e+01,7.367562900040031115e-01,7.607680142595649730e-01
2.157568394149461710e+01,6.790561288059633327e-01,7.104128601080953453e-01
2.186862663426055420e+01,7.472372954229526965e-01,7.143887252975463786e-01
2.223285373512822360e+01,7.577132969131687990e-01,6.364830013539812814e-01
2.253224594617584486e+01,6.813451035979829484e-01,7.638808808845488629e-01
2.291629333447259853e+01,7.388339704439181865e-01,6.810308070803883229e-01
2.320011631042794775e+01,7.278159106885885299e-01,7.217757648851825802e-01
2.350801235806747158e+01,7.616916471704344715e-01,6.846811851244174463e-01
2.376287423861688808e+01,7.049721572631802990e-01,7.047536583335455296e-01
2.413426301095194404e+01,6.858037950375310832e-01,7.496719160321989595e-01
2.453393051224870192e+01,7.195016716278420654e-01,6.739798306010967854e-01
2.477807518123972841e+01,7.348655372214947246e-01,7.479726491601801364e-01
2.507053076378933909e+01,6.671869553036136047e-01,6.890812322195238870e-01
2.541485131538434672e+01,7.985501427405928832e-01,7.426109975542841690e-01
2.565244389962233740e+01,7.438081396347747676e-01,7.237176056880237907e-01
2.600171734448229088e+01,7.795850330455077470e-01,7.275314112927012689e-01
2.632982755959821120e+01,7.147015766316066054e-01,7.348626737403202158e-01
2.660484210988738951e+01,7.024225704337301313e-01,6.990225702047216938e-01
2.695547212096384371e+01,7.520930361961166710e-01,7.908671407881741056e-01
2.724510231415942485e+01,7.407973425615275165e-01,7.488643692473900826e-01
2.757004863655803106e+01,6.365101030845360386e-01,8.232250502751369270e-01
2.797095521096053972e+01,8.138881634765524620e-01,7.915644617395311000e-01
2.819443116761766888e+01,6.295316686585865629e-01,7.677586720548786881e-01
2.848734792585194953e+01,7.940390856923450480e-01,7.792386720433740477e-01
2.886548637299122788e+01,7.784667545239597475e-01,7.066884814708117579e-01
2.915336714322280542e+01,7.438795640652750008e-01,7.298420655758850462e-01
2.949829408222282368e+01,7.321991527542965894e-01,7.481850238920721985e-01
2.983909895787634525e+01,8.085461259407460410e-01,6.496408088680514226e-01
3.010266556652417336e+01,8.451241756851181064e-01,8.132370777418220786e-01
3.046479046021943304e+01,7.898813229010153147e-01,8.346848207666521802e-01
3.078658958939099577e+01,7.547477184320497967e-01,7.672141780606954731e-01
3.111568124560390913e+01,7.255436319105932341e-01,7.847847792843596348e-01
3.149195552102513673e+01,8.017355830716365039e-01,7.928255529694310244e-01
3.168018325955009473e+01,7.562960859763114829e-01,7.286117286634371526e-01
3.204632275634276084e+01,7.463343931231117834e-01,7.556479435223127927e-01
3.229404759139288217e+01,7.100389825721155068e-01,7.130395798997878343e-01
3.265624954847908867e+01,7.856059959327658104e-01,8.101168887177587763e-01
3.294732694813843921e+01,7.452340615135253366e-01,7.925074196726485942e-01
3.328443175791515074e+01,8.130258431062131752e-01,8.169348352451775153e-01
3.361091890515594116e+01,7.829756026662877400e-01,7.787221500835650456e-01
3.381543258735882063e+01,8.320993293619695086e-01,7.759233951761557169e-01
3.419556736393310103e+01,7.652269729138633236e-01,8.081071915514000947e-01
3.452911646144131907e+01,7.605738087596985997e-01,8.086536127225696369e-01
3.485426280929671350e+01,7.959092734428421245e-01,7.885418893706669374e-01
3.518507053772387394e+01,7.967474998649022311e-01,7.782092473900393825e-01
3.547467403499133098e+01,8.700375514000850963e-01,8.144709798424596414e-01
3.580875557984523994e+01,8.805907141655979764e-01,7.893820771102719736e-01
3.617703013213000673e+01,7.765932016585626041e-01,8.388420927765870561e-01
3.646248484622109487e+01,7.875317411386100197e-01,7.957011715465480695e-01
3.676610234975898805e+01,8.671679133233937131e-01,8.095301293912738894e-01
3.708116534044473411e+01,7.948448216404311317e-01,8.694222522355770089e-01
3.727526090131627967e+01,8.058567773813875013e-01,8.502374920491595489e-01
3.747517687635542671e+01,8.881165073089990480e-01,8.203274281247154853e-01
3.758763988038269588e+01,7.960213889510919794e-01,7.983900035487058178e-01
3.771507913206670537e+01,8.043702401395459445e-01,8.311405569457105402e-01
3.771466815192781752e+01,8.619905242554811720e-01,8.458463285261782483e-01
3.786712634551941647e+01,8.452019323554320618e-01,8.853087134590551521e-01
3.783899272433446725e+01,9.053615670786038239e-01,7.892707499460461795e-01
3.791251187341033102e+01,8.441920368292078480e-01,8.537797722089698338e-01
3.787938446352502808e+01,8.892249442986532859e-01,8.406447761959501275e-01
3.787584829371392914e+01,8.076223867326266515e-01,8.897457538433480861e-01
3.782077045589308995e+01,8.363022668435887708e-01,8.122810276566407861e-01
3.768455880771745115e+01,8.056402155379227548e-01,8.365295101836394132e-01
3.771946969148929441e+01,8.439508134120075056e-01,8.092645135189149297e-01
3.760715857721120159e+01,8.843294545411399810e-01,8.315452203249189544e-01
3.757282291325299894e+01,8.169844670518322527e-01,7.458945239780936376e-01
3.743722577147555342e+01,8.157465083046061549e-01,8.606588264431737079e-01
3.731775739329363262e+01,8.053438773959152863e-01,8.855591148724281103e-01
3.720036806742454871e+01,7.646203969114699905e-01,8.229572481823891339e-01
3.703277171874178464e+01,8.364545367959426159e-01,7.994427482136667873e-01
3.690577193309155746e+01,7.999317605112148399e-01,8.764832458621936162e-01
3.686520557815049415e+01,8.800142461861117926e-01,9.138780818950815732e-01
3.670616808541637965e+01,8.331008542597894140e-01,8.682286108804649905e-01
3.655081163335174921e+01,8.562938275334218696e-01,8.652707344078202079e-01
3.639193908940998767e+01,7.472977211476958814e-01,8.305348450141837313e-01
3.624722167813933993e+01,8.383380834157648787e-01,8.861689051785905935e-01
3.610096990953576324e+01,7.977904313561273719e-01,8.162207275812831675e-01
3.588245883458802865e+01,8.655338402294916467e-01,7.634578928214650340e-01
3.575920085984719776e+01,8.162263248687839923e-01,8.242459146535839887e-01
3.559735463947617973e+01,8.397730856721058457e-01,8.195751324086640865e-01
3.547517410266092241e+01,8.568612929228163200e-01,8.425052637573247072e-01
3.526817244415725838e+01,8.137726528785047542e-01,8.434653110499741313e-01
3.508612941939363594e+01,7.912341552106352260e-01,8.282477275444577458e-01
3.498259600331336117e+01,8.154864730911787207e-01,7.141982732416836122e-01
3.478553654396270645e+01,7.950425822183689872e-01,8.483429001488876908e-01
3.458504082753437103e+01,7.843069414920225135e-01,7.594214402690332433e-01
3.441541150966599361e+01,7.622479365964653919e-01,8.271096294871057575e-01
3.429611914575338716e+01,8.404378011866470155e-01,8.163253774023940812e-01
3.409558233094217172e+01,8.297355930980921945e-01,7.388713221040569268e-01
3.399728448767977795e+01,8.355713277517230475e-01,8.524160726645709785e-01
3.375285423686661801e+01,7.835653406999379955e-01,8.025790117756702591e-01
3.364261147382337214e+01,8.020845097672782975e-01,8.271034848992531163e-01
3.347432080666366261e+01,7.464097392251966001e-01,8.621834090938340633e-01
3.330546294727250256e+01,7.193111536653064020e-01,8.357306006987944569e-01
3.309398171450379778e+01,8.100443617622392622e-01,7.669949337289576619e-01
3.296932228585042424e+01,8.127702917045284137e-01,8.225162670627491623e-01
3.280007706575771209e+01,7.245934906638075157e-01,8.261299132177045701e-01
3.258429864684651989e+01,7.348742965811865258e-01,7.701283718088712815e-01
3.242058061142095227e+01,8.222647867214509798e-01,7.453064022768793873e-01
3.234401244914656814e+01,7.794478098837555047e-01,7.377002231712942448e-01
3.214947461038536147e+01,7.677430274149876777e-01,7.899438228113404570e-01
3.195712286374935829e+01,7.599029066003255561e-01,8.273085714733507956e-01
3.185860969519261943e+01,7.557945255372652271e-01,7.429771657016416286e-01
3.167121062813043864e+01,8.275334129739163602e-01,7.561214146806419789e-01
3.150349613942454496e+01,8.532786283525427562e-01,8.399142847656705380e-01
3.130905961885964572e+01,7.035862901055146557e-01,7.843181630942754889e-01
3.115193760222445007e+01,7.394284390194750811e-01,7.917350262689751839e-01
3.098514251748612125e+01,8.051417929980032584e-01,8.016378068610440222e-01
3.088733004396487303e+01,8.403092990767438986e-01,7.244756110644033908e-01
3.067364133314456964e+01,8.145433991575904420e-01,7.615243414603026784e-01
3.051223885451970830e+01,7.551918534032400210e-01,7.302357906751295591e-01
3.040972971105590617e+01,7.183076412988279591e-01,8.248321230201657306e-01
3.025789623058155087e+01,7.504429068455882312e-01,7.996563747504301656e-01
3.000498816074566832e+01,8.048201125774048226e-01,7.408853854722547982e-01
2.988649890593219283e+01,8.282092068554819386e-01,7.979960923856520560e-01
2.975275366359204554e+01,6.810528252538826655e-01,7.838032114394107852e-01
2.956896664006708875e+01,7.769810879832199646e-01,7.419283206397910835e-01
2.946339324182381958e+01,8.780121281798216604e-01,7.267079683948044488e-01
2.932911560353797853e+01,7.725316835146025518e-01,7.871034048455828325e-01
2.906277435985481006e+01,7.924846096784499139e-01,7.912533118609557103e-01
2.895800455265271012e+01,7.621501455847581319e-01,7.333282621616834529e-01
2.879266859578535787e+01,6.981211031629440678e-01,7.380409732882192708e-01
2.869689142173812613e+01,8.130525490325337667e-01,7.269181558471303761e-01
2.850422436670100623e+01,7.137974936865822961e-01,7.307484026479948991e-01
2.843088495455923237e+01,8.003818041244881165e-01,7.538756188382218504e-01
2.818584585912764950e+01,7.313721993776249874e-01,7.838581591710486185e-01
2.808292240942807538e+01,7.803077420491021376e-01,7.138955361616113882e-01
2.799173883222109893e+01,7.671432647993238207e-01,7.368774966720014197e-01
2.792622108941381498e+01,7.109521296654356393e-01,7.635710576817704709e-01
2.770947361468612868e+01,8.015749085973362664e-01,7.406187533282326818e-01
2.748404414409862184e+01,7.004790783810708188e-01,7.908006701697958274e-01
2.747063034700336459e+01,8.234124445116598467e-01,7.611608917144161435e-01
2.729978464837008190e+01,7.657118444109790589e-01,6.634489484033787576e-01
2.714671082831299387e+01,7.769532194256018043e-01,7.482995256402066309e-01
2.702077181361133995e+01,7.565086112156435005e-01,7.436796214379564063e-01
2.680220519093045084e+01,7.686086132187208708e-01,7.412960268319110924e-01
2.683408904971643949e+01,7.552591983073546622e-01,7.065212699299112664e-01
2.658933182947997764e+01,7.125175019883934757e-01,7.513498614646242357e-01
2.650080677211685654e+01,7.345008562361343696e-01,7.519872348373859428e-01
2.622406578583718684e+01,6.985374056606278304e-01,7.728194217624644313e-01
2.611057497889222034e+01,7.915248243332234646e-01,7.434380561645163032e-01
2.606491413722309503e+01,6.819759121870636598e-01,7.145836549519934966e-01
2.592702666294567848e+01,7.297344421264181369e-01,7.573918731907202107e-01
2.573485225589420722e+01,7.335358985129661891e-01,7.690874976486468118e-01
2.561599922859356226e+01,7.541103300996667702e-01,7.266558591046826665e-01
2.556311934084064674e+01,7.395924448867596812e-01,7.402575126020579654e-01
2.533290962419726711e+01,6.659570572843720448e-01,7.499045310400740405e-01
2.533137298348755451e+01,6.767905966510049387e-01,6.968706323538771397e-01
2.509269490711724870e+01,7.607490809199950466e-01,7.370145844395893375e-01
2.500784523687430649e+01,7.645081958558676005e-01,7.120275673266126537e-01
2.485460107982142830e+01,7.029999620132167948e-01,7.133297905867588273e-01
2.475901659379508146e+01,6.449419719203549617e-01,7.594148147561138318e-01
2.455084403996053055e+01,7.116957325596962036e-01,7.419874911511281645e-01
2.445277006962679067e+01,7.396000828411292138e-01,7.648664071863028324e-01
2.433157606432945030e+01,7.151458482741859246e-01,6.623434923123538987e-01
2.424508071169880452e+01,7.231322676626045221e-01,7.629299525128181436e-01
2.406726281534570688e+01,7.259682710068529055e-01,6.725627105827697294e-01
2.400867014794035370e+01,7.030156168688975749e-01,7.183316028075494852e-01
2.378390851810361895e+01,6.733981193956389832e-01,6.998294465949965737e-01
2.365663081913492505e+01,7.164508893744251372e-01,6.220612131639833287e-01
2.359951921799086705e+01,7.078507413502906909e-01,6.441322217533267391e-01
2.350989262860015927e+01,7.709387239489366994e-01,7.345535382589841733e-01
2.336255107446556067e+01,7.084821508123637646e-01,7.609123806219407760e-01
2.323179594689111127e+01,8.139679143570862641e-01,6.960997286003983708e-01
2.310767037694510861e+01,7.247593718477612912e-01,8.011316205406104896e-01
2.292924819856938612e+01,7.021756581426684685e-01,6.898080919489283369e-01
2.282215838486255066e+01,6.747224786041176037e-01,6.905715207041268622e-01
2.274012298040222646e+01,7.400734309305664338e-01,6.534094106395711421e-01
2.264961997376201097e+01,6.826549245067576877e-01,6.335595807111140676e-01
2.252850651749517752e+01,6.490824714230699621e-01,6.850185434117156413e-01
2.235267100166783294e+01,6.230205690204368985e-01,6.843250337673438821e-01
2.237691304943936288e+01,7.286970425654326622e-01,6.759034146820145361e-01
2.221723081405409062e+01,7.474862279903543572e-01,7.206452395458941007e-01
2.213245658413985595e+01,6.618523599409230629e-01,6.930992649621264823e-01
2.191101867638338874e+01,6.983745326399680708e-01,6.918784313053036872e-01
2.183183810358781685e+01,6.766464768682280972e-01,7.376213146418107991e-01
2.175711374793739594e+01,7.035427600320025565e-01,6.409632839946904914e-01
2.161823234923402381e+01,6.637650323536502528e-01,6.866704105404665137e-01
2.150982936180225025e+01,6.720028132294741940e-01,5.964393322342840253e-01
2.139903240341128665e+01,7.051739210632211874e-01,7.073036338225302533e-01
2.130901788150427123e+01,7.187068202533867245e-01,6.445741771480221205e-01
2.120196747329241305e+01,7.317386498830352748e-01,7.082071630167923182e-01
2.104361201298709005e+01,6.848796441586898487e-01,6.330086847109736015e-01
2.093912769807882412e+01,6.504916459550849073e-01,6.541971060755228384e-01
2.082404065705031115e+01,6.770908803726616298e-01,7.181398031975892993e-01
2.077211577153631694e+01,6.425652142523879951e-01,6.462777485984256831e-01
2.061377737196390925e+01,6.390204567409860648e-01,6.525571323668557522e-01
2.059732965306078611e+01,6.517734168360671543e-01,6.944376415489925680e-01
2.035337419692774574e+01,6.031716255824067785e-01,6.955222607823143832e-01
2.028576081464488468e+01,6.468621251163870767e-01,6.315357275528926673e-01
2.017402750307597969e+01,6.686617321532257741e-01,6.714178931468892664e-01
2.019560225777543749e+01,6.616078867705975641e-01,5.794208587424247714e-01
2.001167380934577977e+01,7.359700958165632523e-01,6.623326885800427943e-01
1.996467300557004876e+01,7.147127660341878741e-01,6.575984151492978436e-01
1.981034732846399038e+01,7.141765081370631263e-01,7.073393465160878746e-01
1.966697923449896379e+01,6.721136001413013927e-01,5.541026760224028180e-01
1.963133702079451481e+01,7.134048526917237121e-01,6.388245744766312129e-01
1.950783710007353378e+01,6.038560680691484883e-01,6.180407671411389803e-01
1.947246222564202611e+01,7.018578509822147593e-01,6.820430846370155731e-01
1.937098633570315087e+01,6.630675839043370656e-01,7.104445581507162766e-01
1.922980106984341830e+01,6.637760245727509778e-01,6.611380399225433857e-01
1.915860800758473559e+01,6.556230884522200597e-01,7.095594814946711848e-01
1.896320789774283000e+01,6.266385979857954647e-01,6.928366847053234467e-01
1.882509764621308079e+01,6.989711208470621440e-01,6.759985457299206857e-01
1.877062405210646645e+01,6.905055467322788187e-01,6.506420679885975833e-01
1.873865511266251715e+01,6.161649472372853209e-01,7.182468797874823618e-01
1.863622064819877977e+01,6.113113300713132192e-01,7.119532994486037492e-01
1.850800048505549711e+01,6.407087158616900924e-01,6.667264068041910408e-01
1.837682832742157402e+01,6.444013147923113305e-01,6.572901906124695159e-01
1.824001474765120534e+01,6.777672060460694370e-01,6.868278749591586463e-01
1.828357233791052749e+01,7.840097089411696141e-01,6.327658829529437812e-01
1.815012952243019129e+01,6.991475464387963967e-01,6.290450273493427558e-01
1.809720585775409418e+01,6.093009777900516566e-01,6.598516363483116764e-01
1.800468129192720923e+01,6.411162718412101169e-01,6.103227893746567823e-01
1.789807449077331469e+01,6.567976201143007620e-01,5.825376811036334646e-01
1.775082312645048432e+01,7.068847208146183947e-01,6.773312502516418698e-01
1.763403083666432991e+01,6.929703756472181952e-01,6.907754273646812271e-01
1.762392704281991840e+01,6.309973830175885645e-01,7.092942526753790444e-01
1.748802703019292792e+01,5.457117036346712524e-01,6.744788658313406460e-01
1.737409218084848561e+01,6.239812431597305808e-01,6.861591281792860375e-01
1.735526038110268132e+01,6.530959713281051515e-01,6.917884155384559364e-01
1.727320573670014170e+01,6.632701297044645283e-01,6.638370444848268326e-01
1.712935770416410364e+01,7.176449333983790924e-01,6.753927061996133352e-01
1.717341445284327861e+01,6.752532812138933860e-01,7.277979575564275105e-01
1.702089612156004250e+01,5.847472180818503729e-01,6.911221969266434506e-01
1.686741818748262389e+01,7.185744370772281231e-01,6.761673046199293546e-01
1.677553125485617969e+01,6.588909396164988053e-01,6.681703594780907807e-01
1.673694398345509171e+01,6.307621181589321280e-01,6.394829249333466858e-01
1.661150170862289599e+01,6.579732598168400726e-01,5.680353514564920880e-01
1.657493966144710740e+01,6.497866345213136885e-01,6.860997518698308539e-01
1.645823526211531984e+01,6.451237264285124562e-01,6.770729212781164685e-01
1.644925172454856366e+01,6.251330647531953000e-01,6.779832339786145967e-01
1.630530717406251995e+01,5.908951133170924352e-01,6.301223428320401609e-01
1.618246048908294199e+01,6.877048647860550812e-01,7.588751872787458108e-01
1.615434526464066067e+01,6.106167809936559054e-01,6.235953164650823721e-01
1.610762205986094031e+01,6.082762084331244656e-01,6.472801131866419144e-01
1.593531007374265407e+01,6.618388491202513713e-01,6.836094738838687235e-01
1.592826818944242184e+01,7.483607655464503683e-01,6.180671697281784338e-01
1.576654009243787335e+01,6.521214124026178949e-01,6.919853676651199770e-01
1.576148631885259199e+01,6.304876822672420555e-01,5.826008108547621189e-01
1.559801533604498225e+01,6.354751084294025798e-01,6.126580896826191447e-01
1.551477959177381827e+01,7.016121816889687723e-01,5.519213217643681446e-01
1.552277583024996943e+01,6.061381400476637538e-01,6.374993934348144320e-01
1.538187965530456935e+01,6.842839077677697057e-01,6.224608752791122024e-01
1.539565305122039263e+01,5.922005192890833492e-01,6.235976998742416288e-01
1.527709168209560175e+01,6.199717245130430543e-01,6.471090311107027260e-01
1.515087365545054965e+01,6.276603091254379096e-01,6.508297666059271736e-01
1.511141512252733676e+01,6.132942745094128734e-01,5.896383540678916679e-01
1.507066796444522971e+01,6.372347642279958535e-01,6.114946854733863679e-01
1.488638371076820555e+01,6.025984350064635953e-01,6.453743445460586869e-01
1.497054562373885744e+01,5.649171378681812072e-01,6.241615026000556510e-01
1.483537995425935030e+01,6.523297241185523898e-01,6.949233966358402403e-01
1.474963576972327317e+01,6.302628165948752637e-01,5.316312903246714905e-01
1.463105368190995748e+01,6.424207651008299047e-01,6.242301523764419713e-01
1.455165985933869166e+01,5.920808786773277266e-01,7.134920737381358347e-01
1.461680871092858602e+01,6.148961800480148288e-01,6.794756604226162011e-01
1.437303131624364383e+01,6.639150431199016822e-01,6.781050392714359498e-01
1.437510586719789352e+01,6.296872878270326490e-01,7.029685420110519667e-01
1.424442752548661772e+01,7.012508726479006471e-01,7.055821313817818297e-01
1.422407658768586280e+01,6.848568256587677094e-01,6.767308534326647029e-01
1.412388865988718045e+01,6.376473969130249664e-01,5.971795595828156555e-01
1.412641078396271688e+01,6.219211781294061714e-01,6.028804732530629318e-01
1.404319295645240118e+01,6.518276989866517157e-01,6.135219374353704236e-01
1.397188791349057446e+01,6.330252779980919398e-01,5.948965444208609288e-01
1.392133346143385531e+01,6.461954101942279927e-01,6.484464462271428697e-01
1.374856910589997838e+01,6.030447786514661068e-01,6.355285756529412966e-01
1.368602923010243799e+01,5.586051958705674503e-01,5.371772050729125558e-01
1.361517467683907689e+01,5.482241939894710869e-01,6.295236126148224809e-01
1.364120162931540925e+01,5.692260815582372846e-01,6.304131166239901329e-01
1.354698806316076798e+01,5.961098894976004647e-01,6.143185568437735666e-01
1.342063905607372298e+01,6.036324965721124869e-01,6.594400478375778141e-01
1.336804375659402666e+01,6.043143043786044499e-01,6.368936951246659817e-01
1.340443501938707804e+01,6.595385311622983249e-01,6.204920519791784495e-01
1.321686604035480705e+01,6.367374851948438552e-01,5.489841304473064287e-01
1.324911352564814138e+01,6.536526447133097495e-01,5.916266737733409942e-01
1.311387806541819678e+01,5.736754200783519275e-01,6.129527688096547688e-01
1.306507091234272977e+01,6.865542257368827395e-01,6.618070977605340355e-01
1.297633065193076973e+01,6.218168261412745368e-01,6.296395514390109582e-01
1.285599678891215447e+01,5.871270879675991594e-01,5.270519470362858838e-01
1.282911226359423829e+01,6.163734031335025287e-01,7.259942018144047715e-01
1.283078897830261056e+01,5.744823072863559643e-01,5.870849908315373122e-01
1.273523479900669919e+01,5.881598794293600996e-01,6.097037062895007686e-01
1.261250860942892871e+01,6.218803742141545410e-01,5.932476333539526969e-01
1.251441591843045487e+01,5.785928394945526465e-01,6.150889222391630051e-01
1.255526273710630214e+01,6.624558112894690654e-01,6.155436435632791747e-01
1.250596792915676048e+01,5.369901260807186105e-01,6.433498199126215233e-01
1.231229743184749559e+01,5.869777060208132280e-01,5.879281348969379595e-01
1.244415099357016175e+01,6.541827327858620311e-01,5.514570043539323008e-01
1.228824568676935591e+01,6.111278682743767066e-01,6.473932238136647088e-01
1.217905821876742678e+01,5.319291475538521219e-01,5.937044632000839650e-01
1.218816480222931276e+01,5.786545085765338881e-01,5.392901596721195734e-01
1.204327894502526064e+01,5.924045771248780401e-01,6.006993547734222894e-01
1.207434097000292716e+01,6.213744268100120927e-01,6.442393474314317414e-01
1.193357176792224728e+01,6.100872355744660913e-01,6.633846723908942700e-01
1.190379316066662341e+01,5.770102119797720919e-01,6.044901994448074189e-01
1.184602313115350469e+01,5.649191716052527346e-01,5.914678194293567781e-01
1.176669505533806337e+01,6.143190377206526609e-01,5.684592735523201767e-01
1.176599453368172732e+01,6.009956663282500777e-01,6.242290244565197321e-01
1.166587924742947635e+01,6.158360333247319129e-01,5.733685301421573843e-01
1.164721575298937140e+01,5.934062531984495292e-01,6.000877084162791197e-01
1.162162404760434065e+01,6.215105246167155206e-01,5.051173700191960991e-01
1.147414649809374332e+01,6.674335401883372265e-01,6.037244883198893408e-01
1.148995625192781489e+01,5.931822839645523038e-01,5.958240465039339462e-01
1.133715151616358341e+01,6.363027189567062036e-01,6.555701436950235328e-01
1.124626828656659505e+01,5.099827529385723146e-01,6.892637305710714868e-01
1.116928987804758933e+01,5.981554882522734928e-01,6.486241225289824941e-01
1.121946106881931193e+01,6.463196029492692674e-01,5.980075919671059559e-01
1.115666400403653391e+01,5.441151913986835842e-01,6.159018949982020263e-01
1.109211318499640342e+01,6.087066375811139851e-01,6.559499250483894484e-01
1.102191859669379781e+01,6.348141938512147364e-01,5.916372123766104885e-01
1.098255920764588467e+01,5.606438102195701045e-01,5.881834333985737073e-01
1.098079638127661717e+01,6.292294972110521467e-01,5.366380873403742147e-01
1.086615758075599381e+01,6.462511437610578557e-01,6.121443307467792083e-01
1.079895265298264384e+01,5.983971598788756507e-01,5.945470316616464634e-01
1.077408018610335994e+01,5.616178750669331698e-01,6.363779989341994403e-01
1.069524248050450410e+01,6.044235459385268738e-01,5.638731022607682553e-01
1.067453224421518243e+01,5.971273176930088633e-01,5.620978287772706583e-01
1.062755597788002149e+01,6.385665713518372533e-01,5.676634949373108308e-01
1.061684846351224820e+01,5.421603481440839811e-01,5.638823150686904651e-01
1.052169333328166978e+01,6.341382120629093233e-01,6.452768912849665695e-01
1.042989207851318589e+01,7.050291558755710231e-01,5.565741269155486393e-01
1.034922947383310721e+01,6.508746072088246182e-01,5.850531041572697433e-01
1.033583404898618952e+01,5.652118289248315719e-01,5.484696430738170703e-01
1.029827229049764448e+01,5.670318418106650160e-01,6.288672215687064471e-01
1.024372349127129311e+01,6.257042994768763355e-01,5.754617671632079601e-01
1.013837124340003548e+01,6.282750104004422020e-01,5.383601364086334495e-01
1.018337422718891716e+01,5.094075123028850571e-01,5.543429315821695180e-01
1.010328002204588138e+01,6.084337872756112597e-01,5.881002822733435442e-01
1.008993064646444360e+01,6.204276075067869378e-01,6.956275594803430495e-01
9.951191174865780198e+00,5.590604298221428792e-01,5.800362142085442319e-01
9.897351599865460869e+00,6.792502670141318255e-01,5.637696330616063234e-01
9.907449173840284118e+00,4.943743077884912851e-01,5.597224574636328054e-01
9.837947669930597883e+00,5.876882049266979324e-01,5.567674893400432756e-01
9.788825669687785336e+00,4.788142427604718532e-01,5.821393234110426862e-01
9.742212344891969522e+00,6.463789458399182841e-01,5.934731327926869859e-01
9.704796202847999709e+00,5.792944403049883340e-01,5.663329850397756937e-01
9.668693139607432485e+00,5.689176668398888692e-01,6.340722099956294100e-01
9.584975936060189383e+00,6.299146695803022888e-01,5.534264526054699651e-01
9.461112820363016596e+00,5.437334785105070178e-01,6.101763539243303391e-01
9.571250197032945550e+00,5.701606024906490378e-01,4.873484253046032055e-01
9.447775098125767101e+00,6.540995718687551141e-01,5.894561749763606029e-01
9.475017926003404867e+00,5.613211153971271461e-01,6.131392385987504134e-01
9.335876059511740266e+00,6.100617238139289800e-01,5.574063945179932311e-01
9.253691776661682411e+00,5.162994163635675759e-01,6.149540048904506007e-01
9.334356501915534565e+00,6.317746976874113463e-01,5.652534782165896665e-01
9.235782034672052276e+00,5.092127771342602749e-01,5.598271786818078688e-01
9.196356260382096082e+00,6.012854111330234730e-01,5.698671589658677039e-01
9.116232552918487997e+00,6.340977926898422323e-01,4.814325010108211345e-01
9.130117200721157289e+00,5.753412434638301987e-01,5.173130111945568599e-01
9.052291366028432762e+00,5.965081440250372680e-01,6.061492729821195136e-01
8.999921781326316150e+00,6.216683581208451992e-01,5.595498352374215223e-01
8.887433551235508489e+00,5.661777698816827797e-01,6.195775808146107844e-01
8.904773778298386233e+00,4.987671478665473002e-01,5.501825153107927635e-01
8.880052569626300851e+00,5.924445103819744318e-01,5.519396597499000023e-01
8.813075637563061449e+00,5.634730780285350793e-01,5.558174364284591551e-01
8.795846747139281163e+00,5.560746566694743098e-01,5.736321017605141570e-01
8.778270870699842021e+00,5.091442879358994977e-01,5.587842474715668528e-01
8.723403506960913489e+00,6.886411168180961440e-01,5.865648969057504214e-01
8.666548645140576212e+00,6.378884025595698004e-01,6.386005371010098353e-01
8.620073215474517880e+00,5.886558240260428843e-01,5.701329506451447982e-01
8.551971936605472280e+00,5.497404249179108637e-01,6.637854085276351235e-01
8.558803222304080194e+00,5.338458266779793071e-01,6.135443452539279807e-01
8.387116805844218703e+00,6.300739134105838302e-01,5.945822140304873882e-01
8.461708924895550155e+00,4.978434248076221702e-01,5.145748014721757135e-01
8.449684583709215602e+00,5.717340905968518738e-01,5.906620379896567741e-01
8.323726619592772380e+00,5.375010730519338420e-01,5.371393056258111365e-01
8.313086107512859257e+00,6.616954331502652442e-01,6.096247882511097727e-01
8.233597117377534857e+00,5.686848366794411413e-01,4.906654675448787750e-01
8.242662160948221128e+00,5.580071168591959063e-01,5.801524701291141950e-01
8.221399989038761902e+00,5.649636872531893506e-01,5.371864211731940397e-01
8.211839962250090608e+00,5.721607435349920223e-01,5.525893866842103153e-01
8.116579586392745682e+00,5.867197184101863305e-01,5.707175365067732598e-01
8.029771448088711239e+00,5.656795914391344882e-01,5.114303609226489300e-01
7.987885775266214239e+00,5.767211694721552373e-01,5.274917685456450567e-01
7.982831222393888204e+00,5.579138817158104668e-01,5.416603055147151125e-01
7.972137150479349899e+00,5.625803899991305146e-01,6.256204028831474639e-01
7.948116402941652225e+00,5.368102652510107209e-01,5.921750823261779928e-01
7.875375685919230762e+00,5.465760210416138465e-01,5.211407627928723585e-01
7.845204925670137719e+00,5.631669296491322863e-01,5.896522486495805460e-01
7.775803270881448626e+00,5.679282504124278930e-01,5.519955604178083952e-01
7.776430707084379890e+00,5.646803696354311120e-01,6.051443383285085575e-01
7.656425540425943588e+00,5.494202501089876511e-01,5.912870947242986341e-01
7.668616492909603899e+00,5.635734847770921263e-01,5.948287631866027159e-01
7.612258418916428404e+00,5.915975231182640792e-01,5.284627929141882952e-01
7.624459489440183368e+00,5.681971531679507192e-01,5.391648613799476797e-01
7.530510025206512026e+00,5.005141089630101847e-01,5.651594800350563386e-01
7.566268791079491685e+00,5.074053548438383077e-01,5.015038262021791482e-01
7.500727405812027904e+00,5.713886956725330313e-01,5.677657581513065876e-01
7.441533493414505429e+00,5.961208630924625940e-01,4.816414040118418560e-01
7.374425932841154108e+00,5.280241837377936953e-01,5.149906581307208686e-01
7.394047810184448899e+00,6.696002335701050079e-01,6.501820435594379832e-01
7.384012814117098422e+00,5.778366641124873526e-01,6.262337822160130019e-01
7.331457426148783263e+00,5.769741886157400135e-01,5.461418688754490214e-01
7.240708349623620421e+00,5.315567142549669777e-01,5.963491230964719225e-01
7.182727055521078263e+00,6.198625009240511519e-01,5.167531230347867099e-01
7.231799891391273327e+00,5.285078891237825482e-01,5.544579832254074025e-01
7.139760136009167368e+00,5.490630162704659423e-01,6.520714189123582027e-01
7.106519878226301046e+00,4.741753400978550026e-01,6.202688106142163482e-01
7.083530444507529999e+00,5.631888703544911667e-01,5.464817287158564296e-01
7.078042657740493127e+00,5.767619725684024479e-01,5.378067087552887982e-01
7.063670530437915929e+00,5.454579041124382188e-01,5.672573658296903298e-01
7.009183455266980722e+00,5.727260763039007108e-01,6.175379722551184170e-01
6.899824132424031475e+00,5.840565208203650771e-01,6.140707308749658866e-01
6.898822851551042135e+00,5.425309035170498007e-01,5.375794780227428626e-01
6.811747849307078440e+00,5.802290224904043114e-01,5.932504315348313684e-01
6.888796732846413917e+00,5.077428680530831073e-01,5.256044726552496771e-01
6.845920259634628025e+00,6.064153663979064968e-01,5.917757022628489239e-01
6.867249407083429347e+00,5.647243021871622970e-01,5.617509043935694502e-01
6.661404055517299305e+00,5.540153020624947189e-01,5.064197604285375354e-01
6.763921420264805029e+00,5.835702386467817027e-01,5.803188960222057657e-01
6.682528971202216894e+00,5.755017604014091015e-01,6.306752240425926859e-01
6.724168111723294317e+00,5.392168698939237004e-01,5.879343810790758074e-01
6.652340062357155581e+00,6.380409342258835936e-01,5.775147150146392461e-01
6.593152997461925402e+00,5.857588460734902691e-01,5.984559836367224772e-01
6.516017488776846278e+00,5.849905783686253358e-01,5.871882887293355946e-01
6.554131602786611666e+00,5.452250863885491627e-01,5.964835551622067467e-01
6.517693681339975065e+00,6.034316563820248946e-01,4.963045256714458953e-01
6.468013179607411622e+00,5.676918054695155869e-01,5.773092882679038418e-01
6.440004549697200709e+00,5.147227815422682484e-01,6.009473083381148273e-01
6.454939325504628123e+00,5.015457090230716064e-01,5.418603209376328111e-01
6.349450304400441780e+00,6.325744394582845098e-01,6.341863214512623026e-01
6.297460715412018573e+00,5.340368403268633823e-01,6.362494877178919150e-01
6.378284542174861294e+00,5.794305750895815121e-01,5.309990665896491269e-01
6.326283267660877563e+00,4.544853667969855349e-01,5.868730425747440416e-01
6.202713072343530420e+00,5.208396125442222857e-01,4.919885936905341595e-01
6.212475001815497500e+00,5.469829558670115111e-01,5.602568316023903705e-01
6.176305479684638833e+00,5.607693564805791286e-01,4.952444913489220668e-01
6.252908753252610197e+00,5.615077244629089748e-01,5.621727254192221412e-01
6.205232330423662290e+00,5.284712262879450728e-01,4.787378602249354742e-01
6.076305568299553705e+00,5.713823738495042992e-01,5.368423305851418581e-01
6.086884715852786343e+00,5.230596446964826951e-01,5.324436703938936200e-01
5.994133119412876631e+00,6.381642257567446963e-01,4.622707524948646007e-01
6.013231787295770125e+00,4.967791318978215798e-01,6.025196463455396723e-01
5.933226315266185047e+00,5.704191623121110943e-01,5.704771232911334256e-01
5.962429148914359267e+00,5.135730116430529124e-01,5.361733311521109657e-01
5.917869528776641630e+00,5.407451345389274744e-01,6.477275742953276794e-01
5.811413750944253387e+00,5.733746746212047274e-01,5.157221720187886715e-01
5.780995417493188349e+00,5.015876408959231147e-01,5.833613566379406423e-01
5.789854687785357612e+00,5.654232637007609030e-01,5.689157869411425317e-01
5.806567607930039010e+00,5.472315272155167110e-01,5.745027759174217152e-01
5.799241351904555586e+00,6.218735233392149730e-01,5.571699677992791866e-01
5.766851829381280048e+00,4.740992732452968261e-01,5.310970785400853655e-01
5.803446462724769717e+00,4.967495097439602048e-01,6.476551544712898512e-01
5.775284694669176488e+00,5.814053131110762385e-01,5.881455939887807460e-01
5.613106229221862975e+00,5.400179187180634832e-01,4.952202681809464990e-01
5.594449183018343597e+00,5.416325304922936512e-01,5.250739005156890293e-01
5.693424564926893972e+00,5.196731428700219757e-01,5.783202421549449301e-01
5.655591409997120067e+00,5.603499553379923670e-01,6.105954960912431950e-01
5.583623583384787814e+00,5.454104902616018213e-01,5.515293108391309262e-01
5.466547157027884296e+00,5.315152243809452282e-01,5.761284422275100292e-01
5.534898951636611386e+00,4.844621896152446205e-01,5.483161061893531141e-01
5.507011921336919968e+00,5.600172058602890246e-01,4.698704776790230131e-01
5.465017531887096602e+00,4.880613421851446310e-01,5.761218009602879775e-01
5.498796086283972429e+00,5.239822637954729689e-01,5.526550048638583235e-01
5.470104236870307446e+00,5.343085773660528615e-01,5.419641424048369238e-01
5.371722674413796916e+00,5.389173628893232371e-01,5.486646728137973827e-01
5.426532325439728410e+00,6.157606660464620685e-01,5.288620477795600294e-01
5.299743901552060876e+00,5.319252633874188563e-01,5.557550663346968456e-01
5.327116733308998597e+00,4.925206158946566770e-01,5.183932225346782330e-01
5.294041570054585755e+00,5.225205117899081042e-01,5.628408091711079031e-01
5.278356341727829637e+00,5.751523529417010838e-01,5.879068821245246879e-01
5.264241249602485517e+00,5.610914854639528215e-01,5.559757306407332456e-01
5.177347963435214417e+00,5.052858788888257013e-01,5.571210762948222150e-01
5.155961059039379180e+00,5.812533620316422400e-01,5.791612193047974699e-01
5.205742649864814275e+00,5.061162390179665405e-01,5.007925345780646076e-01
5.133132402836367625e+00,6.254051318721324249e-01,4.608450294260542646e-01
5.149269566627638461e+00,5.619421794802484937e-01,5.154042906821103553e-01
5.089946968534055927e+00,5.714342931707117046e-01,5.424246889116196568e-01
5.107185079244672465e+00,6.123934588609288854e-01,5.539708405022076843e-01
4.997103087392573251e+00,5.729204183697247377e-01,5.432664508059358299e-01
5.145977779274726771e+00,5.349771796866570339e-01,5.010056837152960796e-01
4.955651931623208384e+00,6.271599441861840374e-01,5.627679364044885224e-01
4.953964639516355462e+00,4.827289241958539479e-01,5.747139225888486802e-01
4.874519192503727893e+00,5.179367177256823940e-01,5.733026268268097692e-01
4.868738371445589408e+00,5.383123486508253341e-01,5.110479137115476744e-01
4.914352613844339857e+00,6.121508395031159955e-01,4.848103367244856465e-01
4.972408451573693711e+00,5.608169028900409359e-01,5.192754054610212444e-01
4.831949777474747521e+00,5.134520730790572696e-01,5.190166938550444531e-01
4.789032297760457801e+00,4.564346509703433030e-01,6.313211128038782594e-01
4.781192994103427019e+00,5.845199620780597849e-01,5.600493937785699927e-01
4.797311104736227350e+00,5.637279404321970944e-01,5.079397744959862626e-01
4.723562150432456086e+00,5.842476840910935110e-01,5.597743343256742499e-01
4.752039601672031210e+00,5.149100458604711772e-01,5.546441774763060106e-01
4.768514876961130078e+00,5.348273714074204266e-01,5.843224325647540240e-01
4.693658347976039202e+00,4.940684449207697893e-01,5.666598486180547400e-01
4.697653643711568350e+00,5.218998646544198428e-01,6.057273752338958595e-01
4.580933119417379018e+00,4.551891869641923605e-01,5.617202801039978821e-01
4.624552999584634172e+00,5.314795354558874418e-01,6.277219020396106464e-01
4.633897262702268982e+00,5.176127490122562902e-01,5.578004031769664417e-01
4.607820000951388550e+00,4.451573465695365939e-01,5.318587078250408551e-01
4.542395227339528496e+00,4.703982807434363700e-01,5.025303889465559948e-01
4.497904160692781872e+00,4.975366518717003195e-01,5.855755113684851798e-01
4.523856964243234025e+00,5.529319521512845448e-01,5.791013657315823293e-01
4.590975198420595760e+00,5.164540338866985270e-01,5.859100194208167744e-01
4.477828441327081244e+00,5.375475426101046228e-01,4.603630079004538134e-01
4.491947737249884831e+00,5.762907854676911912e-01,5.981409290666569456e-01
4.425431669979043470e+00,5.585853513302148077e-01,5.343347041651408391e-01
4.389811660594393317e+00,5.894974766554723633e-01,5.741791475729814964e-01
4.444870085102149204e+00,5.550580935012148220e-01,5.943089906978535897e-01
4.399482524041181897e+00,5.512816859209789255e-01,5.836193848597152067e-01
4.366569004171526380e+00,4.945887051885063945e-01,4.659109606282565430e-01
4.346080069344244734e+00,5.278226086977587661e-01,5.803595278137576585e-01
4.299580064295429160e+00,5.881289422722886240e-01,4.492720337722811985e-01
4.308768164875305118e+00,5.374183106699916834e-01,5.150798208516594867e-01
4.305391697803961470e+00,5.256740860554987016e-01,5.294301916035977218e-01
4.255085498071252026e+00,5.359889676659466140e-01,5.233239728512933953e-01
4.208249978270285574e+00,5.189827848667487586e-01,5.646140017953642509e-01
4.242125026797745058e+00,5.889327441605575197e-01,4.903769344674213659e-01
4.210197303818765668e+00,5.836344222057966435e-01,5.701675896973734670e-01
4.284516075333591800e+00,4.835954825129847312e-01,5.189259562218648814e-01
4.133706928166250627e+00,5.505974059066401916e-01,5.918368369450450750e-01
4.184002266032673667e+00,5.256434749214003999e-01,5.714223451764626205e-01
4.132179969500413108e+00,5.370972876122391826e-01,5.116345743517647371e-01
4.105822217061612989e+00,5.343720865146528443e-01,5.445668113488706386e-01
4.028778828011380320e+00,5.300677355565500681e-01,5.436531271038588242e-01
4.099872362817234439e+00,5.900704774326344104e-01,5.035689634890448962e-01
4.054386780919417177e+00,4.973503379955521164e-01,5.646468977918448484e-01
4.097064230565761633e+00,5.456356999019902343e-01,5.220120181025218464e-01
4.061781007103792085e+00,5.422448540610236289e-01,4.985519454167690045e-01
4.044025778634758872e+00,5.657539951030310377e-01,5.130899876990522301e-01
3.970511518598768053e+00,5.397814445332821398e-01,5.510166729603535041e-01
3.921015139576029984e+00,5.528903870016260713e-01,4.935485987019007648e-01
3.877919610987027532e+00,5.090935915742111906e-01,4.615670956711286910e-01
3.980557625483939432e+00,4.784283107121598544e-01,5.145338003209339872e-01
3.920934052709696083e+00,5.326890381879765268e-01,5.153259683363097254e-01
3.808446631250523406e+00,5.278765968995291491e-01,5.597974754895167493e-01
3.904918931374278923e+00,5.169982786706325273e-01,5.076800153619489553e-01
3.867834526134490414e+00,4.217300943387165546e-01,5.438980778347025646e-01
3.873654060167205593e+00,4.979696066827066225e-01,5.371321787719620655e-01
3.792018475069749872e+00,5.322177252893948163e-01,5.235371183239247994e-01
3.796432010144108915e+00,5.713688289270121290e-01,5.086441926089968479e-01
3.747443195854095244e+00,5.298320654457944201e-01,4.302190671925763543e-01
3.806531094589022501e+00,5.588651196391792864e-01,4.786069324304516592e-01
3.787367582209110406e+00,5.429015297002216522e-01,5.718131445633192200e-01
3.738940528571412347e+00,4.921978142440627257e-01,5.084951669610032754e-01
3.710258591698742503e+00,5.105687050096170410e-01,5.510360424729697781e-01
3.712521430456092286e+00,5.445221361089815915e-01,5.234680240401987650e-01
3.609574526457651533e+00,4.694056075143460127e-01,5.109451341119960466e-01
3.645366434875046746e+00,5.298909458601073208e-01,5.597390388078937740e-01
3.689134655938789198e+00,4.511419672219428301e-01,5.515117896746253301e-01
3.559775112716546897e+00,5.462792749681389948e-01,5.397389876062870240e-01
3.555017370765329865e+00,5.224586307237236715e-01,4.772565618816073107e-01
3.577183053359096476e+00,5.203644942496826742e-01,5.665544362189209870e-01
3.590932482003423853e+00,5.671276755818749349e-01,5.942992396542173816e-01
3.510635942807209808e+00,4.860726288857740163e-01,5.379807925554033199e-01
3.587549372674476267e+00,4.965479585346001534e-01,5.356473380872373014e-01
3.559576549487997621e+00,5.598335702404004799e-01,5.372206846605578345e-01
3.564191880086394093e+00,5.169983277334834204e-01,4.456879547244442241e-01
3.471087919528450527e+00,5.144410135724154509e-01,5.445296159245698320e-01
3.451030412575212036e+00,4.994143281479654917e-01,5.408084793001806112e-01
3.491209721766787233e+00,5.360258664075817636e-01,5.238328025763391294e-01
3.462733386892013154e+00,4.870827866623022029e-01,4.460879019315902028e-01
3.404017209103020303e+00,5.154601534277162278e-01,5.367046865076344764e-01
3.466334813486023680e+00,5.291655245731975432e-01,5.244187533422159930e-01
3.383589727019329807e+00,5.539182078272663068e-01,5.109386838967138189e-01
3.416457426860942892e+00,5.848077805970747223e-01,5.495433665565923054e-01
3.367235511137220527e+00,5.262961125710303723e-01,5.134278528375602058e-01
3.411799973182803924e+00,5.604922453589689102e-01,5.549879332084513006e-01
3.413774211774217360e+00,4.544544975572876178e-01,5.668778011669065586e-01
3.359695227050365052e+00,5.356434448108753354e-01,5.216589854727250453e-01
3.351072534861001095e+00,5.726712513509959468e-01,4.545935233377620954e-01
3.243712977217802162e+00,5.993367814530353721e-01,5.699072281132832041e-01
3.252819133172525579e+00,6.012468650797040404e-01,5.429944468399265922e-01
3.193696745543446625e+00,5.825518985101095781e-01,6.084438819937589837e-01
3.245825095073126665e+00,6.062044530460973801e-01,5.469809117688038125e-01
3.223952904851225654e+00,5.503911387945039646e-01,5.412531116712596679e-01
3.163341836512869154e+00,5.011911360254629466e-01,5.607929142606407069e-01
3.234820782503835090e+00,5.929544917922068281e-01,5.697352029905485837e-01
3.159305601263497465e+00,5.334484357438138424e-01,4.588423249817067950e-01
3.177568065300868660e+00,5.675350131776146778e-01,5.247942783927936894e-01
3.111666274716554437e+00,5.179352528876904893e-01,5.235123981329996568e-01
3.095781252748509793e+00,5.006719160506784005e-01,5.257591177675782212e-01
3.088412598761256511e+00,4.980191759407522900e-01,5.138616622245858467e-01
3.139927466230640007e+00,4.739263688822760168e-01,5.407224861025466955e-01
3.132483786159302230e+00,5.411072748542922195e-01,4.548409691687101408e-01
3.136525942583406668e+00,5.494625965245975019e-01,5.821527897159717302e-01
3.116288219997527698e+00,4.609564736525345596e-01,5.407763019388261982e-01
3.167859145992150349e+00,5.537939117218698692e-01,5.241435966356178255e-01
2.981096876780052085e+00,4.894743131815598169e-01,5.226866574375671481e-01
3.000901621965950117e+00,4.995272512153169919e-01,5.212811772191053850e-01
3.115617898261513474e+00,5.167178531744641701e-01,5.766525919773102249e-01
2.949316305400550675e+00,5.688592322239418575e-01,5.152462898554446280e-01
2.986242291880028432e+00,6.170136538051208541e-01,5.471801331230408127e-01
2.984996707607397326e+00,4.904236745707846734e-01,5.607170553846551053e-01
2.968967302194518876e+00,5.245818604133568597e-01,5.917775380760482706e-01
2.960982726798291331e+00,5.604094957971724744e-01,5.523185672106523114e-01
3.021035817630314479e+00,5.602901544074885276e-01,4.288418698992185196e-01
3.019256229469017949e+00,5.734414139657414422e-01,4.909378109283837888e-01
2.967581459647703923e+00,5.143726636644951888e-01,5.230964116096338268e-01
2.970387450527742779e+00,6.071719221051579130e-01,4.665526368387346023e-01
2.897902940347240719e+00,5.474541430659107810e-01,5.611997307039382488e-01
2.859111740183359895e+00,5.271860435098425501e-01,5.545473939384053530e-01
2.901879943961987340e+00,5.916625462577032035e-01,5.428618097437297729e-01
2.915706628462988004e+00,5.295447539011799432e-01,4.954792870577259256e-01
2.831387874166963137e+00,5.335913927937835366e-01,5.666547391945706558e-01
2.796848038896342370e+00,5.011855519789141233e-01,5.208553509228227574e-01
2.875892851918715909e+00,5.390126997062831826e-01,6.456765706784787229e-01
2.749891282011552196e+00,5.061087195459812449e-01,4.518166400282159767e-01
2.748981537411605558e+00,5.094146981867827551e-01,5.570043133233626431e-01
2.819904322607438285e+00,5.243905587915029809e-01,4.987453332441104115e-01
2.776304130222017275e+00,5.048824764236869989e-01,4.678627720827795433e-01
2.742586947008567755e+00,4.071586449920476802e-01,5.074544919883654526e-01
2.727559026904977646e+00,5.315227797130119836e-01,5.032877502022689020e-01
2.725549997397798574e+00,5.058396136640741503e-01,4.836643688224784299e-01
2.645164777883834528e+00,5.617473408302794402e-01,5.035155988710172670e-01
2.773825940018584735e+00,5.262665119854660345e-01,5.002299932704651342e-01
2.693046258818503791e+00,5.133097702764468639e-01,4.933326082458737161e-01
2.718175556677687510e+00,4.503184397068082379e-01,4.971039033690501374e-01
2.668623136840376997e+00,4.772055639179988984e-01,5.339080684614142536e-01
2.632596100404369643e+00,5.082682003204573862e-01,5.436408204792967380e-01
2.615985490222412224e+00,5.423575510220264295e-01,4.974435022890755231e-01
2.649515255789432366e+00,5.260339782995443469e-01,5.639040371495754878e-01
2.634306716968993989e+00,4.379391017758771931e-01,4.948426607735472715e-01
2.649164682904099788e+00,5.176376427987404716e-01,5.523200172970634814e-01
2.647850961744567133e+00,5.485930692240127415e-01,5.411178651113934812e-01
2.641653317877060037e+00,5.303270512466704556e-01,5.178644340738489671e-01
2.562216717169198077e+00,5.431766540196305559e-01,4.625686586695729741e-01
2.557552622687382371e+00,5.360699218788663734e-01,4.786757582158628899e-01
2.580183522259089202e+00,5.895820542004311937e-01,5.473967081502382204e-01
2.517100950773432988e+00,5.251412824897457865e-01,4.786992181932866464e-01
2.508063270766037078e+00,5.433448137211753792e-01,5.080478209906799103e-01
2.527994815738110468e+00,5.171970767928358859e-01,5.363135664662489477e-01
2.554864280904099338e+00,5.046147820635786818e-01,5.382254709330563935e-01
2.489841784511637623e+00,5.834241339513192015e-01,5.523553137918478795e-01
2.564778587360110329e+00,5.053987297294265657e-01,4.971047370838178048e-01
2.513118499640997427e+00,5.519119408971199237e-01,5.732289193642453595e-01
2.441247655325341270e+00,5.796600736153969535e-01,4.614656434407303220e-01
2.421217540060991880e+00,5.835812778117007715e-01,4.781226085716807073e-01
2.511405258607615654e+00,5.276848880929446706e-01,4.974269595758163964e-01
2.459629429602213868e+00,5.132950342974538227e-01,4.847283360435784005e-01
2.499098019512665303e+00,5.027125528983981129e-01,5.179722464474749710e-01
2.418625016237768044e+00,6.063499704488743980e-01,5.337692113905395663e-01
2.397184761070619619e+00,5.432603623989911146e-01,5.382326783325176445e-01
2.485367922187538436e+00,5.854730656367208574e-01,5.285720383753585994e-01
2.417199466913194428e+00,5.091288102934778959e-01,5.967067558318077669e-01
2.423734910554455890e+00,5.006217578552696335e-01,5.271872798027882334e-01
2.343186823311447231e+00,5.878358415197667552e-01,5.077012206875414213e-01
2.425551783732498023e+00,5.676278135556522830e-01,5.649582524251719473e-01
2.380124264548156177e+00,4.978792899141500361e-01,5.427878437999200667e-01
2.396992397463613589e+00,4.722092296774569875e-01,5.082790174477637146e-01
2.370906381648315797e+00,4.954655250135507893e-01,5.229835691512775275e-01
2.355735161060758198e+00,4.444465083121175719e-01,5.026327929994536259e-01
2.338420623708281187e+00,4.323563306460782019e-01,5.237046463467182056e-01
2.354190190496197932e+00,5.027941057174672990e-01,5.111784708492973506e-01
2.295508570523006941e+00,5.253239866947881920e-01,5.125734023647661175e-01
2.312692927444626179e+00,5.472733234467649366e-01,4.934764498368122698e-01
2.216383718668285319e+00,4.957453432312560193e-01,5.216785428373592604e-01
2.209744740120004547e+00,5.133288596809882920e-01,4.409501668744338354e-01
2.270695015997028499e+00,5.699033042020091866e-01,5.315513644109168823e-01
2.265486141222416983e+00,5.720403124465927025e-01,4.477089437203460309e-01
2.310692372569831843e+00,5.385126117536578327e-01,5.653073938349983951e-01
2.235720323905333373e+00,5.027284148805222230e-01,5.153822957746527766e-01
2.261378606334664809e+00,4.982435198063169257e-01,5.391788817311896631e-01
2.310199685788344226e+00,4.713212630886660648e-01,4.725871826811654519e-01
2.206454002676815129e+00,6.195840092882293204e-01,5.029323506169667279e-01
2.229354013460311812e+00,4.729653309410443152e-01,5.445277181853359627e-01
2.131533635600331156e+00,4.108838540588087840e-01,5.148257131849599544e-01
2.221607972307800161e+00,5.201873904618110611e-01,5.232424127841357464e-01
2.187086783972011172e+00,4.726755376130555852e-01,4.506168452909772859e-01
2.173790220299907983e+00,5.253131276956500839e-01,5.329599833223145344e-01
2.101026268824442322e+00,5.297692037691602573e-01,5.072281773406333016e-01
2.058172937936102898e+00,5.276498067196049302e-01,4.489888413378831378e-01
2.085895531802970826e+00,4.877531865553682011e-01,5.110315491051472536e-01
2.158423685157139893e+00,5.117278075888592737e-01,4.970561331316951104e-01
2.084064189942049339e+00,4.725449856787247715e-01,5.477724353196091744e-01
2.084272138857430789e+00,5.520714074491633871e-01,4.384358623886151496e-01
2.080936074895594068e+00,5.130588666411556309e-01,4.493549183400176172e-01
2.062648596310087346e+00,4.148080427572080064e-01,5.393899252549311241e-01
2.090777146897745187e+00,5.764272175872996451e-01,5.183069554113256538e-01
2.012411100559650556e+00,4.571907586549683322e-01,4.945140073575161610e-01
2.130906421146469221e+00,5.846645895658730829e-01,4.995466177443478317e-01
2.090523066104318151e+00,5.731576911795119855e-01,4.997575486122067256e-01
2.050547268667047174e+00,5.071042608755238490e-01,5.310709027443419883e-01
2.005865444360413807e+00,4.983028720302132841e-01,4.174964841954189598e-01
2.010666819309079756e+00,5.226612348678865150e-01,5.535284466539263093e-01
2.044191677527727791e+00,4.967631187395273873e-01,4.511342802966613608e-01
2.043553986123571420e+00,5.219242308813765163e-01,5.587714178084904892e-01
1.977859457723400771e+00,4.729166552717881666e-01,5.676802026546087232e-01
1.986571126757375350e+00,5.778674160084907863e-01,5.309642075914660087e-01
2.049406977388784856e+00,4.904723791629974627e-01,5.454605597635602265e-01
1.977498144196420560e+00,5.609381760283299601e-01,5.678054209694032295e-01
2.111926039632194829e+00,5.110381407719525315e-01,5.773842551459940076e-01
2.033254670598909630e+00,4.583769441365981301e-01,5.263312246971623143e-01
1.939458820204168932e+00,5.255119252688051912e-01,5.197138222804875696e-01
1.918764355923770371e+00,5.210078198002773275e-01,4.837201349011792106e-01
1.988704844272730421e+00,5.260912753271831388e-01,5.133818488373086408e-01
1.939107192899743426e+00,4.391838651566177809e-01,5.138313771127170915e-01
1.811777595808756747e+00,5.272444076344170449e-01,6.000282115774708824e-01
1.929987821196708309e+00,5.146375280189867674e-01,5.000987664254078480e-01
1.925809318472149645e+00,4.708142713234693133e-01,5.155667989053169808e-01
1.979236841657732171e+00,5.550935027558507873e-01,5.485185838745900710e-01
1.934062091915395687e+00,5.267574916417189224e-01,5.069731665191617997e-01
1.882376412994251069e+00,5.087976464681175370e-01,4.954490410877974704e-01
1.865458647661670577e+00,5.166450101414171714e-01,5.808944435267703321e-01
1.943296675672847140e+00,5.371700151592698758e-01,4.017186272405321446e-01
1.875756173955728023e+00,5.272753829489804644e-01,6.158556041712140994e-01
1.894433330490268297e+00,4.662967225055519305e-01,4.992232697075510428e-01
1.856747531406761187e+00,4.777539154368452556e-01,4.555279818582753104e-01
1.866522311281372248e+00,5.301871821404623430e-01,5.202235277692541793e-01
1.812971872946902874e+00,4.941042905876656399e-01,4.935852690254621811e-01
1.824841984695360519e+00,4.750141368046911783e-01,5.019819582071182174e-01
1.868933113445090166e+00,5.794714345821675439e-01,5.547746064909360175e-01
1.835024489773525280e+00,5.616008998622528114e-01,4.828684777777753068e-01
1.832176149686781219e+00,4.769136052617258259e-01,5.669149407984364064e-01
1.781523445634833891e+00,5.286147980741499053e-01,4.555132840884604239e-01
1.786051193730357367e+00,4.680058707498536141e-01,4.488328534164549577e-01
1.803654724140157706e+00,4.988547270422192814e-01,5.358280977987133209e-01
1.866417220848577641e+00,4.003602619038953980e-01,5.137879673666565505e-01
1.812169992772924454e+00,5.229308155105881761e-01,5.094560920545050386e-01
1.749336884927325420e+00,5.641928337303087071e-01,5.444806766971705958e-01
1.796268712458798378e+00,5.116439624591883062e-01,5.139233922333689142e-01
1.790722643964428151e+00,4.663372885800970979e-01,5.491876033586891026e-01
1.760289338838868067e+00,4.811450904746989998e-01,5.422215440220381488e-01
1.765348873560936616e+00,4.533801444010283066e-01,5.341619990301456067e-01
1.762185514866291269e+00,5.259411835909296729e-01,4.771420922134992915e-01
1.703973452073170414e+00,5.845008075098898637e-01,4.840222114008444487e-01
1.750166934857045220e+00,5.175042862399228394e-01,4.538195043690196329e-01
1.740943808355702505e+00,5.503494114837744755e-01,5.402955202296149118e-01
1.675869729971947608e+00,5.328391244863550646e-01,4.493121934346395174e-01
1.682847808596324990e+00,4.845727830328671049e-01,4.771620028512343903e-01
1.683607872074997847e+00,4.565060965952799088e-01,5.521124382437397893e-01
1.688458138196835767e+00,4.323271636067480550e-01,5.616859145752199911e-01
1.706269604325139744e+00,5.801811734046334879e-01,5.167843333140826889e-01
1.691143489155031654e+00,5.383523071154354689e-01,5.025759487538385972e-01
1.647506645724095886e+00,5.491323352500517840e-01,5.070811062896405375e-01
1.637296842589238022e+00,5.274051716883342289e-01,5.398759780531264818e-01
1.731864680036667048e+00,4.802015581036455094e-01,5.516733866511460693e-01
1.685895425668499259e+00,5.444630879827760950e-01,5.237167400699103137e-01
1.704458610139708785e+00,5.156776639393164663e-01,5.843730571778411598e-01
1.581506305239801735e+00,5.452425195730661311e-01,4.976065931902020067e-01
1.612004598312234860e+00,5.066375768389457246e-01,4.882441895741259086e-01
1.640034500027198527e+00,5.335789003238610162e-01,5.853824935862036449e-01
1.661930928567623367e+00,5.497329343881444119e-01,5.123919560642584692e-01
1.598787626601199774e+00,5.227806998851148856e-01,5.421808239268900431e-01
1.588408751420704146e+00,4.999728073803871298e-01,4.796162996219708319e-01
1.614094891888303573e+00,5.128974432201184319e-01,5.293598465311363244e-01
1.574373954440260404e+00,5.221277787272980975e-01,5.337766383314865859e-01
1.533685406624258230e+00,5.969784174705059510e-01,4.579615981439615902e-01
1.599876196645961812e+00,5.391481303769101174e-01,5.118887406928648298e-01
1.588913255826718052e+00,5.435362946049329125e-01,5.049248024412537061e-01
1.610802421185774325e+00,5.131326773573018363e-01,4.480168930754764300e-01
1.602218626241201482e+00,5.717032772391691386e-01,4.911215727431643141e-01
1.585728124150632024e+00,5.498154978860678721e-01,5.449706167317839300e-01
1.665907749469948795e+00,4.895396244575532796e-01,5.327292362202857845e-01
1.495826963279911714e+00,5.061888923207178426e-01,5.674990132950117339e-01
1.520591907867910209e+00,5.204458294972919008e-01,5.077622029164484685e-01
1.543924803409966851e+00,4.771269582727249436e-01,5.645611599910701495e-01
1.555780811383980833e+00,5.520419701210619312e-01,5.079195540653190788e-01
1.495064720302333727e+00,4.789922345894170874e-01,5.013355298719255337e-01
1.533421823906160997e+00,5.191968365000602104e-01,5.371747703819412800e-01
1.486065033223650467e+00,5.020709638357455651e-01,5.101499988417933507e-01
1.525628514672924263e+00,4.955113850388895846e-01,4.457310262727611216e-01
1.462003850926760773e+00,4.125690083620085491e-01,4.578567795268437823e-01
1.452171679282810768e+00,5.307463616234009418e-01,4.753153690370823803e-01
1.541471279725568078e+00,6.078262972542578524e-01,5.393407543057590070e-01
1.446040067494365644e+00,5.079198843043134515e-01,5.107616197570241656e-01
1.504811178492764911e+00,5.207825801501997365e-01,5.093607622434188631e-01
1.523324641221233566e+00,5.633858768506259107e-01,4.936168020768896270e-01
1.481821141922835983e+00,5.738922725458335261e-01,5.133379934019202118e-01
1.512435849193019433e+00,4.668718125660797913e-01,5.759133931447539823e-01
1.476402983208462860e+00,5.290310185880023885e-01,5.264871998560586297e-01
1.512808054953192594e+00,4.922734268893108611e-01,4.422684359308023949e-01
1.504728975405005498e+00,4.834246452410273509e-01,4.449298344886568057e-01
1.348715282231997215e+00,4.978048983950043027e-01,5.086188077060936896e-01
1.464918146639172747e+00,4.770066180329111671e-01,5.184864364154249117e-01
1.451098637964433058e+00,4.891230382324762149e-01,5.363204249459564421e-01
1.454942421887989834e+00,4.431794299955804650e-01,4.722151352574251448e-01
1.447183975028608849e+00,4.958936402023150225e-01,4.443345905144923114e-01
1.435540477020557537e+00,5.525698218287533603e-01,4.392201128678110966e-01
1.353872767414083578e+00,4.834342712309250834e-01,4.356755624828235751e-01
1.387337876926943325e+00,5.007748920890198185e-01,4.884056534210657330e-01
1.515561600116561269e+00,5.022547994197370524e-01,5.350949340110846553e-01
1.376623990890544880e+00,5.428222589609043025e-01,5.535779004190086727e-01
1.372736836633495550e+00,5.100617379074986468e-01,4.826958377930478106e-01
1.451635723530307676e+00,4.805476980213250204e-01,4.562930390289059446e-01
1.468659809402536709e+00,5.027334638982283721e-01,5.833182322126361230e-01
1.410803058667183363e+00,5.639434471657234216e-01,5.092941195507122432e-01
1.443675035928002837e+00,5.588320103296987584e-01,4.509049455986336996e-01
1.378157888818899446e+00,5.433865907514925375e-01,4.346053276587307224e-01
1.390645740993898816e+00,5.296312686235971068e-01,4.398343578887816685e-01
1.425379383982060766e+00,5.759299274683986614e-01,5.313352240268350846e-01
1.403709417223524270e+00,4.852373747718213282e-01,4.929800863289030555e-01
1.383757709789021906e+00,5.286755888571814666e-01,5.092938324103631897e-01
1.311872865898652929e+00,4.333405658804437288e-01,4.467133620180064324e-01
1.369623869574579267e+00,4.727658613159806955e-01,4.858133657239838143e-01
1.393429733124305958e+00,5.085400067891886478e-01,5.552045326749873722e-01
1.363488221454099980e+00,5.247397855249941179e-01,4.398190820616026953e-01
1.384957939225338164e+00,5.153307745233975945e-01,5.580128817122191887e-01
1.365668492414616075e+00,4.768625662203026527e-01,4.868367386521854634e-01
1.335140815669862979e+00,4.951337061081247382e-01,5.027506073539756981e-01
1.330886385065704669e+00,5.706155880159152760e-01,5.887070904595004261e-01
1.361956103000617535e+00,4.920557003428404075e-01,4.407118839930934118e-01
1.294035323118133407e+00,5.002541026468463325e-01,5.630036777827772676e-01
1.297581391686062346e+00,4.992780544171539492e-01,5.262100342965665423e-01
1.295319579904528506e+00,4.629426634025238241e-01,5.424971005489250819e-01
1.313810368268704787e+00,4.878698958545906184e-01,4.493596214694617896e-01
1.316457315389994331e+00,6.068684510555814038e-01,5.155050723324461348e-01
1.323961404184520907e+00,4.724369785420290402e-01,5.681313031419978898e-01
1.389042823422564688e+00,5.441987974044233400e-01,5.504474017382292583e-01
1.350775809663001148e+00,5.725914112170623627e-01,4.311630281260659947e-01
1.234402044822269229e+00,4.918215175162864994e-01,4.198959621805917752e-01
1.314840127211582166e+00,5.594461272244788397e-01,5.273395979279559276e-01
1.265139182556840547e+00,5.440483030991478675e-01,4.763931784201477226e-01
1.370851103719915143e+00,4.492651808421486703e-01,5.263525797892604219e-01
1.306611866843747194e+00,5.196859800421542719e-01,5.452206509715972205e-01
1.254583337253215580e+00,4.657230434883342651e-01,5.281171634778603075e-01
1.212916827220626770e+00,5.318584143882976178e-01,4.784091616295019223e-01
1.246501111490837310e+00,5.633927410751253806e-01,4.237302797795246545e-01
1.255077662778211200e+00,4.494629760473307090e-01,5.099314370456765610e-01
1.252490669465827766e+00,4.779429883054049366e-01,4.699840212242029081e-01
1.281572730777307045e+00,5.207308378708023211e-01,5.802063660885793395e-01
1.257653284794730153e+00,5.590412061226980311e-01,5.133607337469898724e-01
1.279534757132127165e+00,5.114786916213388546e-01,4.300607816398081540e-01
1.213915102193859674e+00,4.855535338814558899e-01,4.597700445450945139e-01
1.279464909509121950e+00,5.343430848581620651e-01,4.833476929687716139e-01
1.237037179937221953e+00,5.088291751905849036e-01,5.585472047784825200e-01
1.257201229997133574e+00,5.248578110469186431e-01,5.098890707800801669e-01
1.233951425106790012e+00,5.022900208718326098e-01,4.587193533459400507e-01
1.262906047931293463e+00,5.863881476291585848e-01,4.885420038536893994e-01
1.226971496781155802e+00,4.732092830245205883e-01,5.403510386258827403e-01
1.192238716986280478e+00,5.320094578382312811e-01,5.522256427180562977e-01
1.230446316274093954e+00,5.100683926632972875e-01,4.436343504726321108e-01
1.128326744763244571e+00,4.821521866537933909e-01,5.445844201405920515e-01
1.133949814514317422e+00,5.663870726481993190e-01,5.108518089194051814e-01
1.170610742196694254e+00,5.474352254491513525e-01,4.519258591457300800e-01
1.190111062056673497e+00,5.562765325863699983e-01,5.154370788992008734e-01
1.245667326165692312e+00,3.959437510014112704e-01,5.485179533234719740e-01
1.128282110245683700e+00,5.155894327355554640e-01,5.532066325641282756e-01
1.222305948650356466e+00,5.453374086633233642e-01,5.320978484326307489e-01
1.159086962918313146e+00,4.799850264582362636e-01,4.141265466871674739e-01
1.194284995408950945e+00,4.617253912710558295e-01,4.638472986545708054e-01
1.185717106337599747e+00,4.928554586168090168e-01,4.555289765182440331e-01
1.205629878668098565e+00,5.215802601139853945e-01,5.101889329978178678e-01
1.157448315944952677e+00,5.412454351183190182e-01,4.755371082533376148e-01
1.230667482968374138e+00,4.944451914362270051e-01,4.882849333374125189e-01
1.182039891963968747e+00,4.417864408751657201e-01,5.220486880062353841e-01
1.124093998245604853e+00,5.147454831420066323e-01,5.039729123156378998e-01
1.152963510461700203e+00,5.352432161568655422e-01,5.680396950725591365e-01
1.135028584032902632e+00,5.124876859683792363e-01,5.552898072430264564e-01
1.131038952213697657e+00,5.304285541145120630e-01,5.346909045217869139e-01
1.164749070338986447e+00,4.417315925219715278e-01,5.508418633119154251e-01
1.214509096953229506e+00,4.557698048880922670e-01,5.231697569760906941e-01
1.145154282751694286e+00,5.277923088241744942e-01,4.893608585032637737e-01
1.193491206760753931e+00,4.755088225439681460e-01,5.313087001593829184e-01
1.103740330627995148e+00,5.170180540310744810e-01,5.426293215505348932e-01
1.074401402940346584e+00,4.744892142596704443e-01,5.532267402947989021e-01
1.198071494325902986e+00,5.239517590175521988e-01,5.334521662897279137e-01
1.124234657628773171e+00,5.432215377803524259e-01,4.789095631496889105e-01
1.185273535345274798e+00,4.774822580898204771e-01,5.145364095859067399e-01
1.169138572022385469e+00,4.649575525690071154e-01,6.062243155730776545e-01
1.086568690587117914e+00,4.671959329375732772e-01,5.334906592014853066e-01
1.083683916568167982e+00,5.388039708046349352e-01,5.016028741342795083e-01
1.068101582530990301e+00,4.661309818780255965e-01,4.735561888993609081e-01
1.107049232088828550e+00,4.924419044785851574e-01,5.007836633936684212e-01
1.052827889185912635e+00,6.034285157283137968e-01,5.688600629965941957e-01
1.086832315106327274e+00,5.633097382811076415e-01,4.888087365168271581e-01
1.070183269764239054e+00,5.689395613752101788e-01,5.110741286379500981e-01
1.087366534733906320e+00,5.115296575880597940e-01,5.575667539980507792e-01
1.080455795902262928e+00,4.378782488437290010e-01,4.842565680023394603e-01
1.055351990443012644e+00,5.028494733861369470e-01,4.828546598074579532e-01
1.039205711515365893e+00,4.871748653065380852e-01,6.331465673761319524e-01
1.104817594143543857e+00,5.012799341930391783e-01,5.146757676523878722e-01
1.134063348596573428e+00,5.184759679776843599e-01,5.057237977183161037e-01
1.111495166137347113e+00,4.655363364267038340e-01,4.845678208903961282e-01
1.029237974416061796e+00,5.781958323798188637e-01,4.739544821834503763e-01
1.093392802606828917e+00,4.649388762172728673e-01,4.594292223297190003e-01
1.060095199293422441e+00,4.858160198584255407e-01,5.558063244537551073e-01
1.005193244298608013e+00,4.799268161588977066e-01,5.084777661956149108e-01
9.936256960394379556e-01,5.098087670735513832e-01,4.856663129184620731e-01
1.082230592244627143e+00,4.716277359403605041e-01,5.513830002479093162e-01
1.051081364646551330e+00,4.850321359268031096e-01,5.501864869213735076e-01
1.027668853455870668e+00,5.396636900825927396e-01,5.575787235166131950e-01
9.938016759759044083e-01,4.935953269989338255e-01,4.600639646771282898e-01
9.504303296384485344e-01,5.172275622754456403e-01,5.745494254310379301e-01
1.026235285453999557e+00,5.288560156529789058e-01,5.058083011979406240e-01
1.074168045814329897e+00,4.687687293172373981e-01,4.775023757152720982e-01
1.041617387642008064e+00,4.705849621175579034e-01,5.691538965822030560e-01
1.045676141760582212e+00,4.463584375149866612e-01,5.201192632406504979e-01
1.089233369130979678e+00,5.243978992263271799e-01,5.842790443134390221e-01
1.008752270451815702e+00,4.924454039842282027e-01,5.155045332977651329e-01
9.902590543507764353e-01,5.261368442195161199e-01,4.767701494553922559e-01
1.050526531547803177e+00,5.139825905179749022e-01,5.435686553193868065e-01
1.000830383033569193e+00,5.574520074031555916e-01,5.184440673975261316e-01
1.016064068945378152e+00,5.491783798758178570e-01,5.661762916152530689e-01
1.052726992553947305e+00,5.195809914283595621e-01,5.561069094071587893e-01
1.020195481103456370e+00,5.407897940963266592e-01,5.722734969106343383e-01
1.071047872144886615e+00,4.923283500564825665e-01,4.309010022367005810e-01
1.036167105754491224e+00,5.537960063869435956e-01,5.306228743508365486e-01
1.075390871895026468e+00,5.370523407560823248e-01,4.939940749326579561e-01
9.456419833145781606e-01,4.609732857862112732e-01,5.004880047692299438e-01
1.009372463590648916e+00,4.652464086955661049e-01,5.279102836448152924e-01
9.943405481119845790e-01,5.175259650178206661e-01,5.038735110779457571e-01
9.085717852121526494e-01,4.769576360605181087e-01,5.192461205289323756e-01
9.432208778915828207e-01,5.362662805496147822e-01,5.895805903545759952e-01
9.523591639449490165e-01,5.677040726274993343e-01,4.482060794737918186e-01
9.944926623527674536e-01,4.408301006573894232e-01,5.454914683574346723e-01
1.033987713642872563e+00,5.259193324691157079e-01,5.627233534583897523e-01
9.817016232467892234e-01,5.687722840677978953e-01,5.229385147619153296e-01
9.947592509439832087e-01,4.961094874481146721e-01,5.005806256167925072e-01
1.021013886234485302e+00,4.938717096208699031e-01,4.889541417517051514e-01
9.536063365285043503e-01,4.605971216294053594e-01,5.420130079336692441e-01
9.795200664338498120e-01,4.959366698794220873e-01,4.514982399532663782e-01
8.757030720010925418e-01,4.646572939008584147e-01,5.248637269396656535e-01
9.604783225875932473e-01,5.018605804382924029e-01,4.523141806264818210e-01
9.475274921317853316e-01,5.316210515040089568e-01,5.104979297848925013e-01
9.222936830947623399e-01,4.760943871402984473e-01,4.421879474515982289e-01
9.435583902502440168e-01,4.876002537654102742e-01,5.017892216809691774e-01
9.251235442980525470e-01,5.118493994616931664e-01,5.381457919690441072e-01
9.170006890707970149e-01,4.706083084323364196e-01,5.279158636454263087e-01
1.009646905094479408e+00,4.883753389106194609e-01,5.592146796811436893e-01
9.689597793121763614e-01,4.657390347916790518e-01,4.690707684676224676e-01
9.329411749047833435e-01,4.510053115890616526e-01,5.875186892611751199e-01
9.007240621173996376e-01,5.246247685578024900e-01,4.912196988124697405e-01
1.027389395170666964e+00,5.183718248416693264e-01,5.216135235660314118e-01
9.661290472453684108e-01,5.180446126671006679e-01,5.315475248768389838e-01
1.006760353654425399e+00,5.326364142902447751e-01,4.783393058236353745e-01
9.511325519837906528e-01,5.107727311678306181e-01,5.794113763919498394e-01
9.473671747853962266e-01,4.671811999044785946e-01,5.535234337886898448e-01
9.422753203135549871e-01,5.113539987795469033e-01,5.232355347463286677e-01
8.796316721131569594e-01,4.563995837523600607e-01,4.196977848936794819e-01
1.012306828649293777e+00,5.158044229869559461e-01,4.979441549931479805e-01
9.328516300451521470e-01,4.813742174412572461e-01,5.798282496930754482e-01
9.237583018122279555e-01,4.704657383813745097e-01,4.530716106279270572e-01
9.486640071299278221e-01,4.757492071127594202e-01,5.657058242702026618e-01
9.309964077919974379e-01,4.822982806862788907e-01,5.648115785276401901e-01
8.681275641833662293e-01,5.019976725555086450e-01,5.149561288866768560e-01
9.397967479054296636e-01,4.823621597972785335e-01,4.906385527338550379e-01
9.504188276498600763e-01,5.596983403062564255e-01,4.742969863486618531e-01
8.953365683567124922e-01,5.502883399238231998e-01,4.936073844039904901e-01
8.450753481628280328e-01,5.272790791179599035e-01,4.600527169345594025e-01
9.581082480645048971e-01,4.217166396560596553e-01,5.076788406597679826e-01
9.225701295198099894e-01,5.301331933465128765e-01,5.119262330277971618e-01
9.153786898407744177e-01,4.387522697950402839e-01,4.620944978625707300e-01
9.239883951429168629e-01,4.600254124995696858e-01,5.305456666223606899e-01
9.579691958674326768e-01,4.625753510301619520e-01,5.575413776459181570e-01
8.270418912311383597e-01,4.395712550433200638e-01,4.517200844051029174e-01
9.530136725387522434e-01,4.963863378802131354e-01,5.412922165280857900e-01
8.852210979852856987e-01,4.434761333703755026e-01,4.633985487972412942e-01
9.244046757880671761e-01,5.278367732095020637e-01,4.838273847641729186e-01
8.827170182202405124e-01,4.792278455796253889e-01,4.651784261350417893e-01
8.696923917454725261e-01,5.386278049462730477e-01,5.171234558293547057e-01
8.920843458077341026e-01,5.231972640623634430e-01,4.613213562457080252e-01
8.282906728085890347e-01,4.780238544784614629e-01,5.347698436313924608e-01
8.115018472018385998e-01,5.140046636703278216e-01,5.206567048514880724e-01
9.005044911234321159e-01,4.914917775745046846e-01,5.400567989395312907e-01
8.178027294954832715e-01,5.209335350519689323e-01,5.020062179806320524e-01
8.992332242089142724e-01,4.763089904351014980e-01,4.941628350340676601e-01
8.358072758598048546e-01,5.033836554685210407e-01,4.846876984504682184e-01
9.173442944737217886e-01,5.451094244084020435e-01,4.436808737510666845e-01
7.552753871736935798e-01,5.211323006033348193e-01,4.460456387434355574e-01
9.772155904026301743e-01,5.580440466394164245e-01,5.150000809773478405e-01
9.110897923922610664e-01,5.098525809646327067e-01,4.835580516016964592e-01
8.601606749673430530e-01,4.726079339950423064e-01,5.378285313787344313e-01
8.990322711431268932e-01,5.201390271339935145e-01,4.501199944731868463e-01
8.752369091608356300e-01,5.386050239185826705e-01,5.187124056951806228e-01
7.695136755336894341e-01,4.987714452653442265e-01,4.556177965736696867e-01
8.052338736637321137e-01,5.427272664379770850e-01,5.090489528428920885e-01
8.764112860822564910e-01,4.192379317136936123e-01,4.426181096949027283e-01
8.045588109994831205e-01,4.923217922543965397e-01,5.247334501014917496e-01
8.033923114557153244e-01,5.666936409137000030e-01,5.185901900663293373e-01
8.137553373621548847e-01,4.695537932185882557e-01,5.363208956328355814e-01
8.567841720784491466e-01,4.878924624645495922e-01,4.461856810810107543e-01
7.821735669347650299e-01,4.633864217966878751e-01,4.974996929360462339e-01
8.187803149196474228e-01,4.778357354055081663e-01,5.815706641501724450e-01
8.128815739920263184e-01,4.926043836266209563e-01,4.772781902003446208e-01
7.808908267093455091e-01,4.476941719683497078e-01,4.607018358174345130e-01
8.535350946298164709e-01,4.488061213179662667e-01,5.170827470537510129e-01
8.403610865938977437e-01,5.289777186579260881e-01,5.228408045754033839e-01
8.732626959026859037e-01,5.030959801105929774e-01,6.161073193498769474e-01
6.973099538016286347e-01,5.120306556700733314e-01,5.297905870773459425e-01
8.203251547822225653e-01,4.732380184242500065e-01,5.120982513010791104e-01
8.637872643468569311e-01,4.114001557494606498e-01,5.133261497663808015e-01
8.262690972724173744e-01,4.310472965226097020e-01,4.464476815107019103e-01
8.107007450313955532e-01,4.898077851458831344e-01,4.250577330998394632e-01
8.513699836030421686e-01,5.335489824421127958e-01,5.476295762414881141e-01
8.278436936097804955e-01,5.063021819661919221e-01,4.418107106923770400e-01
7.898555619349845180e-01,5.127380211605278015e-01,4.976527811306085680e-01
9.498639677535488657e-01,5.059966782603715352e-01,4.481111238385938611e-01
8.443421116845990504e-01,5.035720128947993590e-01,4.650305927740049361e-01
7.771549813932121520e-01,5.098823816443956991e-01,5.222683232533142927e-01
8.253527578703599987e-01,5.427545850212959211e-01,5.569510491210278857e-01
8.058822901995862376e-01,5.218449340092510269e-01,5.685851415647416029e-01
7.703769733420624544e-01,5.045565839395238505e-01,5.358303615820243504e-01
8.117741862777326789e-01,5.202626076150939083e-01,5.056822322784729762e-01
8.028523422832704037e-01,5.405290902325020630e-01,5.696286158341512529e-01
7.575556194822110623e-01,4.831509761895136923e-01,4.976948930544961014e-01
8.339768785840410148e-01,5.314484175457218074e-01,4.587715579379710862e-01
7.937325889859674355e-01,5.858957378385443171e-01,4.591786481177633217e-01
7.740445414680530156e-01,5.312601163920027680e-01,4.701712116631279192e-01
7.859219281762752640e-01,5.021116159419395375e-01,5.606926935788496547e-01
8.030343863227873413e-01,4.870824331738587976e-01,5.205845218876076208e-01
7.797816471329075405e-01,5.724397868011529278e-01,4.307562964957729057e-01
7.400369257747368978e-01,5.333889150528851042e-01,4.079038545897005208e-01
7.877485269501408593e-01,4.597093858076689021e-01,4.344438710849049534e-01
7.688236088377300437e-01,4.629588653660289266e-01,5.225723815887338697e-01
7.987837101225619962e-01,5.022412885564352392e-01,5.409992842165468607e-01
8.298045664404610777e-01,5.239633625755001356e-01,4.788048722464935403e-01
7.042139227927759482e-01,5.152160495526049155e-01,5.077209236913310386e-01
7.746983019209263688e-01,4.988613448668782202e-01,5.114228171881050056e-01
7.899937463291922812e-01,4.953975270523153229e-01,5.299599614930153857e-01
7.937724678367003017e-01,5.625804848850864959e-01,5.109822685040900092e-01
7.497555864480702770e-01,4.634089103241857410e-01,5.184693370830631975e-01
6.903391809878741681e-01,5.167879600137209595e-01,5.252796452955085238e-01
7.575975149871394532e-01,4.549382496848888846e-01,5.657481662741322692e-01
7.547254995129092370e-01,5.263011610525804018e-01,4.984104016613577492e-01
7.412258491118574044e-01,5.312150948984765142e-01,5.179534219531352068e-01
7.930281314343218257e-01,4.308651514795883708e-01,5.425243114488911278e-01
7.358620127134775091e-01,5.035973587209600089e-01,4.844434030343888753e-01
7.563563170861421492e-01,5.219057966994377074e-01,5.265610220265790620e-01
7.435246313566112875e-01,4.628524515712035825e-01,4.450805113442697358e-01
7.787454268766725862e-01,5.675189539032347019e-01,4.886989884505175130e-01
8.332288354895609483e-01,4.799395340701925750e-01,5.081330296023548465e-01
7.554463387673063801e-01,5.115753105569694759e-01,5.465224303356083224e-01
8.074982689339648134e-01,4.795566273922274858e-01,5.513667567562985372e-01
7.117206622108483982e-01,5.306157437432142965e-01,5.033112181243768468e-01
8.064338408488919141e-01,5.153839310353850456e-01,4.909506225401745194e-01
8.138902794727131962e-01,4.571942890563727713e-01,4.812661694666048873e-01
7.232627614074405020e-01,4.615443184942964461e-01,4.601467093945786901e-01
7.457051221719752654e-01,4.451946277839012867e-01,4.825509252961587281e-01
6.862084913876232983e-01,4.867181675559304477e-01,5.033617435255631767e-01
7.377812302213936357e-01,5.191779845031698759e-01,6.018465569628735912e-01
7.691161138987042678e-01,4.570911046516250575e-01,5.034687879151231726e-01
7.510818977472829561e-01,5.271123280838607705e-01,4.167593890117268218e-01
8.099072473001689421e-01,5.170615222515008158e-01,6.178783886448033780e-01
7.033500882156682454e-01,5.073854054148262405e-01,5.501766939073281515e-01
7.619202708737532470e-01,4.516560322580178144e-01,5.067268598893063247e-01
7.429369958849552091e-01,4.556070556351095036e-01,4.937521451989840271e-01
7.560294571177487155e-01,5.715332514374815709e-01,5.626131349082932331e-01
7.782646616712337595e-01,5.523911621121828652e-01,4.689361030860785262e-01
7.027470047738124670e-01,5.157655894670650776e-01,5.049167793005614469e-01
7.477875293541694779e-01,4.619695977507957130e-01,4.649026216812092716e-01
7.015652699574541629e-01,4.171459781349039497e-01,4.485078866220421068e-01
7.493790293321149765e-01,4.605361345460308731e-01,4.736013691291776073e-01
6.731667405442890439e-01,5.153259790302635590e-01,4.506954863701598812e-01
7.432345022908768417e-01,4.521651949977139040e-01,5.289977617896465256e-01
7.215487993978011438e-01,4.682146117250046147e-01,5.157124119526695916e-01
8.188457253643985911e-01,5.982690630469710280e-01,5.671725282342309216e-01
6.798336102449924478e-01,5.316422444845082529e-01,4.880542906435582640e-01
6.815362780548490651e-01,5.093745901606099302e-01,4.619634784973610797e-01
8.293426657287682469e-01,4.825582782416781846e-01,4.995791340083706733e-01
7.152767164308625469e-01,5.253773191896297101e-01,5.311800561869851611e-01
6.119570071114753818e-01,4.861019166120829627e-01,5.184029889700004778e-01
6.754385607348104559e-01,5.296465647756982698e-01,5.217505589629242158e-01
7.680657455112900323e-01,4.754661591293697920e-01,4.904109118427463776e-01
6.469667951505679859e-01,5.204772617290093217e-01,4.633863286520021330e-01
6.899291584915667741e-01,5.387603216762532066e-01,4.871678687364839888e-01
6.997146094347993506e-01,4.946867248295496733e-01,4.623936887210538527e-01
7.280920502731312860e-01,5.720013406608399631e-01,5.255752892772757034e-01
6.940560010452413442e-01,5.463457592608677027e-01,4.313775129863691160e-01
7.376232918889465973e-01,5.484238204871001443e-01,5.480276461107178587e-01
6.459544773909732251e-01,4.823565340056890083e-01,4.544705049641414307e-01
7.512828668469965221e-01,5.116523270107373733e-01,4.896218774335910906e-01
7.229214873286954335e-01,5.058738899935423250e-01,4.760287843459090618e-01
7.001091493921948183e-01,4.832617167630339217e-01,4.841360346532178616e-01
6.911152936286374393e-01,4.549545892336008257e-01,5.284830755230414123e-01
7.306268602944833157e-01,5.349107052308498256e-01,5.355190373634625134e-01
7.509718715780607790e-01,5.407848258415397513e-01,5.035955144322066257e-01
7.110158183618512373e-01,5.176924273386723785e-01,5.152144014974014974e-01
7.626063570785370782e-01,4.877347777041987631e-01,4.583686981563482310e-01
8.217798002401527357e-01,5.106534740240087356e-01,4.512414311355850693e-01
6.836905016537510038e-01,5.093247621658958391e-01,4.736025974775833758e-01
7.377892745772315353e-01,4.605647213692192210e-01,4.612758873743358912e-01
7.211586251244364032e-01,4.784130026502871336e-01,4.265565466207141276e-01
6.967539020683538586e-01,4.674944711570813149e-01,5.047155556095913598e-01
7.193126564345764251e-01,5.261825684836809458e-01,5.895670025666107650e-01
6.903697496379893606e-01,4.779978063060325577e-01,5.190344206177652797e-01
7.177774973595079100e-01,4.748561777229706737e-01,5.198361373304855038e-01
7.333788603714864740e-01,4.344141665172969735e-01,5.724125904514193452e-01
6.996793555155830235e-01,5.374593169872193821e-01,4.327420411878167283e-01
7.039525095197847193e-01,5.509347255088842266e-01,5.238740982324003870e-01
7.759166662806878945e-01,5.077566684532665020e-01,4.573848941211966501e-01
7.035302643616430096e-01,4.696297105452402199e-01,5.393023194154523692e-01
7.443477830183661270e-01,5.089231189362880547e-01,4.866002819380014222e-01
7.096295410213968591e-01,5.561117211099648738e-01,5.181937513493070080e-01
6.936061061706338959e-01,4.877556272659654968e-01,5.067616989369937430e-01
6.572306306594597469e-01,5.037391889089429808e-01,5.320074062409638760e-01
6.465581996608631421e-01,3.898802230806027169e-01,5.921329382198033953e-01
6.633304888018888290e-01,5.115753928010495777e-01,5.037979398959742117e-01
6.868253707939117048e-01,5.101549566301403216e-01,4.552924768030602309e-01
6.855376868868439111e-01,4.978970664909905808e-01,5.093493087609638481e-01
7.651851463396727171e-01,5.298432903181131692e-01,5.035602741932957427e-01
6.999062364412298454e-01,5.415412235021274112e-01,5.624912109924340431e-01
7.509614188063317153e-01,5.520154117125398718e-01,5.431692053548253796e-01
6.555286854303093991e-01,5.075252622243690004e-01,5.042089692868131356e-01
6.683514137835200319e-01,5.770809108235736007e-01,4.762950699444788993e-01
6.531134552058788234e-01,5.775585955459410226e-01,4.719590773147881446e-01
6.472991676092918478e-01,5.257707654012613308e-01,5.090784735294888730e-01
6.653138928003288211e-01,4.978940651918340454e-01,5.496634696115122454e-01
6.173228533200658674e-01,5.120517873255021613e-01,4.873516153664553263e-01
6.566859126285912174e-01,4.443222151369617401e-01,4.924709401172970846e-01
6.216075044879038058e-01,4.824027342115408956e-01,5.473311675066898641e-01
6.935055018427762619e-01,4.277459972297935065e-01,4.613660659386718543e-01
7.070508908170510809e-01,5.202241827528220064e-01,4.702402550301020279e-01
6.983130150682322901e-01,3.987395404459306292e-01,5.701858868846060302e-01
6.827301335468707322e-01,5.076244135899564691e-01,4.939526958473507978e-01
6.751675837815951375e-01,4.650328714217300541e-01,4.591567648489931486e-01
7.084956276308455037e-01,4.262439978391368567e-01,4.782188325335006707e-01
6.910225976756151356e-01,4.129187877829946784e-01,5.797213223904963408e-01
6.243369413883050889e-01,4.543879525703917732e-01,5.166711711926696982e-01
7.444251549666409673e-01,4.791749775737016992e-01,5.323915376681419565e-01
6.274444280203189672e-01,4.649970251839266044e-01,5.751639269532611287e-01
7.177649353542046029e-01,4.787359055997420509e-01,5.018516437990139245e-01
6.753098955954888183e-01,5.473272697239266460e-01,4.555432658363678944e-01
6.370638334674706416e-01,4.959309445884028666e-01,4.234625985333373976e-01
6.660759973036178838e-01,5.091770365390704267e-01,4.885204414698217090e-01
6.625826260260013756e-01,4.565128624434718896e-01,5.568465990160843537e-01
5.770757129936113783e-01,4.321397078545188286e-01,5.304196388946170737e-01
6.815362982501570466e-01,4.756106172632139084e-01,5.373914429012200955e-01
6.038376175155111270e-01,4.986598639184793846e-01,4.247207539073536986e-01
6.111122499558785393e-01,4.893410671673973922e-01,4.402495224127674356e-01
5.907842631100234110e-01,5.551844004571780955e-01,4.704358296574479015e-01
6.307606396465503806e-01,4.701602840830233498e-01,4.466273432159464929e-01
6.435614626920631576e-01,4.000215939252081965e-01,5.287406988360089377e-01
6.727418416599012518e-01,3.704765617743392969e-01,5.279702794223386508e-01
6.667534035502759027e-01,4.577923449233432529e-01,4.761457523614207599e-01
6.557837038862408541e-01,5.385511193906814542e-01,4.855771680144483349e-01
7.264118182127907719e-01,4.645575941366773542e-01,5.194614019191673426e-01
6.216013718338644356e-01,5.517845413963765600e-01,5.677821570543450935e-01
6.540737156094750260e-01,4.978339614719408668e-01,5.193185147643717414e-01
6.624303917402439845e-01,5.138466915209966013e-01,4.785270365495991607e-01
6.571316264566361420e-01,6.233492025144188320e-01,5.289082059065931540e-01
7.070564125003385714e-01,5.382116064422518553e-01,5.171172763956871643e-01
6.423194270454795074e-01,4.764340305476916781e-01,5.450470197617433010e-01
6.875186272304941726e-01,5.441412351262947533e-01,5.112729083228183535e-01
6.250546287582621208e-01,4.976922479638958285e-01,4.652141024664971369e-01
6.558165279341635623e-01,4.982780808899562874e-01,4.543828084099328368e-01
5.824395481285000731e-01,4.165992563937093718e-01,5.190869551707965046e-01
6.260024277718555519e-01,5.185272554436362036e-01,4.359476179253544137e-01
6.511692073769007605e-01,5.454218971045819986e-01,4.787283460719514161e-01
5.905133220442690956e-01,5.072052115895682167e-01,4.770893652391700601e-01
5.945405258883011967e-01,5.164980220176771386e-01,5.439320765635956567e-01
6.715841583160070405e-01,4.094428256620694095e-01,5.021857739909502127e-01
6.772581365080652116e-01,5.056612724181178686e-01,5.003087261545792197e-01
6.421223717613839810e-01,4.773743268260189909e-01,5.083044918882601015e-01
6.272571225918598392e-01,4.993947494813498200e-01,4.713333821163062098e-01
5.458061967440184237e-01,5.465207517369177204e-01,4.969821957623419828e-01
6.070022948064048851e-01,5.594606084147312197e-01,4.498156442972245372e-01
6.270426090288208076e-01,5.681764262158544021e-01,5.665159476444980857e-01
5.714561280787393560e-01,5.211235578970642157e-01,5.610948400911481837e-01
6.644587203327151359e-01,5.162028558860465299e-01,4.528211519843021726e-01
6.394850601936449275e-01,4.949295749338143979e-01,4.873355309316615425e-01
6.984383277725637607e-01,4.409672122007404216e-01,4.883811022735873864e-01
6.226821643381356131e-01,4.516934181325762410e-01,4.408712771974581113e-01
6.263302180723547830e-01,5.306023046167556156e-01,5.374010628476322271e-01
6.886987437468279349e-01,5.528450490888535684e-01,5.039522359117299954e-01
6.738322968609307129e-01,4.324367134763788534e-01,5.235361423959690175e-01
6.608316662068219882e-01,5.058588333336554443e-01,4.985019735060232104e-01
6.090332321190979892e-01,4.967374360458330362e-01,5.053856103763626484e-01
6.416887727302171829e-01,5.000411016236767647e-01,5.607158513045858994e-01
5.903773316413517547e-01,4.911518094195467810e-01,4.226647089975408278e-01
6.187644657915797319e-01,4.759136976703974842e-01,5.580984857771404961e-01
6.572010667884974344e-01,4.768339355219550213e-01,4.589964334961595949e-01
7.116488693451364922e-01,4.536719973522392313e-01,5.053360027917270791e-01
6.420927469512887065e-01,5.365747921833508016e-01,5.312478769075108520e-01
6.073197146397659729e-01,5.424562634062103372e-01,4.735581554652500968e-01
6.060029966079146790e-01,5.431410349605346743e-01,4.741036136715218174e-01
5.753404066472452838e-01,4.265005040361396493e-01,5.290452932752207627e-01
5.988975485081028394e-01,4.670171071013839992e-01,4.969274799832597012e-01
6.867757677586870946e-01,4.672105839621223944e-01,4.813633273265245371e-01
6.093065191783395562e-01,4.952951045515827655e-01,4.232544158451374550e-01
5.389484156180754937e-01,5.175469875718852197e-01,5.266869959938885737e-01
5.910671099198528955e-01,5.202984071939975586e-01,4.628949787549700989e-01
6.490102213704096457e-01,5.103615498725382338e-01,4.859982792086496306e-01
6.061346726153340470e-01,4.539082348754993057e-01,5.375502463266066400e-01
6.886114673617678150e-01,5.070943558412925878e-01,5.477824607221495334e-01
6.231653571713753337e-01,5.100244157910988063e-01,4.832487509241004120e-01
5.873721513571926733e-01,4.851275739585353408e-01,5.250990402404844826e-01
6.121922349685794407e-01,5.953852457495972805e-01,5.753556879739935015e-01
6.600298089141355407e-01,4.265058502696613130e-01,5.276842171565792050e-01
5.098701526417912522e-01,4.905654774152096720e-01,5.559824761223586265e-01
6.669769889935672769e-01,5.156225730594380385e-01,4.688983464156776249e-01
5.769178998681397941e-01,4.940116149130471257e-01,5.059593777748706556e-01
6.145452543420460989e-01,4.777345221086969351e-01,5.441659749514348166e-01
6.039993708055348964e-01,5.524452852957700832e-01,5.025936064176982354e-01
5.917393019600001303e-01,4.598011677445486556e-01,4.387067256989768960e-01
5.644044080225099069e-01,4.586146758074444163e-01,5.031080014410515000e-01
5.785871354548203227e-01,4.920061973591161042e-01,5.673449544828337299e-01
5.759186346052809213e-01,5.017367750394541304e-01,4.986684802664484439e-01
6.423807463998061351e-01,5.225341045485191183e-01,5.142184672146760116e-01
6.366037726121294149e-01,4.091864366867699054e-01,4.239269809158922042e-01
6.481809487586938090e-01,5.937783438519544932e-01,4.476810493337549657e-01
5.578771307254423162e-01,5.183599459811658594e-01,4.410189133460588606e-01
4.691484857244213047e-01,5.137323828781886759e-01,4.436915980890146494e-01
6.282685461888495304e-01,4.715293723119159397e-01,5.627585962603831593e-01
6.164411492894390499e-01,4.788094845050847592e-01,5.439439154676793953e-01
6.252816503914033763e-01,5.127794880278110368e-01,5.199448700907934873e-01
6.237826211831839496e-01,4.834507113246997445e-01,4.094963448246192739e-01
6.133346783998140372e-01,4.513877772859721249e-01,4.956847079399899214e-01
6.022131511733300746e-01,4.347822405224924802e-01,4.219688186072675928e-01
5.658380388615530387e-01,5.840900507076338677e-01,5.121390041890399036e-01
6.035622193448200168e-01,4.626700874690340970e-01,5.955883706448400483e-01
6.183291653955512723e-01,5.157648426812406761e-01,4.789393107163372187e-01
6.887867648827268319e-01,5.296864148631706959e-01,4.248909192217975028e-01
5.924617808403193076e-01,4.958017286614296859e-01,5.437056166113882760e-01
5.854802108991890019e-01,5.412680823467505009e-01,3.993630169426625742e-01
6.051698518005174110e-01,5.035224576790837681e-01,5.373924989602092417e-01
5.717132145921425268e-01,5.302785061609933681e-01,4.746411822037444606e-01
5.462620313493591340e-01,5.286311703012057661e-01,5.151628471170575096e-01
5.338882598676772950e-01,4.946205949710641425e-01,5.183119569326681830e-01
6.040416355976139240e-01,5.239269105656815251e-01,5.180505199962961438e-01
6.128789867472826947e-01,4.883770300571383949e-01,4.790783433890363208e-01
5.633840795170724780e-01,4.705139455184477182e-01,4.882027216187816432e-01
6.617543240721339703e-01,3.991765903244741120e-01,5.391118068843124833e-01
6.464179740625485282e-01,5.163310216617754689e-01,5.148025270963129119e-01
6.366144037796985788e-01,4.498989877933687875e-01,5.531936627047504551e-01
5.517326395471987555e-01,4.691146884738184308e-01,5.148398164366829732e-01
6.504961026075366526e-01,4.675970869252729090e-01,5.101152463692206762e-01
6.182077466662876386e-01,5.481977714253040146e-01,5.043470794394224743e-01
5.477903900030591799e-01,4.867756636894767230e-01,5.814587519069768229e-01
6.106613182677589347e-01,5.404170129730336836e-01,4.941777721811222435e-01
6.366144264589449486e-01,5.294753106094923778e-01,5.127904165445948959e-01
6.022320470445422513e-01,4.873717693120500072e-01,4.501722675242278982e-01
5.430455584951724424e-01,4.990838847186073735e-01,4.704955467758629717e-01
6.535499162823663610e-01,5.289682631356876774e-01,4.673086851141452502e-01
4.995713032976147883e-01,4.791349067992362598e-01,5.064631038405873475e-01
6.855438202054989771e-01,5.115157783218007292e-01,4.853885766298914883e-01
5.746113808156760872e-01,5.024847197373607521e-01,4.279894238525970285e-01
5.399331217548632988e-01,5.082244194400731274e-01,5.280622695930764499e-01
6.107152465190168744e-01,4.739865723128486308e-01,5.125753974289195547e-01
5.895100520703755453e-01,4.827536983868649378e-01,4.926933740665367933e-01
5.501780893974578257e-01,5.363088414368429868e-01,5.336157449889463722e-01
5.902803825275406702e-01,4.767595152184136431e-01,4.448353066659450072e-01
5.438131232824574557e-01,4.813231783625193660e-01,4.595826742031953738e-01
5.934002152475019720e-01,5.894382226541471370e-01,5.180840088219718087e-01
5.781593657399421993e-01,5.289889268397414135e-01,5.286582782029366490e-01
5.662902653731849423e-01,4.896598004790474468e-01,4.973699569085609506e-01
5.907000265930784089e-01,4.542006470789846651e-01,5.015582856355793595e-01
5.621182132355184713e-01,4.977349545499851757e-01,5.488307644505671101e-01
6.035459989247072832e-01,4.690361881749083306e-01,4.656049899709560069e-01
5.600278054259258953e-01,4.732949142801250453e-01,5.229816578339989697e-01
5.652497800958420360e-01,4.287720032844615781e-01,5.007924994502527261e-01
6.083526870446709367e-01,4.878251487050719315e-01,4.998953218473249360e-01
5.700187502049601784e-01,5.199024989623555193e-01,4.631623741693053353e-01
5.975783731604721316e-01,4.366144833425903982e-01,5.547787358152478365e-01
5.165580337524847687e-01,5.008431830187445311e-01,4.779484012477735466e-01
6.089457450110274950e-01,4.803184948620624062e-01,4.725341231314353352e-01
5.805949347791032888e-01,5.002384926779950280e-01,4.873510403080887898e-01
7.093988440445613275e-01,4.819372621020780456e-01,4.747992937343108455e-01
6.280983326998107463e-01,4.724880074228845483e-01,4.833624573700369131e-01
4.977382657508853114e-01,4.817350061354896407e-01,4.704156668182323253e-01
6.161860386675623857e-01,5.476935914937215433e-01,4.645767810874151804e-01
5.077009125211942031e-01,4.774932940339877696e-01,4.889659536596075995e-01
5.667589524401471790e-01,5.536790749463549322e-01,4.874137453396713560e-01
5.971089646800679107e-01,4.518626100951364521e-01,5.107579147305817413e-01
6.138698953978827255e-01,4.812275722365670916e-01,4.552359774245178792e-01
5.970270901793592877e-01,5.275462304204610042e-01,5.200175653380347818e-01
5.420994423994680567e-01,4.910239116411889704e-01,4.200488845681287220e-01
6.085440440592290168e-01,4.627345132138597772e-01,5.188732677652047043e-01
5.396881290690708211e-01,5.635304522715326447e-01,4.969431070607411849e-01
5.873849496318770402e-01,4.929730484313887828e-01,5.508903256293022910e-01
5.746574893585622013e-01,4.808258735196868083e-01,5.420344096673263001e-01
5.428731969059574780e-01,5.149686640104039759e-01,4.820961799434258510e-01
5.879224744294010430e-01,5.221389866720468342e-01,4.440422498187291400e-01
5.905354913552516294e-01,5.351818686953732085e-01,5.614631781177145120e-01
5.732149892089151155e-01,5.610455912693007585e-01,5.164310660057909175e-01
5.596084533966155794e-01,5.269899542816280924e-01,4.690121726641067745e-01
5.663561887157552155e-01,4.751435746671597293e-01,5.193511732071344200e-01
5.516314582042431969e-01,5.001707853670389614e-01,5.381870486273793164e-01
6.178121934738223242e-01,4.927832245141160472e-01,4.373818672118031659e-01
6.095112636538345674e-01,5.199923415692846440e-01,5.262336996075310802e-01
5.391463921367265488e-01,5.079264106915341026e-01,4.567123507130171345e-01
5.263452174519775983e-01,4.734469893966020693e-01,5.088713528008508291e-01
5.539681414972549289e-01,4.648185041887934466e-01,4.810780413312956139e-01
6.098351937766748332e-01,4.963052283525676289e-01,5.291750906777823449e-01
5.531720869637520854e-01,4.625153454445526946e-01,4.502105241982941597e-01
5.087822189983127741e-01,6.240805209629635142e-01,4.982831761518096703e-01
6.150576702440795351e-01,5.280164783872378642e-01,4.818003166994955788e-01
6.173839619369890785e-01,4.903230232606979322e-01,5.082429498767134790e-01
5.406941841818438954e-01,4.224704183278730762e-01,5.663407588831755879e-01
5.665384472822578843e-01,5.359546197793544353e-01,4.980184962199550314e-01
6.377301221516004093e-01,4.693332501201658569e-01,4.601422097990193194e-01
4.888215377939088557e-01,5.113265297272540089e-01,5.964386942943462611e-01
5.489372891512401820e-01,4.908884697291650001e-01,5.138100609094998772e-01
5.385947031597390078e-01,5.702854168274574809e-01,5.059937944912469288e-01
5.288758563691857706e-01,4.172484733716392280e-01,4.534830231333168427e-01
7.113099120650719920e-01,5.174659345734763383e-01,4.974952349038105348e-01
5.273559080567569168e-01,4.153465353123457771e-01,4.912180085785345929e-01
5.371646401867037346e-01,4.749452329102685777e-01,5.019231400130503840e-01
5.493036284641786837e-01,5.193991330187536226e-01,4.697225228140851638e-01
5.306491679994800315e-01,5.068757146054601037e-01,4.768370792174686512e-01
5.269929899782179739e-01,4.360164266885392936e-01,4.511392919607480900e-01
5.500580376937279636e-01,4.745854686364636144e-01,5.116671401723412727e-01
5.466203777099430949e-01,4.947150254977210060e-01,4.682620122506218063e-01
5.134818326658147081e-01,5.432992303621390073e-01,5.326283451854446627e-01
6.241908475191224603e-01,5.549660706929975262e-01,5.122515689290527696e-01
5.386897689875513873e-01,4.809213720756944088e-01,4.744973709691833186e-01
5.218887037306012555e-01,4.728511157426494860e-01,5.234138861428617728e-01
5.681268345472357817e-01,4.776151302707575819e-01,5.284641983335159887e-01
5.444051699811465195e-01,5.073051484222749208e-01,4.770477939901038855e-01
5.321421087369251346e-01,4.243379124783557277e-01,4.952665574200045828e-01
5.216728992366036488e-01,4.501190234167817272e-01,5.205438384622812498e-01
5.801319467565300148e-01,5.761016105999120507e-01,5.441892763555011836e-01
5.584666488997133138e-01,5.085337582184717986e-01,5.536656949348081058e-01
6.059940365318956523e-01,4.655986718259400581e-01,4.040519380376786374e-01
6.258088459005807236e-01,5.310437378097906391e-01,5.297591340724050468e-01
5.557829142029728775e-01,4.511002235600849453e-01,4.645625539255958114e-01
5.458407081383219728e-01,5.283205991889132758e-01,4.601271478985443086e-01
4.743478639869732061e-01,5.281819102453161330e-01,4.872139874948334670e-01
5.406053053923634000e-01,5.549331045459007239e-01,4.937645286252538290e-01
5.532333174724320957e-01,4.849646957340249531e-01,4.845505304319365769e-01
5.593125282242688012e-01,4.872909675066066093e-01,4.876024755615456230e-01
5.634852382281243521e-01,4.982505365958408428e-01,6.101928267920554427e-01
5.432560400078636498e-01,5.863709861082341268e-01,5.562210903975995935e-01
4.939996582819238813e-01,5.403174291570136401e-01,4.785170855251882349e-01
5.531011530187004421e-01,4.840737222538836204e-01,4.501623159051247325e-01
5.845691546997683341e-01,4.712155822071700251e-01,5.375429851547354199e-01
5.870928735467773052e-01,5.233086700140106018e-01,4.616180779936918110e-01
5.374626990653902370e-01,4.307089464926691091e-01,5.816627670079035362e-01
5.472954269663764526e-01,5.890018139493662375e-01,5.086309472905800044e-01
4.625811220984196170e-01,4.941588407646551051e-01,5.254301520729466324e-01
4.476935569728041631e-01,5.076334973488649815e-01,5.174258656203379880e-01
5.710160823800666252e-01,5.864999253108956756e-01,5.135857552740573650e-01
5.396417683107043173e-01,4.117840873412296210e-01,5.011674846139149153e-01
5.855740618077804882e-01,5.032226560717645292e-01,5.094309287832426980e-01
5.802181823651447745e-01,4.702194576847206209e-01,4.517993315895358353e-01
5.131603482890106926e-01,4.816086308926496029e-01,5.246947978887405162e-01
4.970635434238474537e-01,5.125560307146512784e-01,5.077834534884021478e-01
4.699358684581584900e-01,5.621245728880288617e-01,4.415901443471220711e-01
4.851963748972253909e-01,5.453890954827727011e-01,5.207008225681695190e-01
5.530202815198739241e-01,4.740680915701442344e-01,3.973001605146577186e-01
5.379664747216390541e-01,5.582136591308078932e-01,5.078172752770405696e-01
5.670865803370798153e-01,5.405328215281275384e-01,5.565169665305147451e-01
4.866338141677046258e-01,4.308551589983461438e-01,4.675214209351853945e-01
6.074945210222956193e-01,5.409356311432003128e-01,5.416847852775773520e-01
4.897108819317773643e-01,5.043188506655481573e-01,4.690948535825094079e-01
5.637963727307435668e-01,5.435299411057809005e-01,4.633986486892250345e-01
5.075996658958256136e-01,4.941697409235571992e-01,4.855112722754791887e-01
5.174641730706543985e-01,4.853945238870671641e-01,4.536778480895695131e-01
5.662559066863993573e-01,4.538797933609733382e-01,5.257755661453423768e-01
5.666695813348899824e-01,4.530376095833161809e-01,4.908093944254656726e-01
5.343737135498647373e-01,4.974726044031064220e-01,5.154582378966443557e-01
5.267768440064383162e-01,4.750370116462636627e-01,4.588629540911280391e-01
5.347311133313678022e-01,4.541395390688066080e-01,4.473489824401281623e-01
6.513412918820491448e-01,5.173073413519856389e-01,5.189759314183155503e-01
5.935492212478697960e-01,5.549646346265696417e-01,4.673132942331112427e-01
4.803792087646171494e-01,4.888877936114827127e-01,4.577901782643000184e-01
4.681930729337162589e-01,5.623941529064513389e-01,5.260865871769074831e-01
5.635383816216216202e-01,5.394988313333444196e-01,5.056066991774685881e-01
5.901677670715677060e-01,4.892146258431108730e-01,4.636175806728348170e-01
5.020076311592837071e-01,5.962580139232326326e-01,5.964920187791072914e-01
5.260283816226846154e-01,5.423880643817329261e-01,4.813707858650572713e-01
5.397037378331436264e-01,4.559501155546394902e-01,4.717626100210980389e-01
4.968905759981037118e-01,3.930526783007873837e-01,4.453738300742128842e-01
5.087128966351204262e-01,4.599790794975875396e-01,5.794876124376675541e-01
5.041538712767174024e-01,4.920064954778385902e-01,5.453328565899823177e-01
5.924984545880046527e-01,5.022838234739318564e-01,5.273009495337117603e-01
5.063545939199163293e-01,5.627685659712480248e-01,5.084231717966796182e-01
5.309244662157280858e-01,4.715499790077355424e-01,5.494549420158382214e-01
4.897745338614718502e-01,4.151526918326640669e-01,4.982641543240987070e-01
5.195669292386925209e-01,5.108791503037933834e-01,4.870397655055178632e-01
5.709364507800469557e-01,5.029418739168088903e-01,4.613333676495320890e-01
4.959762849913465499e-01,5.568751048583150398e-01,5.195553904613277041e-01
5.397369083585141780e-01,4.888820285470577565e-01,5.042107183440724949e-01
4.774483140849956064e-01,5.568269061174389023e-01,5.092364385514390746e-01
5.601962421894697286e-01,5.276167425723730098e-01,5.206883946882429059e-01
5.484644538445767603e-01,5.406873942221793738e-01,4.684217996753746727e-01
5.076398501212715519e-01,4.757625801904844520e-01,5.864979697130340286e-01
5.639488697768076930e-01,4.656315455604619347e-01,4.651335072932613612e-01
6.081887388605443645e-01,4.879393464079508358e-01,4.807306478279627093e-01
5.383529643203519566e-01,4.958350445628530445e-01,4.674306062948264118e-01
6.526754152338708481e-01,4.486446857535250632e-01,4.259943509302260289e-01
4.226782451745646485e-01,5.366290174217790421e-01,5.082796711148364066e-01
5.641836922098488749e-01,4.961194763571628030e-01,4.897528996972442816e-01
5.661327360873460446e-01,5.601334514656903796e-01,4.542867059039498168e-01
6.068124410499419197e-01,5.012998247559492526e-01,5.055960763745099840e-01
5.078059065768443237e-01,4.462553456455076728e-01,4.896432435143970863e-01
5.319505878517792885e-01,5.455137050644598418e-01,5.375427872668949725e-01
5.036848339902350036e-01,4.358674899838742567e-01,5.104665015790390559e-01
5.158676866183030674e-01,4.787296225987641152e-01,4.576591378280899236e-01
5.700866927539300910e-01,4.699894148340771904e-01,5.530036148552860409e-01
5.509958151759070111e-01,4.268873873064138458e-01,5.220017307870126189e-01
5.491639446020775139e-01,5.228356735373030917e-01,5.332320445850057267e-01
5.009272036893063218e-01,5.101374272151804057e-01,4.843681867735184499e-01
5.251416580179336657e-01,5.115486576896766113e-01,4.597795649183099020e-01
6.205859815393566237e-01,5.156950205508787910e-01,4.677280397911793286e-01
5.519041281923462439e-01,4.459992933935392201e-01,6.038804189500727171e-01
4.573710664799486847e-01,4.696691100523875395e-01,4.576390408074015870e-01
5.823690578023689168e-01,5.407649581407235617e-01,5.268924005590521764e-01
5.536763125713277667e-01,4.982354718351498790e-01,5.388480791052394636e-01
6.755368860750794457e-01,4.057982476191480115e-01,5.125927081160932541e-01
4.592060591830156024e-01,5.309668638388963524e-01,5.150896374479011497e-01
5.050552430803872950e-01,4.452729463901153872e-01,5.106492310813518509e-01
5.652847932674111009e-01,4.958930515051976351e-01,4.804632609648059605e-01
6.207419647853693601e-01,5.005269467194690680e-01,4.649845157737370616e-01
5.585124748133621919e-01,5.005661302498484178e-01,4.942964724425336631e-01
5.457094974290216394e-01,5.185991109149956646e-01,5.445748911505470247e-01
5.392118887272175920e-01,5.228823822295409762e-01,5.194192304105151869e-01
4.873146962589196551e-01,5.835460195684224471e-01,3.773671125003591476e-01
6.076703661202069728e-01,5.060924839716131052e-01,6.045451044842050647e-01
5.202418859676912755e-01,4.304308479036167978e-01,4.634699249579055658e-01
5.229584094743470191e-01,5.661282178332268655e-01,3.984620952305334418e-01
5.084157519193693853e-01,4.277110252355627584e-01,4.829165337823608795e-01
4.754838478185081652e-01,5.281278993137681343e-01,4.530270477250310512e-01
5.329935604120800141e-01,4.631892874684375716e-01,4.938136634713741757e-01
5.417920968644261981e-01,5.497858194616582761e-01,5.740528430296756301e-01
4.852520999293491455e-01,5.407755280709366508e-01,4.965269195343211539e-01
5.235892686970190502e-01,4.409747446792339765e-01,5.706886307261367364e-01
6.002944579803897174e-01,4.703945595183496864e-01,4.559664275435699188e-01
4.636127747612110439e-01,5.225909579516485604e-01,4.528140100928982337e-01
4.964117400098633226e-01,4.549772684326398031e-01,5.168441252915970674e-01
5.811060104906942136e-01,5.433018541465487461e-01,4.864837359989832022e-01
4.268825662101611296e-01,3.875289321508399443e-01,4.977045719280694946e-01
5.807770087253323332e-01,4.909637565134800097e-01,4.466497577585132883e-01
4.817222448929132650e-01,5.647684114523099375e-01,5.374233484376736980e-01
4.853623086663533814e-01,5.591403725727207563e-01,4.487405330516037738e-01
5.660206558797857834e-01,5.310969943142979099e-01,5.160602691846730705e-01
5.253790600369336872e-01,4.941293371984839533e-01,4.723142525746782949e-01
5.362772829182225198e-01,6.213503394498377519e-01,5.178188597774689983e-01
6.081853787050077731e-01,4.293021955714743654e-01,5.462949098469519482e-01
5.390989845862422802e-01,4.877432826431770674e-01,4.538178046570653934e-01
6.349464346711939378e-01,5.014001194127254424e-01,4.510632128996066026e-01
4.989586634898332540e-01,4.649370147152719346e-01,4.835866908847737400e-01
5.564193901669914899e-01,4.994142314397618243e-01,4.772246155928408506e-01
5.562732737763419477e-01,5.226788677937562744e-01,5.159577750741760616e-01
6.262478919730105620e-01,5.387137572029054855e-01,5.386297648276802130e-01
5.524207533887752763e-01,4.945644999439152145e-01,4.720933662354050986e-01
5.704906983714949087e-01,5.063925253702712403e-01,5.053607592407928228e-01
5.110308885283145752e-01,5.601446906837994621e-01,4.745293569626589103e-01
5.121147290406865560e-01,5.320415639156699239e-01,5.371392402604227012e-01
5.789934492963442203e-01,4.841836846493565161e-01,4.964406984863711236e-01
4.463953314222952051e-01,4.941814840873730019e-01,4.966669318229921526e-01
5.672191321084114612e-01,4.588315242929899007e-01,4.883101619387863468e-01
5.017088804903043764e-01,4.397120984358663942e-01,4.707005696458489430e-01
5.528566210980989659e-01,4.977230114043296738e-01,4.174791022208607094e-01
5.016723513945383628e-01,4.884222994270071561e-01,4.970198596209554620e-01
4.920563515576887870e-01,4.396643322913853513e-01,4.670040049998000486e-01
4.917945879682195653e-01,4.444553391211649718e-01,5.365737123879359416e-01
5.411724200369183446e-01,4.827312422205477516e-01,5.190308455300320922e-01
5.178815992702320292e-01,5.681848806542910690e-01,4.894396272044674867e-01
6.077086368985500364e-01,5.786155058444651944e-01,4.297502503352690906e-01
5.265577318521034167e-01,4.714938894550244619e-01,5.650124447593326549e-01
5.112640344547896287e-01,5.005125249390933728e-01,5.213964861680179252e-01
5.320922766359786893e-01,5.461248190341869702e-01,4.852223844972629041e-01
5.226984862539768573e-01,5.497561483031006002e-01,5.135630392895578211e-01
5.701681549514402425e-01,5.628646324049153549e-01,4.306132680057659923e-01
5.023649328297759009e-01,4.887380687905224508e-01,5.108448266278076133e-01
5.112040494050463790e-01,4.899258408350319893e-01,4.868981410932683995e-01
5.165922048738283978e-01,5.142579025232605350e-01,4.773488923249810112e-01
5.616990069749364656e-01,5.383899358120640688e-01,5.057746269123634120e-01
5.928542511037188101e-01,4.470516672347369935e-01,4.727471864414561353e-01
5.222273352003594660e-01,4.676645508132846185e-01,5.086064575548501221e-01
5.230416407569289383e-01,4.781428604092657908e-01,4.741087074062821927e-01
5.437312278639574448e-01,5.244958263828860545e-01,4.883676936704550164e-01
5.620647234199288578e-01,4.981606654414361679e-01,4.995765700538236098e-01
4.906947109839922549e-01,5.024998616056344236e-01,4.848848786787177678e-01
5.398144303150069767e-01,5.463872785347007044e-01,4.963034430238720818e-01
5.465966926975437401e-01,4.856317458406592125e-01,5.660147206643104667e-01
4.989453156027961467e-01,4.710384659939751417e-01,4.395549321163149115e-01
5.574301621153394670e-01,4.976841656914794410e-01,5.565655197931118625e-01
5.485496293169339621e-01,5.291717195129732598e-01,4.326247191462425645e-01
5.923689342849913775e-01,4.971220828821048543e-01,4.945582257764281620e-01
5.651356107525804529e-01,5.329677826746124225e-01,5.173709378302117079e-01
4.804388490823716107e-01,4.930450563240768025e-01,5.116761171985099166e-01
4.341691161424844347e-01,5.550121145756503616e-01,4.407062338688236824e-01
5.027707455462606667e-01,5.328051652630106938e-01,4.684066809377863683e-01
4.947120940024797853e-01,5.551852512815013130e-01,4.777798793836995905e-01
5.418345002344475692e-01,4.936776243746054393e-01,5.455606137747521789e-01
4.546884808636271202e-01,4.666485754653967311e-01,5.013286624947428383e-01
5.022307609374500048e-01,4.619820564967410115e-01,5.038629810746095838e-01
4.682733900722591547e-01,4.688378821434769361e-01,4.802089431495494831e-01
5.129940540056826537e-01,4.665015654124879951e-01,4.991538702014799433e-01
6.318109000112471785e-01,4.580361200242443198e-01,5.512471469144186731e-01
5.186357685975871989e-01,4.985268137590451176e-01,5.768764222039663991e-01
5.225086146805256737e-01,4.541431199033570398e-01,5.477118370943111492e-01
5.186005335064185484e-01,4.764314071073748047e-01,5.088333378045325484e-01
5.459881146875559255e-01,5.188335729130294505e-01,4.072835805712853863e-01
5.959006408546839717e-01,4.432210928400988625e-01,5.105961134495452525e-01
5.681918214484764640e-01,4.992722732443594102e-01,5.237536416593079336e-01
5.813152783439968774e-01,4.579505192805409797e-01,5.044116037694885701e-01
5.852056771185084605e-01,4.590482244463815475e-01,5.033978622893817700e-01
4.809154010518430500e-01,5.483260695625639114e-01,4.925437633738222742e-01
4.607770353634005889e-01,5.179627825265868957e-01,5.506886764799469036e-01
5.227516576263485648e-01,4.772884793412417448e-01,5.340645605938117990e-01
5.364123691303892549e-01,4.723383717056258702e-01,5.205998210410706095e-01
5.055974594786766252e-01,4.961031777555940936e-01,4.826278703488328103e-01
5.521540817921652966e-01,4.840870978053674056e-01,4.704962507857940457e-01
5.081214902928690158e-01,5.537105295883096856e-01,4.607689842729663643e-01
5.422397401863296995e-01,5.684216643039664563e-01,4.813965511858443458e-01
5.441706821718330644e-01,4.603900550645445566e-01,4.201122396340063458e-01
4.759154338693186714e-01,4.780139626983021528e-01,4.911254518686569148e-01
5.629577207070127765e-01,4.916928150850598533e-01,3.994941948990264891e-01
5.501093281224780362e-01,4.840187854636179288e-01,5.111609641143755045e-01
4.675148473235909430e-01,5.604583259355662150e-01,5.101428953011279965e-01
5.136106412236052243e-01,5.436085834729499355e-01,5.296085596250669214e-01
6.088141145339702742e-01,5.907095320544869521e-01,4.729395002391350022e-01
5.279068402360699297e-01,5.142935141271085531e-01,4.746218218747741413e-01
5.153798943271231670e-01,5.403839449104280712e-01,5.454646951405702771e-01
5.137618755705024576e-01,5.475613830112803226e-01,5.162142429652646358e-01
5.658968891129408929e-01,4.288232121468216196e-01,4.604196742499817585e-01
4.914839377725344627e-01,4.702875029057047573e-01,4.680984760624085639e-01
5.993619053124744633e-01,5.431636864492591643e-01,5.593000288326726022e-01
5.527947425173266316e-01,5.114729674071170074e-01,4.912776771321951119e-01
4.637085771335839324e-01,5.050213057168523312e-01,5.056126909736624597e-01
5.905139564468745439e-01,5.817180446954062223e-01,4.558622674556734866e-01
5.526987369644080772e-01,5.706512465291727620e-01,4.664107395207781059e-01
5.320031802730352810e-01,4.520281426904533273e-01,4.904847655828604713e-01
4.992399978642320657e-01,5.413240318153949016e-01,5.200049552607491909e-01
5.077851638352743890e-01,5.204550502736474682e-01,5.218495310436765955e-01
5.404125936345287595e-01,5.344279573816506090e-01,5.304729076154749423e-01
5.277314824533021476e-01,4.778318244750660027e-01,4.859226803788526117e-01
4.986602712600942677e-01,5.301005072677814622e-01,5.863384376168299106e-01
5.144926287036027945e-01,4.939815920482361622e-01,4.731117004043635665e-01
5.600852522334541783e-01,5.513051747187637242e-01,4.445576890182804108e-01
5.539644842486777243e-01,4.492644914197074790e-01,5.523355321352808600e-01
4.928664615032615770e-01,5.208926813886310958e-01,4.895428969595869706e-01
5.756561413630435498e-01,5.760386130574524088e-01,5.182163454435279037e-01
4.729982243137057507e-01,5.356901423557673958e-01,5.491697690180717961e-01
5.342030132648869500e-01,4.170210836603097659e-01,4.620888605217258749e-01
4.490199758355923887e-01,5.211025979141543640e-01,5.348327973159656690e-01
5.180326415904557003e-01,5.308153244261091253e-01,5.113691967825877427e-01
5.390988543936781063e-01,5.911678814793720482e-01,5.561363389973944527e-01
5.028391268163232564e-01,4.805324392606356021e-01,5.349491332866660454e-01
4.248435488192359166e-01,4.787905094970320574e-01,4.940024967703416925e-01
5.389730542086956788e-01,3.965806291239779569e-01,5.458216706255731854e-01
5.263273142672064697e-01,5.128950353914109028e-01,4.015253049124665186e-01
5.013353659874617563e-01,4.898349930151058018e-01,5.366949591965824995e-01
5.342583377624773311e-01,3.810919379766083970e-01,4.954445360188562408e-01
4.894135404132060052e-01,4.909305152825870211e-01,4.739241267264621693e-01
5.179266807563175368e-01,4.654232847310491028e-01,4.845795110114411441e-01
5.277340960119929480e-01,5.040909010539289525e-01,4.832546867925572309e-01
4.836992606646309811e-01,4.971452930149193872e-01,5.387792083739035842e-01
5.666462076759997135e-01,5.686300385380741451e-01,4.624471010412750105e-01
5.061767180984099168e-01,5.647678139308863754e-01,3.870639163970768237e-01
5.673019459848646084e-01,4.989077424162108310e-01,4.878562495476745364e-01
5.313450666642325348e-01,5.218044684520973808e-01,4.593794667151773758e-01
5.197578841083549950e-01,5.560674589176098914e-01,5.417832141291929471e-01
5.348054130292450026e-01,4.926752407747624352e-01,5.050323255763496944e-01
5.415327228516423341e-01,5.035745469765218196e-01,4.715899880217544471e-01
5.436697769584376561e-01,5.777905254658194378e-01,4.498690895605167994e-01
5.104407619777563410e-01,4.220285335962965512e-01,5.613304507049613479e-01
4.857686683734495081e-01,5.063851953700073683e-01,5.547454602003358826e-01
5.051389495028957288e-01,4.908860006199031178e-01,4.889217670869756005e-01
5.577431557236559589e-01,5.472160968178780838e-01,5.021630694681687990e-01
4.863677955273530418e-01,4.958130338763624412e-01,4.803940373566541466e-01
