accel_x (m/s^2),accel_y (m/s^2),accel_z (m/s^2)
2.875451554955151499e-03,-1.510661855865218922e-04,-9.793839045245716690e+00
-1.044218689933814042e-03,9.009760355588434036e-03,-9.795180473739909743e+00
-5.858402147883750785e-03,-1.117464985074980441e-03,-9.798677082818398887e+00
-1.742916912946649004e-03,6.410879975904200303e-04,-9.794597689797987172e+00
9.559303623656052046e-03,-1.757607409319269891e-03,-9.793992310325291939e+00
-6.664235374422472317e-03,2.251987076923580243e-04,-9.784951825504007772e+00
-9.179501028634280343e-03,-9.201011426883549385e-04,-9.795643718433201030e+00
-3.638869986069279486e-03,-9.027873861448599581e-04,-9.791555848792706129e+00
-1.809893378164541267e-02,5.047678145777015346e-03,-9.792228726532812288e+00
-2.054938016971098041e-02,4.096319130496725580e-03,-9.797857092296830217e+00
-3.217854995926109490e-02,-1.282955482045224169e-03,-9.790590683895690205e+00
-2.857465024822312613e-02,3.564132270847405505e-03,-9.792843367541891553e+00
-3.321643220008810987e-02,-2.039396458042458740e-03,-9.797947189596740714e+00
-4.880622283730877420e-02,2.708838802576620484e-03,-9.797207589076185386e+00
-5.461808642947512532e-02,3.906517628854430310e-03,-9.796879864644964186e+00
-6.674378757432419818e-02,-1.113620654285786419e-03,-9.795033748573585441e+00
-6.680796243595210626e-02,-1.490303136015536187e-03,-9.801248730238857121e+00
-8.132625364126265521e-02,-3.516279051044230233e-03,-9.793124016685693434e+00
-8.970143237776487255e-02,2.695502041269650251e-03,-9.791602740194097265e+00
-9.523664642279792980e-02,1.388228944724015194e-03,-9.793351371529778859e+00
-9.716382360568301402e-02,5.659083155475945134e-03,-9.806728628822515503e+00
-1.229508998198085706e-01,2.717904196640293611e-03,-9.798125978524199198e+00
-1.238827393612891986e-01,-1.307541286507629425e-03,-9.791224561763366196e+00
-1.439970617519051310e-01,4.700254439013208663e-03,-9.787562344797819947e+00
-1.407389174175484314e-01,8.726042077074048359e-03,-9.796235206418753449e+00
-1.558734886036411971e-01,-3.314318870240686495e-03,-9.793401997984281238e+00
-1.705684853504285947e-01,1.132525919542182527e-02,-9.790058037353562170e+00
-1.884695622135008353e-01,-1.611032011836138929e-03,-9.796702672489519870e+00
-1.974579824805936523e-01,-1.172954560181227804e-02,-9.789573593480783487e+00
-2.099301008725131534e-01,7.107517409807345872e-03,-9.790138097722341115e+00
-2.260783313438805286e-01,3.570456038928009751e-03,-9.793660584188653928e+00
-2.384856783754525644e-01,-1.020184907766211006e-02,-9.787294649350002373e+00
-2.545092740418391508e-01,-3.503252721745044474e-03,-9.786259370108195910e+00
-2.726329957516045455e-01,9.316614264923929120e-03,-9.788828527800982116e+00
-2.870082619957936010e-01,-3.464010662380882788e-03,-9.796926786868047188e+00
-3.127185715352054363e-01,-6.216350725456711891e-03,-9.787082137859107078e+00
-3.240875003412663213e-01,-3.727173611937770713e-03,-9.791325371636361297e+00
-3.516407844729134702e-01,1.145270060896102712e-04,-9.787658265921496792e+00
-3.724177007955055685e-01,-4.453312544405608336e-03,-9.778194090636352698e+00
-3.861849068308210731e-01,-4.974769587088783383e-03,-9.790075158344050621e+00
-4.073311146212454936e-01,4.845887210780476517e-03,-9.786176862175267388e+00
-4.140244825592053757e-01,4.840099507716659130e-03,-9.781748607596727041e+00
-4.284031333140776443e-01,-3.518131577963070494e-03,-9.779795259046398570e+00
-4.646309318877520078e-01,-5.314125589222183903e-05,-9.780865861085020541e+00
-4.832487898928973236e-01,-1.122723436154201247e-02,-9.783722743782741205e+00
-4.940445269672870676e-01,2.651087050388261160e-03,-9.790374014895931509e+00
-5.248850633006993949e-01,-2.366753631152016370e-04,-9.780100064913932911e+00
-5.525233281629083892e-01,-3.808531299065691031e-03,-9.780315105294572930e+00
-5.815244579050268259e-01,5.280138010886894877e-03,-9.779848161292814979e+00
-6.027354387159666871e-01,-7.923250017146409030e-03,-9.783359164511979955e+00
-6.265246549195708781e-01,7.185054971069296768e-03,-9.773239209680998130e+00
-6.527941202758108519e-01,2.291466859220562570e-03,-9.769120035803908308e+00
-6.767325750893702363e-01,-1.065124671059359401e-02,-9.774710156084328361e+00
-7.040161655434913346e-01,4.407505055759281670e-03,-9.773405227752244073e+00
-7.292581846247080390e-01,-1.865636680670808723e-04,-9.773046620833888198e+00
-7.547542676455789579e-01,-7.263654477309439833e-04,-9.770251742991741040e+00
-7.814334501129400756e-01,-9.395672379565346913e-03,-9.763609850943662849e+00
-8.131445794592604415e-01,8.832744152850074623e-03,-9.754831591216031939e+00
-8.360137854424684045e-01,-7.842223185626967519e-03,-9.763473783474401202e+00
-8.630153776853456415e-01,-2.439046104216488573e-03,-9.761412812452391563e+00
-8.930395158405243228e-01,-4.596255973902029814e-03,-9.759776346307567962e+00
-9.277981294597332784e-01,3.316348185511341310e-03,-9.745764595865349378e+00
-9.528271125231978500e-01,8.979428012496881153e-04,-9.755430376601953668e+00
-9.833003001910135543e-01,-5.703500435267964269e-03,-9.744900036913961117e+00
-1.023744888646120677e+00,5.809616160369193705e-03,-9.742155990039689684e+00
-1.047092543008781185e+00,-5.109836526157969169e-03,-9.736359361285071401e+00
-1.079709132419824469e+00,-3.295251693874719310e-04,-9.736398662041773733e+00
-1.107334549717815753e+00,-7.050181708170847467e-03,-9.724773853055413753e+00
-1.147837013313485643e+00,-4.461554219104900409e-03,-9.728126721690856016e+00
-1.182026355762295422e+00,8.174483269268579405e-03,-9.722370847193976928e+00
-1.210395426633664284e+00,-3.334690670777448306e-03,-9.719306839735475378e+00
-1.249027686335351772e+00,8.435589413449936028e-04,-9.724867766374700295e+00
-1.279160423088588017e+00,-6.737285900913493955e-03,-9.707330147633477679e+00
-1.315227651049302837e+00,2.090382804400907867e-03,-9.695146719102288202e+00
-1.356190692834460698e+00,1.091237117223686076e-02,-9.701511567226607013e+00
-1.382645770479935088e+00,1.046131025465763323e-02,-9.696358632567509517e+00
-1.423870106761563559e+00,-1.063490076846354635e-03,-9.698589755135291313e+00
-1.454703178971115118e+00,-2.331570020850473081e-03,-9.684322283002503085e+00
-1.498473294117112165e+00,4.189353173078480194e-03,-9.673492979791181057e+00
-1.548783950839131895e+00,-4.627134011775163938e-03,-9.677195574882590634e+00
-1.588427286133148320e+00,-8.066089796130984299e-04,-9.669461327140210116e+00
-1.621152378085185086e+00,-4.439134526456205848e-03,-9.664134277333603862e+00
-1.656979722742047301e+00,-5.371200021813347589e-03,-9.655337041940336817e+00
-1.701401499615537771e+00,2.369199997611888715e-03,-9.640522785716472143e+00
-1.730539581400546423e+00,-4.195119145520800896e-03,-9.636017041664912242e+00
-1.788577386247330203e+00,-8.732074250289097216e-04,-9.628224900525019336e+00
-1.818389546351518060e+00,-5.101745089606693571e-04,-9.628099592966547604e+00
-1.863070027031004106e+00,2.517333035204617937e-03,-9.614570818134859920e+00
-1.905519342614390821e+00,-9.828093071821428564e-04,-9.601132260244144234e+00
-1.942849987203657980e+00,5.405803392556018765e-03,-9.601963337082505490e+00
-1.995368419195823639e+00,1.749638787404672689e-03,-9.593670140774896993e+00
-2.036174564191195913e+00,-5.140299848396817292e-03,-9.582442643342247379e+00
-2.079197449455477020e+00,4.112612835149422573e-03,-9.576265464085864210e+00
-2.122923313084450925e+00,1.029515930800619337e-02,-9.567073974208065934e+00
-2.174822745995644180e+00,-4.653528013186505798e-04,-9.546845532669669510e+00
-2.210935018890460846e+00,-5.089856746255221054e-03,-9.541379701457659124e+00
-2.261925491644505293e+00,-3.513407502637031464e-03,-9.537962408732228781e+00
-2.300292349564634353e+00,-2.122182287067491541e-03,-9.520398897997816690e+00
-2.350505399877103940e+00,9.412526614122975616e-03,-9.505289094035955344e+00
-2.385506479366596988e+00,-3.032823661810039092e-04,-9.494515619076663526e+00
-2.450807200907773709e+00,-4.373554172033010216e-03,-9.483127290208376081e+00
-2.488441398750778522e+00,-3.496291467906477782e-03,-9.471601541424854886e+00
-2.543783716330379807e+00,1.020703321655253189e-02,-9.454500535661075844e+00
-2.588056450917451734e+00,1.115814299875847590e-03,-9.445852151895939741e+00
-2.648288318424872223e+00,5.204501822023564067e-03,-9.424169841222441946e+00
-2.691297396917790241e+00,1.316957458064076146e-03,-9.416582872212551081e+00
-2.741573524088477765e+00,-1.242495107874412238e-03,-9.404628739223396039e+00
-2.780436705502966621e+00,-6.785556488716628677e-03,-9.377623302778333780e+00
-2.840671713894480810e+00,4.438142605244294742e-03,-9.370477601351479890e+00
-2.893559726989550551e+00,-1.913291171747823986e-03,-9.360997435949906631e+00
-2.944856336406282971e+00,-8.587330854019877609e-04,-9.339684664959525762e+00
-2.997726368152846543e+00,2.877044044817456646e-03,-9.323943132445844384e+00
-3.042365459630743452e+00,-2.882044820228218084e-03,-9.312607265595318040e+00
-3.104208935888131293e+00,-7.548743889865650036e-03,-9.289866673285239074e+00
-3.155919277032841030e+00,4.620692930279548735e-03,-9.274311596147347458e+00
-3.204353384600142185e+00,-1.139521180992688308e-02,-9.254834734655492667e+00
-3.252754495300742121e+00,-4.951040678966316631e-03,-9.227011812675474545e+00
-3.320126850667019625e+00,-3.997455639670006652e-03,-9.220821644715016419e+00
-3.363840920338108997e+00,4.233922539581510755e-03,-9.194645266919954096e+00
-3.425548707005339644e+00,-5.250960858995209861e-03,-9.180997784561714781e+00
-3.476573970932979041e+00,5.062739365236209460e-03,-9.157903196717397165e+00
-3.523007716661061384e+00,3.097729019464163375e-03,-9.133546329420621390e+00
-3.580781014919650396e+00,3.595143597837534549e-03,-9.111799618774361065e+00
-3.635252337061682049e+00,3.457513269429789409e-03,-9.089708761680345361e+00
-3.692360513333218908e+00,-6.713081139252860194e-03,-9.087680827114878568e+00
-3.756222929906551045e+00,3.501706312074849298e-03,-9.044614653367647250e+00
-3.796223748173952917e+00,3.234906382231814408e-03,-9.026067873659306073e+00
-3.853832422025558646e+00,4.065986734048763346e-03,-8.994282530355178551e+00
-3.909835071050322242e+00,-1.142932382717797490e-03,-8.980945946192491647e+00
-3.960884852111832277e+00,6.319464785634133601e-03,-8.960157155653911687e+00
-4.020779091638331693e+00,-7.190671994942931904e-03,-8.938159403329361652e+00
-4.064359661084323783e+00,3.598270762374274154e-03,-8.904849381200442338e+00
-4.113987147704644798e+00,-8.907406945578833640e-03,-8.882975504527683697e+00
-4.170175035762493820e+00,3.465445853262040608e-03,-8.862335012920992128e+00
-4.222576063299942284e+00,6.512884141919618453e-04,-8.838634206664560011e+00
-4.274793387624155727e+00,-6.243125839651145897e-03,-8.808236560803115012e+00
-4.320650532888804740e+00,-7.537302640258592736e-03,-8.787626206828974773e+00
-4.378020394443684182e+00,2.825667668434647499e-03,-8.758519615855556495e+00
-4.428375806761577493e+00,1.296735970705454634e-03,-8.736598683770724350e+00
-4.471658786592568546e+00,9.181366758369160054e-04,-8.715665539544071194e+00
-4.518541686074977193e+00,5.530202916645026931e-03,-8.687927398676968949e+00
-4.568523104963333026e+00,-3.240569898480394687e-03,-8.663725601399017151e+00
-4.618137963282771707e+00,2.498279495844265446e-04,-8.631363864000036301e+00
-4.663782522786267926e+00,-3.613975579541602381e-03,-8.600323781955504288e+00
-4.712696554990910336e+00,-1.748079925851695263e-03,-8.581594414805973514e+00
-4.766651041049986048e+00,6.687109695906158328e-03,-8.560626878083242630e+00
-4.805251848575253781e+00,7.421960617473839436e-03,-8.540270976292267946e+00
-4.854398956808293697e+00,-3.425818107495747725e-03,-8.512305795489810478e+00
-4.902119167363605534e+00,7.231131465213462388e-03,-8.476916126657922490e+00
-4.944947646606155267e+00,-1.248485339269993959e-03,-8.446003328593494786e+00
-4.991669985797541287e+00,6.519295366207099839e-03,-8.420974356403871042e+00
-5.046492030636847481e+00,1.535295545122490005e-03,-8.393757148059057371e+00
-5.091410863898185646e+00,-3.090238787065378075e-03,-8.370610932689613648e+00
-5.138619859065187256e+00,5.132739939996160648e-03,-8.343188005116674688e+00
-5.183987227257313535e+00,-2.577989593856528446e-04,-8.322130711109375412e+00
-5.224310441329636845e+00,-4.013223323216848042e-03,-8.281333255236257074e+00
-5.266725658291066203e+00,2.848092178927050244e-03,-8.257771192257139958e+00
-5.307294662457930023e+00,3.446867867927955360e-03,-8.228593564261419857e+00
-5.352809019820036873e+00,2.835361545739250450e-03,-8.202296323661093069e+00
-5.383518036702984233e+00,-4.670540147069016622e-03,-8.174629080980004403e+00
-5.438083449495218602e+00,-4.503009136095606664e-03,-8.141724359619431084e+00
-5.475890706815658149e+00,-3.863986213322346684e-04,-8.121463423739879062e+00
-5.519738042875705020e+00,-1.596692188962897663e-03,-8.091582716575118184e+00
-5.565255569463323226e+00,-3.076653198321811604e-03,-8.070332142519371033e+00
-5.608396411695663275e+00,-1.666659188872952890e-03,-8.028476774734736310e+00
-5.642273392932361631e+00,-2.451659845381308597e-04,-8.000003296961576638e+00
-5.679989816015412529e+00,-7.515771470058753290e-03,-7.976491439031847541e+00
-5.726828310479525008e+00,3.507579071736424345e-03,-7.944771307548100125e+00
-5.762339127573778974e+00,-4.765786132043274038e-03,-7.922747306600951056e+00
-5.802293913098256262e+00,-7.285134324669054629e-04,-7.890136242556218704e+00
-5.833438566593191155e+00,-2.403421109018772078e-03,-7.865183183180197268e+00
-5.874439210742167461e+00,1.689997861790427155e-03,-7.841188085081610915e+00
-5.913509413091460054e+00,-1.831597336595496613e-03,-7.807456144023387168e+00
-5.954463541607937671e+00,1.950935669033601952e-03,-7.780616801503094315e+00
-5.990462093547105127e+00,3.504681855664890013e-03,-7.751816881121109226e+00
-6.028457949170463515e+00,6.844924032062497249e-04,-7.710851648523383339e+00
-6.058408052048937620e+00,-4.801615199688143154e-03,-7.686542353233441816e+00
-6.101098712698784787e+00,9.257932886088391430e-04,-7.660118189020060697e+00
-6.127404286554637203e+00,9.349514427237897579e-03,-7.632689844762948539e+00
-6.176577319190299065e+00,1.698692791537785313e-03,-7.609899816372038828e+00
-6.210163675489600799e+00,-1.669718771567271602e-03,-7.578317031617255672e+00
-6.237385305360851007e+00,9.203249919513769098e-03,-7.545848171340940880e+00
-6.278057049555703095e+00,-3.661558606602851804e-03,-7.512126976331946260e+00
-6.316158035524395586e+00,-2.498792838831559449e-03,-7.485948905937451769e+00
-6.341403593794099791e+00,7.043202145463361985e-03,-7.466697903971461159e+00
-6.380316056383187551e+00,-1.445067606183656405e-03,-7.428854830918847796e+00
-6.411088928176571500e+00,-1.826703514509628963e-03,-7.410314826094375640e+00
-6.440478369532140590e+00,-4.207918148203673020e-03,-7.375027542940232550e+00
-6.477265156548450697e+00,3.669464288323508183e-03,-7.338647593409411307e+00
-6.513540468889889468e+00,4.795237386345781801e-04,-7.326390357242542173e+00
-6.551453620213032458e+00,4.111369169160467886e-03,-7.282047516923863206e+00
-6.574827601336732386e+00,2.918141916725652818e-03,-7.255116379243691682e+00
-6.611534849935642555e+00,5.748582647178182917e-03,-7.238157642325521834e+00
-6.632793198287493475e+00,8.377040025589005401e-03,-7.204887999746298455e+00
-6.665446520584238144e+00,6.535748066821575261e-03,-7.182048666440044471e+00
-6.697590364606312185e+00,-1.413398493694106601e-03,-7.142156516900181273e+00
-6.733372662209828441e+00,-1.314167379047466791e-03,-7.116886318354315399e+00
-6.763631472125260835e+00,-1.037130713863029970e-02,-7.089306126839124644e+00
-6.782328309268335964e+00,1.164672125157735364e-03,-7.063016874188387639e+00
-6.820704038934856328e+00,-2.649479533722667347e-03,-7.028678090345006346e+00
-6.851689559654818851e+00,-3.645191716127080261e-03,-6.999337186108306241e+00
-6.884338999737400044e+00,-5.161168607920364054e-03,-6.967427698275177050e+00
-6.913789528421780517e+00,1.509930909009925314e-03,-6.945527371189809784e+00
-6.935184607931053513e+00,1.570757622677214360e-02,-6.910088064390797591e+00
-6.958039273729095697e+00,2.543325306248935425e-03,-6.889929463725315451e+00
-7.000371160207734533e+00,1.560682225821042072e-04,-6.863024913126744231e+00
-7.027040263016510302e+00,1.409122364415131903e-02,-6.817759439441562819e+00
-7.051568624671002539e+00,3.374717992515033869e-03,-6.800886992361646399e+00
-7.081677890587700475e+00,5.829066445422222478e-03,-6.776295529448780108e+00
-7.105093747458263387e+00,1.004445460347792168e-02,-6.744138393443630086e+00
-7.131788080831987564e+00,-2.144763945706555219e-03,-6.710000604238558708e+00
-7.160300521124100648e+00,-1.258865302106472722e-03,-6.689139808435471402e+00
-7.188312025127938654e+00,-4.867954786631985319e-04,-6.659961740233592664e+00
-7.200787998665989953e+00,5.941551942219631304e-04,-6.636765808876742057e+00
-7.246562945512450504e+00,4.478256992005634658e-03,-6.602160358340571022e+00
-7.244475621523043252e+00,-5.103140401273335673e-03,-6.575500652199513851e+00
-7.288778341570594677e+00,-4.464532670079091395e-03,-6.539961684013756660e+00
-7.312420758915847863e+00,-1.274755852073259331e-02,-6.518555268609636855e+00
-7.337931527374764507e+00,-4.518192766131249889e-05,-6.495836590646273834e+00
-7.365378610941554882e+00,1.163240356878783750e-03,-6.458505420743637870e+00
-7.380266979844687825e+00,-7.181008494633992628e-03,-6.434940002096276146e+00
-7.408410438398914444e+00,8.591366249261335117e-03,-6.409428872995977855e+00
-7.428582677717741944e+00,-4.432313830761290714e-03,-6.380606326015250573e+00
-7.461231194133297606e+00,-3.713202331887249970e-03,-6.342864039180152069e+00
-7.485531743370320790e+00,-4.325756327235393342e-03,-6.315961395912901288e+00
-7.497072285195518049e+00,-2.789509084788522036e-03,-6.295596410765184281e+00
-7.527400648492251989e+00,3.938479626734890486e-03,-6.262648981144629090e+00
-7.542661772642181184e+00,-8.073558307990221644e-03,-6.243535037509002628e+00
-7.578263351392484637e+00,-6.945586031531274240e-03,-6.199129625028194646e+00
-7.598566812942442183e+00,-7.624151051796340672e-03,-6.184247347519220561e+00
-7.620611096105417204e+00,-3.025641696200300022e-05,-6.156880371399871876e+00
-7.636026827682519169e+00,-4.605588584211824620e-03,-6.132240993531758555e+00
-7.651282352282334109e+00,3.091211565348606430e-03,-6.096072470776462637e+00
-7.684900003647892497e+00,-9.098572282225148066e-04,-6.077613933132910873e+00
-7.703342411400444512e+00,-5.352985780368624963e-03,-6.048911810523533994e+00
-7.722769499799458259e+00,-1.563793973982188909e-03,-6.018125763347413226e+00
-7.752865153700662759e+00,3.216352032912310368e-04,-5.995430326942983612e+00
-7.767442897557232939e+00,-2.202364228360164169e-03,-5.974264273847382789e+00
-7.780402469634570828e+00,6.421594458522678680e-04,-5.933916582565761821e+00
-7.807634915096412165e+00,-1.339976730386621077e-03,-5.911455086974379824e+00
-7.827892006778877310e+00,1.062788437124172420e-03,-5.894246720585929467e+00
-7.842437363816607387e+00,8.468207566006835533e-04,-5.866457470912811445e+00
-7.863419151364185566e+00,-1.046277885911930418e-02,-5.827327522893112288e+00
-7.891530249278096321e+00,-9.468274929757609926e-03,-5.804406458222575615e+00
-7.904528063519429715e+00,-2.932528947204668651e-03,-5.784216391912882393e+00
-7.923263917311171411e+00,3.827283711867267291e-03,-5.756897270689019130e+00
-7.947604948298587324e+00,-2.442233154501169921e-03,-5.729422825358111204e+00
-7.962254211730744657e+00,-3.331025928293535835e-03,-5.699833188113524685e+00
-7.984792313359079685e+00,-7.499834370895621001e-04,-5.677868413047752583e+00
-8.004093642601411318e+00,5.597581371928167212e-04,-5.645485359394998071e+00
-8.022297433003606315e+00,4.591359171896235679e-03,-5.630062451303069260e+00
-8.029216915568742508e+00,-4.999254311886119212e-03,-5.604342198116118112e+00
-8.044596351411243518e+00,-6.575191090603276813e-03,-5.579806711656853047e+00
-8.074995132978996182e+00,5.316770258423027945e-03,-5.550351722818924749e+00
-8.092579713706733457e+00,8.234606860122162947e-03,-5.525024729557657999e+00
-8.109785371150968203e+00,4.564930315675360881e-03,-5.494375407893450358e+00
-8.117469766125934072e+00,4.800124647380945957e-03,-5.472503290374829632e+00
-8.140637273001948060e+00,-1.710086999431782327e-04,-5.440346091677001894e+00
-8.168309506622049909e+00,-8.412222416658288182e-03,-5.415467481648526871e+00
-8.168947318395606061e+00,-5.163505901700837786e-03,-5.391113190185263804e+00
-8.178351121179119332e+00,-7.266800743368360266e-03,-5.371242075666729399e+00
-8.199606265768235147e+00,3.868401854739066462e-03,-5.346920406540701443e+00
-8.225173685971830295e+00,6.567988632398821976e-03,-5.316462865349836697e+00
-8.240440589925958292e+00,6.893849197773513132e-04,-5.292075950170636922e+00
-8.257876007433612386e+00,4.713261222841682446e-03,-5.270166525334299301e+00
-8.274232507459331032e+00,3.393866638589731165e-04,-5.244336323006064227e+00
-8.280419951602707940e+00,5.522007960273415256e-03,-5.222648571157034958e+00
-8.302266980620155223e+00,8.262073100911059009e-03,-5.197421102549947491e+00
-8.322237185712880958e+00,3.207421269561335289e-03,-5.161929299807478166e+00
-8.317425851435407580e+00,-9.306410828636580562e-03,-5.145561178024139259e+00
-8.341528183529508311e+00,-1.469480895951610216e-03,-5.125479169807801938e+00
-8.355176013210400043e+00,-8.088344637458437514e-03,-5.098583398552760215e+00
-8.377543152529824511e+00,1.720941887965324237e-03,-5.076099057583355112e+00
-8.391946647546999927e+00,-1.214563991027254632e-02,-5.057630661385771553e+00
-8.396274753859575668e+00,-1.141468820076860062e-02,-5.036005807485291363e+00
-8.421465191162901931e+00,8.460055531010468848e-04,-5.013301251624620924e+00
-8.432857167385089170e+00,-3.026994058468553649e-03,-4.970114068483463932e+00
-8.445560996608300286e+00,1.625438329922342367e-03,-4.960927851953258916e+00
-8.456137192888212084e+00,-3.303000982747924218e-03,-4.940730193175216556e+00
-8.476026307824762185e+00,2.857390770970028287e-03,-4.913353654523656466e+00
-8.486988470203799650e+00,9.015267542846394991e-03,-4.890283340594598904e+00
-8.498414231944686037e+00,-5.106773116352219741e-03,-4.861836116381129003e+00
-8.512848587216774732e+00,7.488782679053019795e-03,-4.837791815670617446e+00
-8.519974466684889336e+00,-2.689172112542326243e-03,-4.819727348309870152e+00
-8.539303331265315933e+00,-9.613727188932441603e-03,-4.793021269597741885e+00
-8.551494457185317088e+00,-8.754793317843062713e-04,-4.771899375989540282e+00
-8.565311579211085657e+00,6.597679245156456941e-04,-4.748121752830226860e+00
-8.576611079591780040e+00,-7.955183066378352904e-04,-4.726761150738920669e+00
-8.593240132263334274e+00,6.367306792172585002e-03,-4.698464296543080287e+00
-8.606612480072918459e+00,1.568061990195973327e-03,-4.686501474612134288e+00
-8.611872709022360795e+00,4.976305872454943671e-03,-4.664737474068844314e+00
-8.634021576698827971e+00,-7.395992649109123978e-04,-4.634046357837439345e+00
-8.628933219545475097e+00,1.450144967360593321e-03,-4.613542044102361572e+00
-8.645583522811451260e+00,1.013053480617368256e-03,-4.590181308587641063e+00
-8.661666371943551823e+00,-4.541002871190269810e-03,-4.566572285985498247e+00
-8.670080878549880410e+00,-1.806710255466045236e-03,-4.543511987215103964e+00
-8.695233153568251439e+00,1.994803655628086397e-03,-4.519508134567434610e+00
-8.698782138247345586e+00,6.124045549434919272e-03,-4.503764887899143865e+00
-8.714047113292966884e+00,3.534131479499808166e-03,-4.480110078922367123e+00
-8.705329721921664543e+00,8.903365092785379964e-03,-4.465953187759874154e+00
-8.733085306932263592e+00,-4.691821629900967423e-04,-4.437483824636101026e+00
-8.743563094450882645e+00,-7.876559067750282805e-04,-4.420316880116395453e+00
-8.752503328406540106e+00,1.018015852169329785e-02,-4.391586903455743318e+00
-8.771000950425399623e+00,-3.124320664785471772e-03,-4.375475626715206623e+00
-8.775386296152690946e+00,-3.859150891091416360e-03,-4.359872031856977692e+00
-8.780601845812087802e+00,3.190144114969750526e-03,-4.330486374767243518e+00
-8.800302141511997078e+00,4.488284615537031438e-03,-4.309547034864623427e+00
-8.802203467875441945e+00,6.374011116103384458e-03,-4.294611394813615313e+00
-8.823661811435080438e+00,-2.283956950535371297e-04,-4.267548947910867696e+00
-8.829623365842820704e+00,9.145774129241028214e-03,-4.240874370925624248e+00
-8.843984113680090076e+00,1.950295987025130792e-03,-4.229306735720306243e+00
-8.845047713326882999e+00,1.465741449834158535e-04,-4.200392402270671788e+00
-8.851681699821471128e+00,-1.573327311729011543e-03,-4.186165396084152057e+00
-8.858048614900575046e+00,4.373702184006740545e-03,-4.166347697850841136e+00
-8.877022149135450846e+00,-6.916774760337143606e-03,-4.143259954909329856e+00
-8.883790952438543442e+00,-2.376695951258972483e-03,-4.121309411381955279e+00
-8.898898196635279589e+00,-1.515699824947458994e-03,-4.099887665016255234e+00
-8.900863868043593641e+00,-3.756630271527514400e-04,-4.086086449348143468e+00
-8.904119883306075067e+00,-2.034092420936629668e-03,-4.069456933781585128e+00
-8.922071101422945461e+00,-4.266633335505889274e-03,-4.046940095517155278e+00
-8.925419454235777650e+00,-2.876335262148534480e-03,-4.017976778470712773e+00
-8.943764480860849631e+00,8.665936458720954402e-03,-4.002659443180167642e+00
-8.945947734141940444e+00,5.698510837839933230e-03,-3.984548021006310670e+00
-8.960782985243762155e+00,-5.560820165616449547e-03,-3.960620431612040804e+00
-8.961691001554974889e+00,3.666637934944328922e-03,-3.936482550718148676e+00
-8.958514621108498943e+00,7.686215626398760267e-04,-3.930874095329603080e+00
-8.986978945783864248e+00,-2.807155635640286046e-03,-3.901459024238049800e+00
-8.988837634751279282e+00,-6.354913558797250887e-03,-3.892258741027224023e+00
-9.003025711210728588e+00,4.440384148445438578e-03,-3.864624997724722899e+00
-9.014004046939909642e+00,7.111042474606673984e-03,-3.852506757168446594e+00
-9.016730688071760369e+00,-3.175911756915070130e-03,-3.829923756765858833e+00
-9.026436974840420291e+00,-5.240001253254775865e-03,-3.809868248868444773e+00
-9.031262883217491932e+00,-5.054752829055600243e-03,-3.791059440867774910e+00
-9.029407555599870960e+00,-5.131122869878001341e-03,-3.775711548402306938e+00
-9.044553641831889479e+00,-7.166136735918381823e-03,-3.755774568262651769e+00
-9.051877902069996651e+00,-7.079782071225781959e-03,-3.727833664111941836e+00
-9.069079317580074573e+00,-3.394039887300973318e-03,-3.717970739041019712e+00
-9.066392576235342560e+00,-2.039900989794246437e-03,-3.701442833552279321e+00
-9.077251577223702128e+00,-6.052182520976754493e-03,-3.675167806585501573e+00
-9.075789261136968378e+00,-9.747425016329642382e-04,-3.658881041486190533e+00
-9.090830698823559430e+00,-1.095290904573917139e-03,-3.645083014810771349e+00
-9.101078242340076230e+00,-1.434174254771124375e-02,-3.629851652788921967e+00
-9.102143506013684160e+00,-1.132862885437204131e-03,-3.607105517884495516e+00
-9.116211112842348641e+00,-5.641734289583523639e-03,-3.578874300641416095e+00
-9.120909074034861064e+00,-4.645057020738103688e-04,-3.574307450059742042e+00
-9.119909356793625577e+00,2.440876486406427966e-03,-3.552390759102455053e+00
-9.126137718124729403e+00,-6.506057408309318633e-03,-3.531274203964939851e+00
-9.136232578490988132e+00,1.694204279631335167e-03,-3.516195730990810731e+00
-9.143663207297198170e+00,5.912779999502470324e-04,-3.500207079665751397e+00
-9.159189810275238486e+00,5.192988862770821744e-03,-3.475297096302985445e+00
-9.164260731321355991e+00,7.104828942391581102e-03,-3.462464089714352156e+00
-9.167049296533670955e+00,2.423445264329747093e-03,-3.446926265006931001e+00
-9.184656649396474748e+00,-5.845067802631484077e-04,-3.437637857153862164e+00
-9.187963945738834681e+00,-2.346143932721622780e-03,-3.425666880993720742e+00
-9.194799937140331281e+00,7.207312534365048311e-03,-3.391588358954516380e+00
-9.190625521711163870e+00,3.883925008717624156e-03,-3.372832943580382992e+00
-9.196366432631823074e+00,5.081257655616957906e-03,-3.355036979582007195e+00
-9.199579166515039930e+00,-3.335292585589814170e-03,-3.338888292199086560e+00
-9.202811561300141108e+00,3.230009836411039652e-03,-3.321473758618615157e+00
-9.205962192220844997e+00,3.743189669327607726e-03,-3.305839536420177804e+00
-9.223442775980863928e+00,6.258907594509515587e-03,-3.288149972986613268e+00
-9.231384783176398656e+00,-9.740479810134601568e-06,-3.267526065196262319e+00
-9.232888739413516177e+00,-1.442739660284450554e-03,-3.263030913420841728e+00
-9.247865269892917794e+00,1.645769053103357700e-03,-3.246084740631246301e+00
-9.246617434556217319e+00,-3.015488491643763223e-03,-3.230248107107290156e+00
-9.253878098013613496e+00,2.383647971083088530e-03,-3.208513569048767167e+00
-9.254615093439069184e+00,2.087220327953105518e-03,-3.199226069422177243e+00
-9.258043474018672114e+00,-2.656007455658491567e-03,-3.175953233835965506e+00
-9.274564984410977431e+00,3.016704764059165156e-03,-3.175202466161639148e+00
-9.274323681784377271e+00,-7.998322358257947597e-04,-3.147619888171564462e+00
-9.270253143803998341e+00,3.019511561168912017e-03,-3.128490040001268291e+00
-9.287488233693830253e+00,3.008308781848325567e-05,-3.115124826005977621e+00
-9.294641671282946049e+00,-5.149270971000869182e-03,-3.102177252692527532e+00
-9.293395841807347679e+00,5.109740432736151368e-03,-3.083106353436838809e+00
-9.302941645662517800e+00,-5.578314613877929408e-03,-3.067531383139537660e+00
-9.301276442523940702e+00,5.045397335909700305e-03,-3.051285311721372739e+00
-9.317894937003380562e+00,9.507872111425693870e-03,-3.036784047138642251e+00
-9.317757403271709649e+00,-9.015804461957584257e-04,-3.014481192246978747e+00
-9.323135274651106030e+00,-8.197165197579825077e-03,-3.002810670380508640e+00
-9.322239136992159558e+00,-4.030823112391427763e-04,-2.988635661262303955e+00
-9.337715092748787526e+00,-1.090079147203985160e-02,-2.964730099290202148e+00
-9.336292425011656348e+00,1.333262195528644263e-03,-2.964316757713025829e+00
-9.344542086465695618e+00,-5.952075203514233491e-03,-2.951222903456560243e+00
-9.341451391610668509e+00,1.221915674037920164e-03,-2.941465425711549120e+00
-9.353091478625982447e+00,3.566063280854938223e-03,-2.913207566099384138e+00
-9.357503299895750359e+00,3.583120313539371951e-03,-2.907560996470901049e+00
-9.366141204716745605e+00,3.135505354692556812e-03,-2.886179509342846838e+00
-9.364516982513924503e+00,2.383847445125288327e-03,-2.869735892812777855e+00
-9.359713085055693327e+00,2.668220394382260149e-04,-2.869171924739241764e+00
-9.364417922936317140e+00,6.036010535807187320e-03,-2.846487758918937239e+00
-9.375386568300386969e+00,-8.340219126490363167e-04,-2.834552797385502032e+00
-9.384059693365315979e+00,-3.041862538612068352e-03,-2.814599484572989141e+00
-9.379084287073883530e+00,1.466075379320756072e-04,-2.807871025374623297e+00
-9.394014817299041198e+00,1.686232615835569788e-03,-2.786043762178641359e+00
-9.398870856310747257e+00,-2.064720474349206105e-03,-2.771072047939792782e+00
-9.403845667950648135e+00,5.824305820263309640e-03,-2.756992967725895305e+00
-9.406248260714425768e+00,7.700296032952550981e-04,-2.737972337444766868e+00
-9.411107819482845471e+00,-7.013905432149653918e-04,-2.727704727480527502e+00
-9.411495275565874508e+00,6.535775126175185495e-04,-2.704883466173880979e+00
-9.414803991863362143e+00,-4.294054034817126886e-03,-2.701948898415070577e+00
-9.417038847503320653e+00,-1.054636616146819098e-02,-2.684041106439122082e+00
-9.420510519756735590e+00,1.118360658559405633e-02,-2.676500738251486933e+00
-9.411810689606006974e+00,4.933558950978384795e-03,-2.665430867162370099e+00
-9.429503322295255785e+00,5.592461603175542459e-03,-2.649736970308656403e+00
-9.437716811938477335e+00,-1.498475281149160357e-03,-2.620407641252421538e+00
-9.436775567143879329e+00,1.639385541844292672e-03,-2.618717655364886099e+00
-9.441040461548990237e+00,7.585527328992020153e-03,-2.605424274342232671e+00
-9.445819043568834061e+00,-5.580785681347215192e-03,-2.584841198102428184e+00
-9.456837206448341249e+00,6.736300793654312162e-03,-2.575526741606935399e+00
-9.454409173574747527e+00,-2.437682575813723135e-03,-2.575648650498556957e+00
-9.462888939787616138e+00,-2.560608920175882347e-03,-2.544910293173756610e+00
-9.456512234530297434e+00,1.796617465476141491e-03,-2.538812275344719094e+00
-9.468978945259866720e+00,-1.057729639747398594e-03,-2.524187134874398719e+00
-9.461613617902596474e+00,2.440102156339489948e-03,-2.515847328862317323e+00
-9.469476136067518368e+00,-2.192434166452221413e-03,-2.502412338453805507e+00
-9.464335787723733517e+00,2.582134294147935211e-04,-2.488916454659761079e+00
-9.474337483013080430e+00,6.168589934777039992e-03,-2.476843195740911607e+00
-9.488735220592511510e+00,-6.979827419363210904e-03,-2.455080999724793323e+00
-9.484842849067643300e+00,1.675539260153343941e-03,-2.448587795357483721e+00
-9.486951300634698825e+00,-3.336798363753910651e-04,-2.439957065305887074e+00
-9.485994407925323557e+00,8.226143087920589209e-03,-2.433219669382427952e+00
-9.486728510102432566e+00,1.692586518361998554e-03,-2.415531500037004786e+00
-9.502082073019893826e+00,-2.921847724378757050e-03,-2.386345636922911684e+00
-9.503176360273078771e+00,-6.768477424047096222e-03,-2.393041008743968412e+00
-9.499535391759494019e+00,-1.667881594870490938e-03,-2.371523049444938636e+00
-9.505742870314925597e+00,-1.391283603834345475e-03,-2.363303014314980022e+00
-9.501380148460945918e+00,-3.322230090534393585e-03,-2.342780667454233967e+00
-9.503002206998235835e+00,-2.128446994682973124e-03,-2.327974240026622788e+00
-9.512814741583470735e+00,4.713316682879890168e-03,-2.315754701827156037e+00
-9.507834681666873067e+00,-5.580650652720252347e-03,-2.317738961433584599e+00
-9.518909113185777926e+00,-1.345200612204851438e-03,-2.295271408963173609e+00
-9.527759553852360952e+00,1.314596872955041060e-02,-2.293456736760711934e+00
-9.523437427466904026e+00,-7.050979682018046826e-03,-2.275689430083173814e+00
-9.516789782436642753e+00,4.148580033381753761e-03,-2.266384090612276303e+00
-9.537444880184299478e+00,3.816077978821163629e-03,-2.251439814185419053e+00
-9.531026836133364100e+00,-5.096071763033292561e-03,-2.253278358828581407e+00
-9.546254684844731386e+00,-1.882297214245344128e-03,-2.227363635803997433e+00
-9.540373701224893921e+00,6.602089857806788496e-03,-2.218279183230190466e+00
-9.536724845456543420e+00,-4.710230173408336447e-03,-2.207651669936872008e+00
-9.541153838888497773e+00,1.553535121514145953e-03,-2.198172808784109478e+00
-9.544851943808762229e+00,3.216766831323242259e-03,-2.180923856227539925e+00
-9.550170968763625368e+00,3.058885462183968517e-03,-2.168440975455926178e+00
-9.553150871929700472e+00,1.154892643563532138e-03,-2.165449453196202967e+00
-9.560503026066816901e+00,8.367875196739005608e-03,-2.153395496931607145e+00
-9.559934905081213685e+00,2.088787104446945819e-03,-2.143798049274828532e+00
-9.562038532297552962e+00,-8.757766002511845711e-04,-2.132302660375303027e+00
-9.553929003423581534e+00,2.449662343223978772e-03,-2.122321659410382200e+00
-9.560913496840830916e+00,-6.345760455976235705e-03,-2.103597025311354063e+00
-9.561612989659934669e+00,6.933506914377687153e-03,-2.086991004027405339e+00
-9.560948390618891679e+00,3.220762596781308676e-03,-2.092275447658873411e+00
-9.562562415199495902e+00,-8.316670292009200206e-05,-2.066627775541928003e+00
-9.579487905760743160e+00,2.811503797575664286e-03,-2.063481637109739086e+00
-9.568447157136965586e+00,-8.985329914183676908e-03,-2.051858244205635895e+00
-9.569699904907089660e+00,4.959701249786128800e-03,-2.045567919629375453e+00
-9.585255481479736162e+00,8.513429273868833302e-03,-2.030290057576345397e+00
-9.581883710728650527e+00,-8.715677501985137285e-03,-2.025422895231001164e+00
-9.588391545598927479e+00,-7.000793228525536982e-03,-2.009836048588044211e+00
-9.582197727577394630e+00,1.097942461612099428e-03,-2.005682404270754837e+00
-9.596867556784765441e+00,2.492871574082527845e-03,-1.984915246848177661e+00
-9.590722607810716838e+00,1.979032600428292082e-03,-1.980550033833418544e+00
-9.597465546194532848e+00,-8.053876343578821604e-04,-1.968491113023744798e+00
-9.603071149862426381e+00,1.556393405414226595e-03,-1.957672295219618608e+00
-9.596146298489903970e+00,-1.324213660441293967e-03,-1.946617782881115533e+00
-9.592289594706768341e+00,6.893577306639336877e-04,-1.944762246630247216e+00
-9.600895923708046453e+00,5.104655773127315249e-03,-1.932934230788375674e+00
-9.600841513329861243e+00,-4.669979087190494725e-03,-1.917203662350360327e+00
-9.602938746788371560e+00,-8.984351472310428410e-03,-1.914911459078739497e+00
-9.609556648137617785e+00,5.037392159052587418e-04,-1.905086863916118034e+00
-9.602913611814420491e+00,1.150331581128665468e-03,-1.885552206789738561e+00
-9.609496922936639152e+00,-7.443471107092156439e-03,-1.884015225930689930e+00
-9.620164902582352795e+00,4.607995492589985441e-03,-1.877344182583122079e+00
-9.610477888534830981e+00,6.120852676359204297e-03,-1.867857088486465367e+00
-9.622927184217433094e+00,-9.976757185124281082e-04,-1.851634641395899950e+00
-9.611759853463047065e+00,-8.988725775166449619e-05,-1.846789410351831862e+00
-9.615800255238781347e+00,-3.315921035167278264e-03,-1.833118767494964052e+00
-9.615441507947565469e+00,5.486295132298597832e-03,-1.829114669859952080e+00
-9.620460629730089863e+00,-7.475212016708816798e-03,-1.809371898270585755e+00
-9.621117250874172910e+00,1.052287154183617537e-03,-1.810577005846224941e+00
-9.622415188176622891e+00,3.440737561615817355e-03,-1.793138921996970225e+00
-9.624259692765255281e+00,-2.618245043596646639e-03,-1.774474681240480134e+00
-9.637578527575831444e+00,-3.962404774429880566e-03,-1.775511741233181340e+00
-9.633982576502230444e+00,-3.466303437443330263e-03,-1.766173858054759904e+00
-9.631790573010627909e+00,8.793228185956458720e-03,-1.755216357924666237e+00
-9.640642598742246605e+00,1.431217034774848618e-03,-1.751910343728056541e+00
-9.638484461063923092e+00,-3.648165962482385980e-03,-1.733836654042629544e+00
-9.640261848679664070e+00,1.375783257533266628e-03,-1.727650562962717906e+00
-9.641507232975785158e+00,7.560690801283235195e-04,-1.718655768325781041e+00
-9.649163080983917951e+00,2.223767405543753718e-03,-1.708236757182732379e+00
-9.647021935075621002e+00,-4.690497061361099430e-03,-1.706290103666820546e+00
-9.651823287738965362e+00,1.746430574945419169e-03,-1.690728168510510443e+00
-9.650824956456741432e+00,-5.902270672158140170e-03,-1.686923056852507985e+00
-9.646306996943064149e+00,4.721045618429230671e-03,-1.676122275857469868e+00
-9.656386208082626155e+00,4.474230797101636480e-03,-1.669262009423603255e+00
-9.640841189339797168e+00,6.162772769826123376e-04,-1.666368151371153461e+00
-9.650850424733915744e+00,-1.400293263078676749e-02,-1.651811260144748106e+00
-9.656389567577882360e+00,1.230186870592027935e-02,-1.643666989306350024e+00
-9.666457805517385538e+00,2.707035271745492533e-04,-1.647897179561251590e+00
-9.653147734885475728e+00,-1.033585502985285860e-03,-1.616479026468271574e+00
-9.663755774775099283e+00,5.503582952950517894e-03,-1.623827149830562533e+00
-9.663975819678576329e+00,-1.035443615359366888e-02,-1.619621420606808915e+00
-9.672628582381362250e+00,-9.116036538146328819e-03,-1.596726950352371110e+00
-9.666295073796099757e+00,4.856241161324144004e-03,-1.600314348454640712e+00
-9.664130295890618783e+00,-7.650078287008597704e-03,-1.583425799852247184e+00
-9.658740626164588505e+00,1.070322915617612572e-02,-1.577546761288569632e+00
-9.672856968972583402e+00,1.491147533623930592e-03,-1.574575810592800496e+00
-9.675686094182049501e+00,-2.238235299854926356e-03,-1.568021839211036328e+00
-9.677888900016087703e+00,-1.159188625391175493e-03,-1.565441939896118129e+00
-9.667471786347011431e+00,8.251231429880167417e-03,-1.544477824172731273e+00
-9.669597369856038682e+00,-3.738828820734433570e-03,-1.538631929362059836e+00
-9.673928940646009167e+00,6.012980233490750406e-03,-1.522403925238231315e+00
-9.674727018367981657e+00,-2.589958893235021382e-03,-1.523167607372174936e+00
-9.678229796865869261e+00,-4.242846517254013697e-03,-1.509235534656130362e+00
-9.676910226411020943e+00,3.105423135131147542e-03,-1.503046990124478954e+00
-9.675724409465386699e+00,-1.135094046071474100e-02,-1.500038680578593464e+00
-9.676559327490936724e+00,-7.757993790046514675e-03,-1.485848385692758011e+00
-9.679808097284919199e+00,-5.249488234333915190e-03,-1.476214005320746647e+00
-9.678386188388763856e+00,2.315546321339521322e-03,-1.474213690915105346e+00
-9.680802440628708538e+00,-2.623462920290388183e-03,-1.474357639600322623e+00
-9.684134302964057639e+00,3.415481175589574724e-03,-1.452705556607417847e+00
-9.690326263187182931e+00,6.573391491540046122e-03,-1.454629628706538336e+00
-9.684790988580415316e+00,2.136679890000060464e-03,-1.441195452266562871e+00
-9.691304285319009892e+00,7.650518649848133887e-03,-1.435177312466768607e+00
-9.689673994087645070e+00,1.813819884589212145e-03,-1.415597781657765175e+00
-9.697303061216306475e+00,-9.012515133283060392e-03,-1.424450667881660415e+00
-9.694283755951797588e+00,-4.182629830679124652e-03,-1.408002094558013617e+00
-9.697897923523060015e+00,-3.986108714818017637e-03,-1.398599088377858735e+00
-9.695246597718808701e+00,-1.053332512227972634e-03,-1.397221095621110187e+00
-9.683283700374492042e+00,-3.625763508219351314e-03,-1.385406794392171737e+00
-9.696924717136012006e+00,-1.758653144535143398e-03,-1.383465944981439932e+00
-9.693820559001293802e+00,5.942351900603477441e-03,-1.368931498323789020e+00
-9.696514548559230562e+00,5.043117815750031499e-03,-1.367030066246517572e+00
-9.692949700126975543e+00,2.119101145927583356e-03,-1.355470395583060705e+00
-9.696376263633489145e+00,7.782263298541499882e-04,-1.349860892602222640e+00
-9.703947907697354935e+00,1.658233737608685778e-03,-1.347472892270452416e+00
-9.703779727881226336e+00,-2.522187330572227531e-03,-1.349230109443104286e+00
-9.704276137570539973e+00,2.999547103409317978e-03,-1.337465406785466993e+00
-9.703111817267727091e+00,-8.928923565483358124e-03,-1.325838513625028581e+00
-9.706071687214681276e+00,-1.138811888285616494e-03,-1.313493095239450570e+00
-9.705455895255898469e+00,1.193799265790682074e-02,-1.312436815224939490e+00
-9.707188393379066582e+00,-9.736353129370168766e-03,-1.296799643335365460e+00
-9.711683761671881854e+00,4.736059140498872881e-03,-1.300233486474160483e+00
-9.708561628718811676e+00,-7.633137173434010984e-03,-1.287911672234634652e+00
-9.710556051217576368e+00,5.564580403550480753e-03,-1.284001769848662988e+00
-9.706073329037407049e+00,6.761760910935717822e-03,-1.275034024403001398e+00
-9.709615177956383292e+00,-7.125567414670915412e-05,-1.260265044120073119e+00
-9.711055566767775815e+00,6.929323995741209358e-03,-1.262297077646654442e+00
-9.713097797504524067e+00,2.395586355259366525e-03,-1.246385643803348486e+00
-9.710992261741369092e+00,1.576836480904041386e-04,-1.245524449931346922e+00
-9.715996358012427336e+00,2.873036580947810077e-03,-1.251383866341034823e+00
-9.713304808700703674e+00,2.571376466307085176e-03,-1.239144936890580917e+00
-9.719713435324338846e+00,-6.082391297064703925e-03,-1.229719151033729974e+00
-9.714417710973766162e+00,2.216279275040016188e-03,-1.219426002736716752e+00
-9.711525230587126245e+00,1.563031694168259974e-04,-1.225550128191109200e+00
-9.718026630003093302e+00,-6.488830681540865963e-04,-1.216140655782121049e+00
-9.716027564821541063e+00,-1.109015830159342485e-02,-1.199165927249192798e+00
-9.725418552833998476e+00,-1.479105665622223878e-04,-1.208099469555768080e+00
-9.713987895438066289e+00,-5.032392919299244483e-03,-1.189748988374308203e+00
-9.720838609989268519e+00,-4.405780153588567194e-04,-1.191343273611721321e+00
-9.717975981326544499e+00,9.875954256283878824e-03,-1.175586196586278387e+00
-9.735713427904958195e+00,2.523224206823070515e-03,-1.169655398139501257e+00
-9.722308529374306119e+00,-9.915561412195596919e-03,-1.164017687048267691e+00
-9.736045793017650496e+00,5.926811794328034483e-03,-1.162598021184913399e+00
-9.717544929235575779e+00,4.960232537418232928e-04,-1.153547428525690810e+00
-9.722400484490272277e+00,8.389477935490609675e-03,-1.156952958274382715e+00
-9.722123868934222202e+00,-3.634282545973800856e-03,-1.148181263245330319e+00
-9.728119872290379888e+00,-4.881914592712407151e-03,-1.142763569790567368e+00
-9.723652140722199633e+00,3.344274424574435450e-03,-1.122586136842079307e+00
-9.723578974409553766e+00,-1.832623611110230583e-03,-1.116637829837759277e+00
-9.734284410832712453e+00,-1.161533941191801979e-03,-1.115344091820098749e+00
-9.728020699917987457e+00,-8.740672268781033566e-03,-1.115113255308880280e+00
-9.734120401487409424e+00,6.815715979740742496e-03,-1.104573525858048910e+00
-9.741344068955013924e+00,-2.015773830802643479e-03,-1.099194698377427892e+00
-9.725903315245513880e+00,-4.500515270354902599e-03,-1.096167582174853106e+00
-9.733428208065369347e+00,2.473294959672408828e-03,-1.099857818021290568e+00
-9.739279259995377913e+00,8.846303587826023773e-03,-1.088184801149695957e+00
-9.735280399245958449e+00,-5.006610778103860737e-03,-1.077465695598126327e+00
-9.736116929054832170e+00,-1.941646400905999801e-03,-1.073216021604574744e+00
-9.732813582890001314e+00,-6.261755318611643070e-03,-1.068288985721284057e+00
-9.735729584932727221e+00,1.344473206934387053e-04,-1.058608036893810889e+00
-9.746101080452826082e+00,-5.256383744321133913e-04,-1.061712741464432508e+00
-9.750019511233949387e+00,2.674328273994819143e-03,-1.051841441593223125e+00
-9.731356442619523150e+00,1.005302800939067431e-02,-1.051596151012016422e+00
-9.736910006846370536e+00,-2.338848036751855174e-03,-1.043132737246664998e+00
-9.737053524414212902e+00,-4.394151486915312760e-04,-1.030784011821058721e+00
-9.741712994380220536e+00,-1.425213060005358148e-03,-1.016586118108500525e+00
-9.733584214688097092e+00,3.667791967657012351e-03,-1.026084626337721906e+00
-9.742166357872797278e+00,1.203767980755242155e-02,-1.021820452821348146e+00
-9.739060282406599711e+00,-2.208258883395538413e-04,-1.005722949590568849e+00
-9.734196343727298029e+00,-4.089283976470777481e-03,-1.006885406420587881e+00
-9.741023132751529090e+00,-9.891428835035085201e-03,-9.931157102394932989e-01
-9.741212424764508881e+00,-4.023100343335606413e-03,-9.992163838046012048e-01
-9.742684814077332334e+00,3.101839587572360023e-03,-9.913460947670533763e-01
-9.746288624672748924e+00,1.193856353241655628e-03,-9.888072446445709263e-01
-9.738241752297389198e+00,9.618421547540377883e-03,-9.844430044687100256e-01
-9.751792116049870174e+00,-3.950147005012303279e-03,-9.729034452352781637e-01
-9.750165169687477373e+00,2.504453611207085179e-03,-9.700810782075853789e-01
-9.749328772298296641e+00,1.798967932206854952e-03,-9.654892958438280326e-01
-9.749615697522143520e+00,2.476274236026863081e-03,-9.645471868108591584e-01
-9.749451621748479013e+00,3.837632838416846475e-03,-9.501665426870240516e-01
-9.742577529387721924e+00,-1.446541951307799435e-03,-9.491772461096639191e-01
-9.748166849115470711e+00,-6.155381009995630759e-03,-9.491057981496135998e-01
-9.746256118435054461e+00,-5.767952854279656365e-03,-9.520531129073360743e-01
-9.747959486495995307e+00,-3.819108834015314587e-03,-9.401401932011870244e-01
-9.745089122983733532e+00,4.949617740832596563e-03,-9.320636354387180633e-01
-9.747231519280393996e+00,-1.234026221531069577e-03,-9.283669844996608189e-01
-9.749877821531420352e+00,8.823074627003373895e-04,-9.246010371755728485e-01
-9.757777419083371484e+00,1.170894740562707440e-02,-9.137999811690485918e-01
-9.753611261052691717e+00,3.443441456383342352e-03,-9.161939838608061937e-01
-9.748546971962710472e+00,4.833348297591108338e-03,-9.040004247438792051e-01
-9.752250092803524950e+00,-9.294161606317768998e-03,-9.087765536712130165e-01
-9.754447160123648430e+00,2.222637285476979693e-03,-8.909805088627813507e-01
-9.754178959997311438e+00,1.189053554982860000e-02,-8.842559946582538855e-01
-9.751366773104569674e+00,6.087869215234397238e-03,-8.857771185167088168e-01
-9.746988844695644971e+00,1.738533136055050695e-03,-8.841389545099925806e-01
-9.752147802227908002e+00,1.367614580298093935e-03,-8.837888057628394689e-01
-9.749632146087684248e+00,8.111380683686790841e-04,-8.736592618519195552e-01
-9.752977798051112757e+00,-2.653332734307423460e-03,-8.716564346446481482e-01
-9.758351699833703208e+00,-2.340517545224493449e-03,-8.700705979399510070e-01
-9.756497263012095189e+00,3.525654812300680306e-03,-8.726732109667376669e-01
-9.758057555792088777e+00,1.294085187262178707e-02,-8.623425358906479099e-01
-9.749673700477289984e+00,6.132507742558901236e-03,-8.535086475848909782e-01
-9.748395287800477149e+00,7.695236971300072970e-04,-8.465138113960035682e-01
-9.755343987382605775e+00,-1.098695812818939552e-03,-8.465999993979953508e-01
-9.760079332263622121e+00,4.045596041598361302e-03,-8.454859780192109930e-01
-9.758554141876762955e+00,2.091306400706905832e-03,-8.391303228679953818e-01
-9.753850969678451222e+00,2.420512053111799778e-03,-8.313721838183834034e-01
-9.754308010126470307e+00,7.190320864771994076e-04,-8.214263424094765398e-01
-9.758791795499073274e+00,-8.084533138391041332e-03,-8.238091114016066197e-01
-9.764429530006127678e+00,-5.076666037661236620e-03,-8.197065774401144367e-01
-9.756889120536817117e+00,2.008297841820704324e-03,-8.207396342915040943e-01
-9.754540175723112938e+00,9.243603315246806933e-06,-8.084448102638822631e-01
-9.766153398405236885e+00,5.804715244226300863e-03,-8.050441097933965784e-01
-9.767529193153180245e+00,1.446376570030185466e-03,-8.072765056569531916e-01
-9.764635141807557872e+00,-1.578436558998634392e-03,-8.012954002273392495e-01
-9.765277365001194809e+00,9.095856962183705360e-03,-7.864073154921392694e-01
-9.765128467715751270e+00,-2.153744197589292121e-03,-7.887266082503766595e-01
-9.768200200452383797e+00,-4.221896408213761560e-03,-7.807599840902385013e-01
-9.769503621443973884e+00,-4.752442063058539027e-05,-7.745426575541370928e-01
-9.771294860544015748e+00,-1.633970272763742579e-03,-7.723561073037953362e-01
-9.767518993963548724e+00,1.435252997647263988e-02,-7.771922881980293241e-01
-9.769230172090628272e+00,-4.295370785441666311e-05,-7.591249851880291777e-01
-9.754681095864118134e+00,2.308698932194637107e-03,-7.612318907588627726e-01
-9.767795836987719582e+00,-1.181294819081388486e-03,-7.637193336376948416e-01
-9.759619081229383042e+00,1.433551005142974727e-03,-7.587703688214689768e-01
-9.765307764002281843e+00,-2.057814174301458073e-03,-7.519766804964648221e-01
-9.764046098276788044e+00,-2.398228823644323830e-03,-7.426343603110269198e-01
-9.769891690394839401e+00,-3.669562290385737502e-03,-7.420825874516838727e-01
-9.764761012452495947e+00,-4.673256648564210781e-03,-7.386264779384412726e-01
-9.768670771171217737e+00,-3.771431341628661560e-03,-7.375581774940623836e-01
-9.766769885465750534e+00,-8.514830819713476709e-04,-7.345776845776924580e-01
-9.777556825886192016e+00,-4.165430058530860194e-03,-7.278469080525158397e-01
-9.771804782071011886e+00,-9.245221919959994983e-03,-7.299054964762013986e-01
-9.762804996055068685e+00,6.349019248078551642e-03,-7.225647373080145153e-01
-9.773890825704006247e+00,-4.168635217130646324e-03,-7.101452759948023719e-01
-9.771087692253972889e+00,-1.727555419110735893e-03,-7.108772341668194716e-01
-9.764060619766354421e+00,1.795755328806855448e-03,-7.065643650151650634e-01
-9.767157483087913761e+00,7.948931432555770074e-03,-7.098894445150216725e-01
-9.775374757415956850e+00,-5.438772502054999925e-04,-7.082908721998459889e-01
-9.765790694756020685e+00,6.661880489175290784e-03,-7.054947482732991659e-01
-9.763030376506952379e+00,2.866198836591157817e-03,-6.972573310942735691e-01
-9.760196649043653139e+00,3.661484297690154217e-03,-6.911880011004115643e-01
-9.766785583434481666e+00,-1.962816727308640437e-03,-6.947854561455729661e-01
-9.765319406669025426e+00,7.691763324363448326e-03,-6.774897101611787598e-01
-9.782239039231711786e+00,-4.376871479199565288e-04,-6.818701445048774845e-01
-9.769060238060562895e+00,-1.784397102798119692e-03,-6.744452926487576327e-01
-9.764037209445953991e+00,5.036780977338101107e-04,-6.760007340164513323e-01
-9.783586561066355713e+00,3.097482768975068010e-03,-6.660233919677170933e-01
-9.773055142776572168e+00,-8.273682918724618168e-03,-6.686582646663341567e-01
-9.774067348949936118e+00,-4.508613272729877601e-03,-6.567542244825959052e-01
-9.766844739808115960e+00,-2.074906465852698924e-03,-6.574901393353120849e-01
-9.777537190513575283e+00,2.793156945296367422e-03,-6.519738183737048276e-01
-9.774818707864428191e+00,4.742675618170631019e-03,-6.611749256170840194e-01
-9.766548096708792315e+00,5.142225949647930873e-04,-6.516714278720278086e-01
-9.775070640934769628e+00,-6.676804922057590378e-04,-6.469991816986964128e-01
-9.778756001568075007e+00,-2.191365927532367124e-03,-6.370635169582485879e-01
-9.772531092543266240e+00,-4.976842814933588044e-03,-6.441573397900856035e-01
-9.778336962281469980e+00,8.076902770625483952e-03,-6.354476458008729844e-01
-9.780409735328371212e+00,8.641960849258353708e-04,-6.412768807362080326e-01
-9.771331988665423296e+00,4.275989353426992538e-03,-6.329658042604922041e-01
-9.777167714482878580e+00,4.590790540776721121e-03,-6.261458340210278584e-01
-9.775143308223677607e+00,-8.777767372005394059e-03,-6.189725891501094424e-01
-9.772445685587415554e+00,3.867470975467155424e-03,-6.164677700335590149e-01
-9.770038170477464590e+00,1.244937640816742765e-05,-6.115357097240109452e-01
-9.783061667237040737e+00,3.109277563636991381e-03,-6.089872254993186074e-01
-9.781092824028721822e+00,-6.362964852850614382e-04,-6.106260663483524809e-01
-9.779395383038178124e+00,1.560237318966150276e-03,-6.107511351401506694e-01
-9.771417347460223723e+00,1.314652490727782029e-02,-6.118978638339710452e-01
-9.774334575001198289e+00,1.873971527755890088e-04,-5.975847960156426275e-01
-9.775940134753678734e+00,5.331712795520813890e-03,-6.007022534315975548e-01
-9.781505415529647252e+00,2.033109294370026576e-03,-5.955889126432618585e-01
-9.773295336568875058e+00,-1.001149626879552397e-02,-5.896174465029088152e-01
-9.780066624730013203e+00,-9.120498251112984026e-03,-5.859151804839199951e-01
-9.776949554685526067e+00,2.318563053891475531e-03,-5.787829037702407753e-01
-9.773982379782973240e+00,-1.365466817853524997e-03,-5.802773844959743244e-01
-9.776157591473090491e+00,-6.426544592449677171e-03,-5.808768636541348229e-01
-9.774660012202888382e+00,1.398339599823953706e-03,-5.690403710106776147e-01
-9.781059922639030901e+00,-1.346485431804132077e-03,-5.715054343296499528e-01
-9.779946131699421841e+00,4.021052835659725232e-03,-5.645630779614572159e-01
-9.781650732820596161e+00,-4.271274327850707771e-03,-5.728141481019867198e-01
-9.779548327277849396e+00,1.242619248472505954e-02,-5.679886606620040412e-01
-9.773252195681333632e+00,-8.459867139907081834e-03,-5.579023018510681498e-01
-9.793230010707230093e+00,7.457943527709023695e-04,-5.597018342268669233e-01
-9.781626522758614328e+00,2.275394874046038265e-03,-5.576827400607083929e-01
-9.783001777974632773e+00,-3.078341940563078874e-03,-5.544368115549693776e-01
-9.781912854839596605e+00,-3.364002682076159059e-03,-5.481276222394994013e-01
-9.772746301710254713e+00,-8.945888751596769127e-04,-5.436456589358796831e-01
-9.786184854376047682e+00,-2.164053732817925683e-03,-5.305507902964138323e-01
-9.773489311901631282e+00,2.327583848160646573e-03,-5.500767321560814382e-01
-9.790656915982358655e+00,-1.705255670569668942e-03,-5.376079600077985354e-01
-9.783420467436789281e+00,2.196356642427258095e-03,-5.384725431644948879e-01
-9.784844867609896468e+00,2.897904772052572672e-03,-5.308952238871412765e-01
-9.787338703117155703e+00,-7.589328410799254642e-04,-5.333757292444837317e-01
-9.776812354169569730e+00,-1.818530065611538831e-03,-5.305346509475021843e-01
-9.780538365707194259e+00,-3.365737815660381840e-03,-5.240933639003061417e-01
-9.774877942318060065e+00,1.182839717513331718e-03,-5.227174259093602116e-01
-9.780467251649865190e+00,1.052426401979745726e-02,-5.215671211313441802e-01
-9.784630723938450458e+00,6.251618135049488538e-03,-5.078488287382069144e-01
-9.777887272071234648e+00,2.667522754021819237e-03,-5.104977793703978639e-01
-9.781887667032629352e+00,-3.142694236758030411e-03,-5.089244150637426412e-01
-9.784155969625439653e+00,-2.874248551891019684e-03,-5.150006189060192252e-01
-9.769301006928536424e+00,-4.388234818348987938e-03,-5.021961938480872245e-01
-9.787995290295915751e+00,8.644452923256544519e-03,-5.041797243977734766e-01
-9.791800087858101520e+00,9.558518224366069349e-03,-4.977144478906110336e-01
-9.786619030284162690e+00,-9.595132333387450816e-04,-5.044783822745894097e-01
-9.775667304574483296e+00,4.473843058831350299e-03,-4.889101152271381756e-01
-9.784977133668650850e+00,-4.793278705173792398e-03,-4.912568940884364799e-01
-9.778426982770463738e+00,5.997198246318685526e-03,-4.809693535200836312e-01
-9.784825700088484624e+00,2.494375130696508368e-03,-4.918669583481929952e-01
-9.780917376559957077e+00,-1.672831831476964595e-03,-4.826713084718314284e-01
-9.779656612019563156e+00,6.179649521540892670e-03,-4.829022867184182277e-01
-9.784355454749794845e+00,7.246491794012374817e-03,-4.824093510984629463e-01
-9.775006997277722931e+00,5.902616802881070941e-03,-4.764793526221351994e-01
-9.781731609638809388e+00,9.060779653540438489e-03,-4.769165444263137044e-01
-9.787822815564119594e+00,-7.427614973241345939e-03,-4.677858644674698918e-01
-9.786061495871619442e+00,-1.570164019332133095e-03,-4.665503634815965639e-01
-9.774679196200890985e+00,-2.565088535671856355e-03,-4.683786231864620064e-01
-9.783935821643304109e+00,2.432545214586377246e-03,-4.624512524789237133e-01
-9.791479277141757365e+00,2.763134012095803949e-03,-4.684672342352452779e-01
-9.783679581439837847e+00,3.227021252659636758e-03,-4.667934294182101707e-01
-9.785517577365380859e+00,2.291451166681582503e-03,-4.555104556405185079e-01
-9.782443148872538075e+00,-1.935713657183295343e-03,-4.580425174902904573e-01
-9.784873569710343943e+00,-3.257586475742574924e-03,-4.448935547892103881e-01
-9.781671074672257049e+00,-1.912997117049846426e-03,-4.584736348845075971e-01
-9.790025497826496448e+00,5.096154163562175397e-03,-4.525323378912785022e-01
-9.779616225696457832e+00,2.584550242973914554e-03,-4.421852112688174352e-01
-9.791886850498205064e+00,-5.820471519414633504e-03,-4.389681402942335331e-01
-9.783670853474090379e+00,-1.700947897529325346e-03,-4.345248573225749533e-01
-9.780975145955585148e+00,-4.704524235577183487e-03,-4.375620516801045912e-01
-9.794651913310875813e+00,5.863681618539960064e-04,-4.391591315462030076e-01
-9.791562822419608736e+00,7.891147041889489538e-05,-4.289343985152045957e-01
-9.781282713024678444e+00,6.516967156598650959e-03,-4.395706003472379941e-01
-9.780727925842565895e+00,-1.305470116077799697e-03,-4.261124598918041295e-01
-9.774382936905002595e+00,7.329192407516402566e-03,-4.331418098900787772e-01
-9.787832646934477410e+00,-6.382167938515473675e-04,-4.325753641839386043e-01
-9.779338930319577017e+00,4.574467003476229317e-03,-4.207662145326910297e-01
-9.790260223162189135e+00,-2.179234516227731948e-03,-4.053981429222949240e-01
-9.785598050759009681e+00,-1.399036481179958928e-03,-4.086215888696585474e-01
-9.783102481824592189e+00,-1.283918906481419653e-03,-4.114428123988617125e-01
-9.789319832641258046e+00,-5.961246705369376529e-03,-4.118943505150652329e-01
-9.787319730482376912e+00,2.622203596974035343e-03,-4.099461194028252708e-01
-9.787261630838326454e+00,5.376777454133519971e-03,-4.068744944056132962e-01
-9.790514943504479817e+00,-3.793530624021151845e-03,-4.034369386904089194e-01
-9.782983120205628325e+00,-8.254605740712886788e-03,-4.048258032637378490e-01
-9.784324781714047958e+00,7.639838227305380605e-03,-3.982779681261218729e-01
-9.786971398960281121e+00,5.553765246106941687e-03,-3.985978534114533733e-01
-9.790742682735505298e+00,3.886838206846723659e-04,-4.030067691252167683e-01
-9.791986526984059580e+00,-4.124256118724399858e-04,-4.057577822290069358e-01
-9.782131672421964907e+00,-7.863742736432820929e-03,-3.904859695953800669e-01
-9.791251693482898588e+00,-8.759512293464123342e-03,-3.772172034038026589e-01
-9.790193988181680851e+00,-1.667442276478210434e-03,-3.968948001829258887e-01
-9.794978198175824602e+00,2.145145999837788295e-03,-3.925519297662533047e-01
-9.786079265861539866e+00,-3.847256485082285390e-03,-3.810767423674999987e-01
-9.789990428369398145e+00,-1.343556740593088248e-03,-3.729326353421014706e-01
-9.792613235422123807e+00,1.528612258759466484e-03,-3.849512844497231523e-01
-9.779684552836357625e+00,-2.490124011083820303e-04,-3.745932847850199643e-01
-9.792898008692747069e+00,-4.100942306763210102e-03,-3.896251484454957281e-01
-9.797093984458719262e+00,5.077447687010313779e-03,-3.836021848248156729e-01
-9.785710515654290731e+00,3.113900522137428087e-03,-3.704646474037364134e-01
-9.782097496870582276e+00,-1.176085809166236423e-02,-3.796715271816163417e-01
-9.793092016690582824e+00,-2.163953020026764245e-03,-3.683801400929008207e-01
-9.782871160307717417e+00,8.032749307067942740e-03,-3.713214427708201870e-01
-9.786082612315697205e+00,-7.207147366653182327e-03,-3.677610944666675485e-01
-9.790492372809966426e+00,-5.452578870409578206e-03,-3.622703803910557463e-01
-9.782423885596253754e+00,-4.268546466883296579e-03,-3.611770504413028271e-01
-9.774111983490680444e+00,-1.544772438144788491e-03,-3.642083422509586610e-01
-9.778838230504554474e+00,-2.435628766471391576e-03,-3.644635442138153270e-01
-9.789389552115700610e+00,1.596069371833968437e-03,-3.514689859200124666e-01
-9.786144118104896705e+00,2.800200093132227709e-03,-3.471564167341558149e-01
-9.783579935481698797e+00,7.206165358258329739e-03,-3.638706342789862491e-01
-9.791800575603732071e+00,-1.304015545904251699e-02,-3.473304787565511531e-01
-9.782177941050941072e+00,-3.195502535394220515e-03,-3.497891654800437955e-01
-9.786264853319678991e+00,-1.344429337746904079e-03,-3.511248601383194501e-01
-9.784611539481662845e+00,-3.285926486178245010e-03,-3.357809413456118719e-01
-9.799893860889772768e+00,1.760728689555533365e-03,-3.547169424572787499e-01
-9.796854716623602854e+00,6.939904876740245719e-03,-3.363288393645644248e-01
-9.786664238698021379e+00,-1.560640773614832425e-03,-3.406936287290315835e-01
-9.799424651960608301e+00,1.420402543740788108e-02,-3.476879972121459383e-01
-9.794639881732255304e+00,1.197736575156066637e-02,-3.339371325696499082e-01
-9.782145825808827411e+00,-2.687042055555537330e-04,-3.393718047591177123e-01
-9.795618876176305889e+00,-4.366610500935030371e-03,-3.281338181643477236e-01
-9.789935633099746681e+00,8.356269201745630121e-03,-3.319867951446456300e-01
-9.786774663813012864e+00,-4.166665649619663570e-03,-3.286892397984799707e-01
-9.777518054365957667e+00,-3.703440666931499294e-03,-3.265292779945804802e-01
-9.785341401285890583e+00,1.360054914443577408e-02,-3.193839111306569500e-01
-9.788634337062758206e+00,-7.526863825263387531e-04,-3.232162072381526974e-01
-9.792029954373457912e+00,2.921337769254788320e-03,-3.221681878006829591e-01
-9.795449142137011123e+00,1.412998135348685329e-03,-3.136700656871208581e-01
-9.797695350010995341e+00,3.397539192075861927e-03,-3.206137726532285459e-01
-9.793381965833646063e+00,1.033193987302102705e-02,-3.159903624680768242e-01
-9.793819842188113967e+00,-1.478674597384563392e-03,-3.118634970914278548e-01
-9.781474419883256388e+00,8.912951539916509625e-03,-3.185197620709546151e-01
-9.791116207960456563e+00,-7.476933243547055630e-03,-3.186699213898329108e-01
-9.789171399618835423e+00,7.036726857473782825e-04,-3.167104585307994324e-01
-9.787861993733541155e+00,2.117912142528395776e-03,-3.194260535540513479e-01
-9.789201755338423183e+00,6.465800686929979758e-03,-3.123912816261936176e-01
-9.794595943093341361e+00,-7.370724946094673463e-03,-3.071304839760251038e-01
-9.784451003408555891e+00,9.006641123726528281e-03,-2.949650438467713576e-01
-9.801353537709497132e+00,-8.173558362284092521e-03,-3.061681325637448658e-01
-9.783753373082561211e+00,9.162583574171828541e-04,-2.931382355866734013e-01
-9.790308694175182680e+00,-2.174729827891398910e-03,-2.940255368918035517e-01
-9.789422289072286176e+00,-6.568807738599110116e-03,-2.975471388694712616e-01
-9.791382953150948865e+00,-1.876434577504026112e-04,-2.990496413770744599e-01
-9.790439757095676043e+00,6.650977917545681769e-04,-3.007227064616156964e-01
-9.796510234373215553e+00,4.757083298389534927e-03,-2.901812267286547065e-01
-9.793858232278672915e+00,4.165489479424090355e-03,-2.899157806203199184e-01
-9.790239731426026992e+00,1.439230942841873261e-03,-2.899026028849430725e-01
-9.786040963182358610e+00,-1.327049927518072613e-03,-2.857324296327354851e-01
-9.775860232645694481e+00,4.007065780929908172e-03,-2.833241508846224832e-01
-9.790059967030202870e+00,1.526179880458910327e-03,-2.758247470772118293e-01
-9.788674590314823121e+00,1.703562880044631940e-04,-2.788759705877157935e-01
-9.790620495205814677e+00,8.129437649525807913e-03,-2.798554402290505116e-01
-9.798628176583306981e+00,-7.472767384222421408e-04,-2.841327146546792082e-01
-9.783961434078383590e+00,4.745616534827598251e-03,-2.846704296829524750e-01
-9.793242937372115264e+00,1.941722786119602032e-03,-2.794037002500380784e-01
-9.801274583494929971e+00,6.873319339875878439e-03,-2.740837631025260235e-01
-9.791533158816466909e+00,-7.397447349137773950e-03,-2.714657081747479106e-01
-9.788889981194547119e+00,-3.068970401791481020e-03,-2.732151722610170475e-01
-9.786669491943944976e+00,-2.683131911859255479e-04,-2.734542019164213911e-01
-9.789692393193339726e+00,7.117841234460492439e-03,-2.712446810103987804e-01
-9.791119784303292661e+00,1.678045630059233056e-03,-2.793170094018122551e-01
-9.792410032544436760e+00,-2.501205463944564458e-03,-2.730708116508313577e-01
-9.784472807765480340e+00,7.207507319925649490e-03,-2.589621142360392092e-01
-9.788557672289183387e+00,-1.892045082811923086e-03,-2.689562195395034383e-01
-9.797749084561582222e+00,8.073897391913430546e-03,-2.653391399135509587e-01
-9.790068601874255094e+00,-3.366239838605265995e-03,-2.670294364532361242e-01
-9.781588439296447390e+00,8.560966421725895240e-03,-2.557455382189031123e-01
-9.789023694691383781e+00,7.328278291300809565e-03,-2.567820358887078491e-01
-9.796308432935028065e+00,8.626818621227785866e-03,-2.600215736465769645e-01
-9.789602953728765655e+00,-5.432922328964174446e-04,-2.525954229123640316e-01
-9.790316237673245325e+00,4.764296715398197608e-03,-2.627230268366781418e-01
-9.789631587304315374e+00,-6.024210427472720961e-04,-2.458017987136582039e-01
-9.799589392924751508e+00,-1.036028346628747009e-02,-2.528840952479779469e-01
-9.793649415356405541e+00,3.492373246614238584e-03,-2.555058155179408819e-01
-9.791478246598225965e+00,-2.881543399771736846e-03,-2.538507995239338566e-01
-9.789274188719602421e+00,-4.025126741676998861e-03,-2.407266532603511144e-01
-9.791587503641023815e+00,3.085654117976668106e-03,-2.480964761308611932e-01
-9.780438966996033656e+00,-5.090521053818210066e-03,-2.533303218181255367e-01
-9.794902998192284826e+00,-3.230420921811316421e-03,-2.486962294901810810e-01
-9.794900627831136575e+00,-4.777593105305897800e-03,-2.319611067440249252e-01
-9.792012821588720328e+00,-6.495905898437900417e-04,-2.443875155099554664e-01
-9.789370656451181318e+00,-8.229460768162914427e-03,-2.413334947869729130e-01
-9.793314611231245692e+00,-2.280105656674153141e-03,-2.398035746699470894e-01
-9.787616987854191208e+00,2.388819642676054660e-03,-2.440391251580209253e-01
-9.794013431313386420e+00,2.674795620646037812e-03,-2.390810302554450262e-01
-9.783276318964400531e+00,7.963717898734599260e-03,-2.367890976787781765e-01
-9.794212496258534628e+00,3.534219090941501627e-03,-2.391609268258307053e-01
-9.785627127629519251e+00,-5.855376245858425876e-04,-2.312237217262774758e-01
-9.797022634284585862e+00,-5.848538482717879038e-03,-2.365665650931080277e-01
-9.788388972173505564e+00,5.631243337637636785e-03,-2.302729797774876463e-01
-9.792185126257198391e+00,1.242218317424941161e-03,-2.311451572568238855e-01
-9.785533828269384671e+00,-6.590864945089233099e-04,-2.311082700721346084e-01
-9.795271794999507620e+00,-6.496411414466201489e-03,-2.377933710841322601e-01
-9.793421706203195853e+00,3.683405061895728833e-03,-2.218307503464604091e-01
-9.794416764963260746e+00,7.304872683898021779e-04,-2.146329556055620313e-01
-9.789781066329600989e+00,5.687940437899595761e-04,-2.286234399604919199e-01
-9.794384475989700078e+00,1.992197374023804680e-04,-2.353824019517734567e-01
-9.790949215347518830e+00,-3.306559786056669989e-03,-2.214512555555574191e-01
-9.792447290044243857e+00,-2.742172152488863302e-03,-2.227323526603812720e-01
-9.785228776669271156e+00,9.242082216800418318e-03,-2.128051073378175451e-01
-9.793819438638022845e+00,3.994701645013592800e-04,-2.185357715625065034e-01
-9.792063477771362656e+00,-1.213596465152666113e-03,-2.188516066607663901e-01
-9.786647102671492959e+00,7.974488928512331321e-03,-2.190790196709528903e-01
-9.799678799114463601e+00,-4.178046757704235873e-04,-2.081387279760981701e-01
-9.786491240105037903e+00,-1.249442011561094877e-02,-2.070330118142359455e-01
-9.793775808559699314e+00,-1.182519580679520892e-03,-2.151308100761258058e-01
-9.794074581630946241e+00,-5.060394054015093790e-03,-2.042691836490280466e-01
-9.794343646731013209e+00,3.570535402498361578e-03,-2.069494938813467577e-01
-9.783285105995014774e+00,2.048571726434093008e-04,-2.102792620023760106e-01
-9.790152568782753306e+00,-1.030560461759860193e-03,-2.103705591872295499e-01
-9.794978007812398246e+00,-4.980462424801679680e-03,-2.075127285306381519e-01
-9.793480252942893927e+00,-1.124093701169639331e-02,-1.970427468758103318e-01
-9.787330096712137717e+00,-6.296787903625943907e-03,-2.039529779456476233e-01
-9.792387446932869111e+00,-3.977078174589737409e-04,-2.129253313710052775e-01
-9.802291293659926907e+00,-1.756190515659985119e-03,-2.127200841838640388e-01
-9.803870746709495876e+00,2.137464644504923333e-03,-2.041994203045980616e-01
-9.786173456833079598e+00,-5.904441763355900916e-03,-1.999460334188004340e-01
-9.789204158915525866e+00,-8.366209445738072639e-03,-2.032815297057608828e-01
-9.792571377179209335e+00,3.113250628271008701e-03,-1.901548004350804288e-01
-9.792465047917414012e+00,-3.429030307592567314e-03,-1.995070870699575116e-01
-9.792636655817444691e+00,-1.388613593899886214e-03,-1.983480349353296257e-01
-9.800873439472569615e+00,-6.613056214481432150e-04,-1.891580148221724822e-01
-9.798390221599513339e+00,3.400307488029454504e-03,-1.878902508977576269e-01
-9.798028324717101611e+00,7.391622216285300036e-03,-2.000698275820762539e-01
-9.787839384337136295e+00,1.295757946486335733e-03,-1.919237765009314811e-01
-9.792737305624772404e+00,7.224100840104482300e-03,-1.923121662621631034e-01
-9.785107948063778593e+00,3.772139790770612927e-03,-1.918585615100452391e-01
-9.801290587930436615e+00,2.594782607900962546e-03,-1.971829521963399667e-01
-9.793969500310836906e+00,-4.025948165424367460e-03,-1.853045563360031511e-01
-9.787504504162789942e+00,4.566754675959650359e-03,-1.990483453270072423e-01
-9.791224841486151576e+00,-1.388663437520188098e-03,-1.948898007196590010e-01
-9.796729306543085158e+00,3.350633365187698220e-03,-1.831774971272308039e-01
-9.790585889238691664e+00,1.215011866736420264e-03,-1.886860196851779803e-01
-9.790039966874340749e+00,-4.439197864102726633e-03,-1.766726979669543396e-01
-9.781063974165149943e+00,-1.307943648274736406e-03,-1.778276324659369134e-01
-9.794817807716601266e+00,5.051230441842746721e-03,-1.722159100862412362e-01
-9.793945155149286208e+00,1.590078520939057060e-03,-1.803140624967121963e-01
-9.793331117665971419e+00,1.920730545874482385e-03,-1.812092463540888321e-01
-9.791002197223544812e+00,9.287966546987611385e-03,-1.769302769661665886e-01
-9.792042590738899932e+00,6.048144981703796469e-03,-1.796928676901294319e-01
-9.800991933083743390e+00,-4.581826254579687840e-03,-1.831098721862545742e-01
-9.794976435621480348e+00,-1.241831032314769014e-03,-1.829303320617583495e-01
-9.784313797883696040e+00,5.320598970710117490e-03,-1.660778032940421201e-01
-9.792372585367987270e+00,1.358225529051210363e-02,-1.745151869225592678e-01
-9.791975693320303264e+00,-5.766200453528741443e-04,-1.733662786266761680e-01
-9.794377910914631613e+00,1.264990324420476805e-02,-1.724312093943770607e-01
-9.795114845005508997e+00,3.191239721798919040e-03,-1.735470688142150553e-01
-9.794878470263736148e+00,4.075960361567661228e-03,-1.783933003953468710e-01
-9.787955841861574413e+00,5.980721955510962060e-04,-1.703471420791426161e-01
-9.792657079941916365e+00,-1.245580870869239173e-03,-1.586071778507048280e-01
-9.802293427114594948e+00,2.406034238831985042e-03,-1.702486141537979392e-01
-9.798481776541461130e+00,6.366649009821666316e-03,-1.617700622312040759e-01
-9.796041278996179713e+00,3.407887818481421271e-04,-1.676653294872087474e-01
-9.787695406261642361e+00,6.740370183373552322e-03,-1.553623904946694612e-01
-9.791990335937185819e+00,-1.074453533634519556e-04,-1.531515109481962622e-01
-9.794032901344030151e+00,-6.557572811466601606e-03,-1.584379036255929851e-01
-9.800805809328659635e+00,5.525278060516525605e-03,-1.675308608508119801e-01
-9.795830350463610614e+00,6.458873074094656150e-03,-1.703747034211959832e-01
-9.800985955661650095e+00,1.163938187936805480e-02,-1.568899041392264049e-01
-9.794502188200761239e+00,-1.002282971430296099e-02,-1.631501671402280362e-01
-9.787226642982416180e+00,2.665841397775498695e-03,-1.599815515183138637e-01
-9.789338202170783987e+00,-3.613195554924355200e-03,-1.569586598304046898e-01
-9.779959193883300372e+00,-3.450000637820469993e-03,-1.543781539270697167e-01
-9.790303866988015358e+00,8.202447923643382127e-03,-1.627114671799017864e-01
-9.783921715799166918e+00,5.524999354672723538e-03,-1.514683251848694123e-01
-9.792636428688766159e+00,1.183199562466203617e-03,-1.606441600552254434e-01
-9.796973290845340188e+00,-9.656441952189702069e-03,-1.482094101613869730e-01
-9.791116172090115199e+00,2.447345003955790632e-03,-1.586486547073013842e-01
-9.792825669362263952e+00,1.035242557360594329e-03,-1.529242724649476082e-01
-9.785003716276365893e+00,-6.436869049138825398e-03,-1.496272293944413689e-01
-9.783931059920844220e+00,-2.239101200841609688e-03,-1.489407658906284071e-01
-9.787853358076413102e+00,7.975410229269081202e-04,-1.432611107762713221e-01
-9.803829566983027988e+00,1.830693173893384058e-03,-1.532400982898991793e-01
-9.785347118413810108e+00,6.902611712722224457e-03,-1.455946920109968679e-01
-9.798193847436397874e+00,3.458684226372718811e-03,-1.521278300366250280e-01
-9.796943443103184990e+00,-8.135910718614524544e-04,-1.403144666903313187e-01
-9.790291644039376351e+00,1.080686161097912761e-02,-1.497966057809940466e-01
-9.788856108848200677e+00,-9.911049930745345279e-04,-1.484314404293467227e-01
-9.796948024988173742e+00,6.536687041962581206e-03,-1.508676555497895644e-01
-9.799984021338335793e+00,-1.878339533778605871e-03,-1.540879655607149956e-01
-9.800346957825080807e+00,5.010692050975943702e-03,-1.395292214816648835e-01
-9.787302850303573720e+00,1.327712648450752719e-03,-1.429184670611070296e-01
-9.796230969964209834e+00,-2.327033570311406660e-03,-1.463722880842270035e-01
-9.781529023190270067e+00,4.712181320497251316e-03,-1.412044872024675324e-01
-9.792582767531015975e+00,-4.925373181014508104e-04,-1.377462248609969964e-01
-9.806743481930379147e+00,-2.115719239212339887e-03,-1.417102884491582837e-01
-9.793443188939633615e+00,-1.133435780141968559e-02,-1.348293078533686629e-01
-9.792345935387281486e+00,-9.466631024918154003e-03,-1.326122917905031007e-01
-9.798149686802705816e+00,-1.111937845570701820e-02,-1.323676532965468167e-01
-9.801259105438601793e+00,-4.008103993962073295e-04,-1.397041231138370920e-01
-9.780746110803704596e+00,-1.817045730479224189e-03,-1.371453128818539702e-01
-9.793408210494096267e+00,-7.849081571913383562e-04,-1.337909800653855896e-01
-9.797036093987733452e+00,1.057451794911442710e-03,-1.394715750675862287e-01
-9.789701276273207853e+00,1.731019183171877279e-03,-1.251493861757808357e-01
-9.799052283020202481e+00,-2.597054321761332104e-03,-1.320250439106590012e-01
-9.789053616441297123e+00,3.557995426386898548e-04,-1.315980730989391723e-01
-9.801780516925800768e+00,-9.394924072420464400e-03,-1.369228783482533129e-01
-9.798695789465400097e+00,2.232600428510074595e-03,-1.271262213697402499e-01
-9.795749456923001475e+00,3.790146950337054590e-03,-1.320308443435284085e-01
-9.787224571204610868e+00,4.701328212095863719e-03,-1.384222072015740268e-01
-9.791255843302719697e+00,-4.236390705519020410e-03,-1.297945511594020551e-01
-9.783707402612096260e+00,-3.861414143578837700e-03,-1.149214232508409678e-01
-9.791442412836588005e+00,5.451566938137411425e-04,-1.338458588359776325e-01
-9.783473434983852357e+00,-1.017957998071718391e-02,-1.276233998681326198e-01
-9.790380964391017571e+00,8.783206525725253261e-03,-1.342038338977115108e-01
-9.786512267321285208e+00,3.682511378668460594e-03,-1.299714077144732693e-01
-9.789498048877979031e+00,8.990838820863645414e-03,-1.292246242202213513e-01
-9.792574243252337496e+00,3.309253991473779660e-03,-1.221235398080079138e-01
-9.785833974484567932e+00,4.559145529536116903e-03,-1.263878551942065054e-01
-9.792749544604181011e+00,-3.035448536758713484e-03,-1.229026549396341345e-01
-9.793782020808897926e+00,-9.050945784091002973e-04,-1.190436527772688324e-01
-9.796920838754081373e+00,-9.431433603962577350e-03,-1.151142862217621327e-01
-9.786391311005148808e+00,1.792585930310248293e-03,-1.170346167211776256e-01
-9.801315040327045480e+00,-1.092207262923475253e-02,-1.187837798358339914e-01
-9.787415817905207760e+00,7.729533209213868689e-03,-1.179689591395231829e-01
-9.798338457072416574e+00,4.141875861051571889e-04,-1.105708270915638503e-01
-9.795818186360039093e+00,-3.778561838768494489e-03,-1.209530350635367318e-01
-9.793690310147425748e+00,-4.650789591458548596e-03,-1.206426444676867576e-01
-9.788843580274702916e+00,-6.002191015527388873e-03,-1.146911104768941203e-01
-9.793766077144001159e+00,-1.119918318619264434e-02,-1.222763907440860970e-01
-9.794540605647188869e+00,-5.531677474863346163e-03,-1.173693941800219576e-01
-9.793999068697893051e+00,3.080498193634078155e-04,-1.109545992608679532e-01
-9.795507819510543612e+00,-2.257943942207342198e-03,-1.207318362915384691e-01
-9.791821845383374523e+00,-7.846378587630692576e-05,-1.072958634545513323e-01
-9.797301869624522652e+00,-6.024639827770475464e-03,-1.071327902328129134e-01
-9.793743704928623117e+00,3.040653829255504041e-03,-1.178057956548754642e-01
-9.797463941749901650e+00,-6.668962781785738644e-04,-1.089187971686381567e-01
-9.789862884025264833e+00,-2.937372685708218231e-03,-1.159359699091987717e-01
-9.791739014997698831e+00,3.517684229693388530e-03,-1.060680273349258601e-01
-9.792595422028540497e+00,-5.304768392046494731e-03,-1.103911141131291018e-01
-9.790844906646031021e+00,-9.074287364057320206e-04,-1.149853176839072955e-01
-9.793043370059359987e+00,1.109974787847827632e-02,-1.151901168158788596e-01
-9.790886425223884970e+00,-2.886340097824400316e-03,-1.104912937179429455e-01
-9.800222684932085926e+00,-3.587122451020351589e-03,-1.104813431143458341e-01
-9.787160091726628153e+00,7.266953663278790006e-03,-1.109793872492476213e-01
-9.795865567782094274e+00,-4.897493069954329814e-03,-9.324453156164264067e-02
-9.803008970956131662e+00,1.628932606874054518e-03,-1.075028283042417238e-01
-9.789420004755898574e+00,1.371296810223589756e-02,-1.030840259550399873e-01
-9.805023203437549739e+00,-6.483930964239086742e-03,-1.062864202576460776e-01
-9.788071673398865968e+00,-4.105827012594643905e-04,-1.069186498047885042e-01
-9.794548302777478455e+00,-1.337788965440013435e-03,-1.103872971000716824e-01
-9.792833882617616226e+00,-4.189143563616877335e-03,-1.052556279196847216e-01
-9.789127777198350699e+00,6.426947197385595410e-03,-1.000641083476576376e-01
-9.798972382799195913e+00,-1.024471448794482369e-03,-1.038633689071868649e-01
-9.794191429167780072e+00,-8.924129560408081314e-06,-1.069377684195010059e-01
-9.796809132025405376e+00,-5.826513352443123475e-03,-1.113439708893304569e-01
-9.795585074512663581e+00,-4.847459680476772295e-03,-1.063905312885640581e-01
-9.793711928512202292e+00,4.415704268912979021e-03,-1.006576107556366728e-01
-9.793286908447207395e+00,5.139623783975046621e-03,-9.424730316750132286e-02
-9.793693097341384046e+00,3.785621458300844622e-03,-1.095428043822657682e-01
-9.794257945251873210e+00,-8.448313033750978187e-04,-1.010918413345534145e-01
-9.793807782436925180e+00,-5.510163245280485372e-03,-9.930125822730706542e-02
-9.804889699804325787e+00,-2.288182703650368157e-03,-1.010256007376666709e-01
-9.805390377878799413e+00,3.099237423295016138e-03,-1.010271834364964150e-01
-9.787191822126599661e+00,5.552654059592575415e-03,-9.312435461004654746e-02
-9.781138374713831851e+00,-6.556266688865611302e-04,-9.859666107362495546e-02
-9.793119606527310950e+00,-4.861738357630278687e-03,-9.533373814410009417e-02
-9.801257613831811710e+00,-5.021708122554374362e-03,-1.001101779153214244e-01
-9.792923582767276258e+00,1.328978942167022542e-03,-9.840014195907109684e-02
-9.796880428709824784e+00,-8.978880242967510542e-03,-1.103451050340504003e-01
-9.795085235818811853e+00,2.473777943601071765e-03,-9.256857432507191452e-02
-9.792179085070072730e+00,-1.004975789973686431e-02,-9.217208848695046530e-02
-9.785840145940134960e+00,-1.018870833472168211e-02,-9.762798338731233649e-02
-9.790731598413600523e+00,-1.041497483965775524e-02,-8.592139965499967502e-02
-9.791213915745808904e+00,4.728772395075187852e-03,-9.874897052678274778e-02
-9.794351224005975354e+00,9.372600073561743531e-03,-9.127616417818038008e-02
-9.793868120955776746e+00,1.015512922282364510e-03,-9.403216903066780041e-02
-9.808145349561254278e+00,-7.105774685181289775e-03,-8.716095099943620139e-02
-9.788812390707736455e+00,-1.739133613575067185e-03,-9.413562359831605109e-02
-9.794696426805002076e+00,3.999908829327544942e-05,-8.726294034850631820e-02
-9.795736469721180839e+00,1.213635104308001273e-03,-9.185093668687296931e-02
-9.801535200971986939e+00,-2.070034599081312012e-03,-9.254046945479937891e-02
-9.791437573534414796e+00,-9.381356983380729694e-03,-9.484858368822035590e-02
-9.793971916874800954e+00,-2.126075753028413770e-03,-9.261593489456043660e-02
-9.796021555411542181e+00,-6.471709191528765906e-03,-8.237150711270857517e-02
-9.792921405299710003e+00,9.704308569575003512e-03,-9.118505401487732309e-02
-9.788855075223793278e+00,-4.976921133479662038e-04,-7.790389485992707530e-02
-9.795558180080055521e+00,4.614249930559893853e-03,-9.281723621253673562e-02
-9.794174888574696425e+00,-3.931369185941674914e-03,-8.595864582579446078e-02
-9.799859831468680227e+00,-3.448008298401100506e-03,-8.259514712419818716e-02
-9.790086565000505558e+00,6.240486285509183302e-04,-7.972443239880239174e-02
-9.792801763801518788e+00,-2.118717435156375339e-03,-7.892288922998534628e-02
-9.799015454391103219e+00,3.095085802956780950e-03,-7.681131185977642384e-02
-9.797543835488275121e+00,-6.828244837464383238e-03,-7.822203958292822668e-02
-9.787014689527071098e+00,3.701868459712884165e-03,-7.816225214218652795e-02
-9.798898069909988351e+00,-1.541722530573303319e-03,-8.244002808807388005e-02
-9.792052829153766069e+00,4.603414034420565473e-03,-8.667607202118549070e-02
-9.795111757983287148e+00,-1.802033003870461003e-03,-9.085421776160669538e-02
-9.789877511797763887e+00,2.371181264651291316e-03,-8.050097020895770339e-02
-9.797887974944167411e+00,6.259529295382953128e-03,-8.172177527948340514e-02
-9.788858428789579236e+00,-2.154516052892909653e-03,-8.815655817534787109e-02
-9.791416594574458898e+00,-2.134405763861396688e-03,-7.784928296478814402e-02
-9.789244970008791569e+00,-2.184904862714939951e-04,-7.781965109745561660e-02
-9.794208195660134564e+00,-8.251095103971445993e-03,-8.381337520434786748e-02
-9.787868167044436518e+00,7.666853475966788067e-03,-7.337425570616548653e-02
-9.795525102903352987e+00,3.912772784622922315e-03,-7.166948519698539133e-02
-9.792667207227816917e+00,-3.149816769559078732e-04,-8.430187610381248420e-02
-9.798272282822345858e+00,-3.015925004219809427e-03,-7.660534958928340299e-02
-9.786520429136382759e+00,1.041526649200476273e-02,-7.825945116026992998e-02
-9.792051752338732484e+00,8.141488021242492684e-03,-7.200438835187945863e-02
-9.801514714498805958e+00,7.541294523898066024e-03,-8.273305089602511764e-02
-9.790795204000120933e+00,6.012493324680543566e-03,-7.514434406206911554e-02
-9.796731358835767622e+00,2.206773754392279095e-03,-7.301980099345764530e-02
-9.780152203109524933e+00,1.046891272058058688e-02,-7.283407022791253682e-02
-9.795310896679414014e+00,6.514909750829240079e-03,-7.181055694936054612e-02
-9.787634563621033124e+00,5.518210276569263106e-03,-7.001995818775805236e-02
-9.789077957678754771e+00,1.759907473969315409e-03,-7.654789524870239670e-02
-9.796004294676784241e+00,1.649129692171134908e-03,-7.874268052802531337e-02
-9.795027973137191424e+00,1.780457087182917399e-03,-7.072006431116814595e-02
-9.798603182281443225e+00,3.503587780230721458e-03,-6.998110177818156474e-02
-9.792787855044544187e+00,-8.693263817159443962e-03,-7.462785850523608044e-02
-9.794923181804337631e+00,-5.826787803252207742e-03,-7.359059421189605155e-02
-9.791141463139380718e+00,9.363316601995393422e-04,-7.537687222989061797e-02
-9.787769573403743095e+00,-4.045755759671233742e-03,-6.891824822124503758e-02
-9.795964491725396073e+00,7.754989535509024604e-03,-7.517004219919429242e-02
-9.797702097519820796e+00,2.671429708214827399e-03,-7.410527098867357443e-02
-9.796079576046595960e+00,8.658191056499760577e-03,-7.119172509381876957e-02
-9.795886340862818287e+00,3.950335251172066783e-03,-7.127513693827705610e-02
-9.796029616070072166e+00,3.912440692512506209e-03,-5.944277237478324399e-02
-9.793262334233933331e+00,-9.895492120906589084e-03,-6.191696914602691504e-02
-9.795341904040176573e+00,1.333374726541540489e-03,-6.513149693680218844e-02
-9.790383779720603030e+00,1.699080187244761744e-03,-5.384840092561447855e-02
-9.794789209831737509e+00,7.110094891615447235e-03,-6.421779950957300087e-02
-9.795493492871056418e+00,3.819266443839762666e-03,-7.238295480935043325e-02
-9.797486802588133870e+00,-9.098252360283890644e-03,-6.339587277992952963e-02
-9.799406860326577373e+00,2.290038438784505574e-03,-6.753509138242771992e-02
-9.784072746352483918e+00,4.706958442412838804e-03,-6.373626812277467801e-02
-9.795700290958903267e+00,4.989388428745563341e-03,-6.754611555111927901e-02
-9.793056440018730768e+00,2.182658959688879227e-03,-6.390745888448769174e-02
-9.802822150703921267e+00,-1.074132492948362246e-03,-5.726685825732085594e-02
-9.800474993169908444e+00,-4.539649807875195328e-03,-6.312354808289016850e-02
-9.792134251567620851e+00,9.597732902591996247e-04,-7.009627622079370179e-02
-9.789850305395827235e+00,4.222247493051956512e-04,-6.181895317349524188e-02
-9.799996241025468180e+00,7.480461090294572048e-03,-5.892067752018968763e-02
-9.795961086731907130e+00,-9.615310020733309343e-03,-6.512641056730016087e-02
-9.804233143026179320e+00,1.026693282578582632e-02,-6.219571399628391617e-02
-9.795759879608716858e+00,1.011566400339947679e-02,-6.072842011033390691e-02
-9.790971650016729200e+00,2.276810683910879089e-03,-6.697245283491136403e-02
-9.783394239167407136e+00,5.498220736994523412e-03,-6.200618192105868121e-02
-9.793457821596557977e+00,-5.557158403353798688e-03,-6.311842909758662301e-02
-9.791415803384275307e+00,-1.003687769052400390e-03,-5.761766766134241574e-02
-9.783279655281592824e+00,2.066759684507558752e-03,-6.071834965956217356e-02
-9.800867938448707406e+00,6.107807673070186211e-03,-6.855613471048653540e-02
-9.796030654920935277e+00,-1.076612427375337952e-02,-6.188301957635245626e-02
-9.790057440311935366e+00,-2.407802698670496577e-03,-6.154179915267477680e-02
-9.802784761552382875e+00,-3.097822973399070191e-03,-6.039904593785466042e-02
-9.791062183432543975e+00,6.575877652869562169e-03,-5.610558052368681825e-02
-9.799557294869401858e+00,-4.924407966499077388e-04,-6.398200264693953976e-02
-9.796509513775873756e+00,-4.639667975523911097e-04,-6.976610906506604259e-02
-9.792346686732617655e+00,4.803631975964633809e-03,-5.759451769521826969e-02
-9.792230099080382999e+00,-2.015259538830987355e-03,-5.422737113740482007e-02
-9.795437442218641877e+00,9.529910413635948787e-04,-6.071243559953780344e-02
-9.795678449810665711e+00,5.653465574807339843e-04,-6.104348308840500809e-02
-9.792476388317403746e+00,-2.528914228990057113e-03,-6.264029207740086369e-02
-9.788950848737492549e+00,5.299136383704446118e-03,-5.403902020015994428e-02
-9.800132338268994658e+00,-5.447999017577534291e-03,-5.896189669482373302e-02
-9.794739151174153946e+00,2.452781778828079951e-03,-5.806006714301831934e-02
-9.785491490046478447e+00,4.925770276678019793e-04,-5.763165960993504172e-02
-9.796281732406731280e+00,4.346465461505393674e-03,-5.477234335447545704e-02
-9.790605788560075240e+00,-2.551495502432639308e-03,-5.693541610361783911e-02
-9.795448931092179734e+00,1.087916149864457359e-02,-4.848361666444818419e-02
-9.791929080508630534e+00,-8.508873304830020081e-04,-4.699179462232154492e-02
-9.790535352838320549e+00,3.182329492032726862e-03,-5.383754604211399980e-02
-9.802923914719469778e+00,1.808573035225775482e-04,-5.212038358788752268e-02
-9.792515381715290346e+00,2.036040032563256590e-03,-5.211261313270440509e-02
-9.793719920276091173e+00,2.463412885543832601e-03,-5.818265489646576305e-02
-9.790399137682918251e+00,-1.938502084478408577e-03,-5.488692003334854491e-02
-9.787391374184023718e+00,3.754102419723048898e-03,-4.776646016243457638e-02
-9.800654030155413921e+00,-2.487608233137903174e-03,-5.508343311092975952e-02
-9.801286151183607132e+00,2.389569099433878040e-03,-4.754849002732015190e-02
-9.788572574991260211e+00,3.785483275677004739e-03,-5.291322804581215233e-02
-9.795003274943111293e+00,-1.177004036282052607e-03,-5.231395972106004516e-02
-9.784902818016526282e+00,5.440553479787016422e-03,-4.974654920375649880e-02
-9.792080013646877745e+00,-5.116672904204913044e-04,-5.603641636899998890e-02
-9.803670942186135662e+00,2.423297144666173610e-03,-5.161300621298091362e-02
-9.787815238884876479e+00,1.476834808714065986e-03,-6.226062347805066954e-02
-9.797451654055421955e+00,1.698596533349847493e-03,-5.309852963132390136e-02
-9.802252494066282296e+00,-3.533884233965881982e-03,-4.554466253364308076e-02
-9.794426085684914796e+00,-3.768222900130607312e-04,-5.482823242616976372e-02
-9.796053289081905646e+00,-3.969035200510978578e-03,-3.787657490954159101e-02
-9.794327005579463119e+00,5.068626476295662320e-03,-4.981354789382672760e-02
-9.793481272233924173e+00,1.963391442783320954e-03,-5.229314266427095848e-02
-9.786102924773565803e+00,-2.744255200418533464e-04,-3.528761082019968298e-02
-9.797607385878968955e+00,9.937427145005787305e-03,-5.041574841118619948e-02
-9.802098860967060290e+00,6.948352176102370187e-03,-5.258435604699770310e-02
-9.795817235147257662e+00,-7.044718179640314937e-03,-3.743593395271072738e-02
-9.791305299657137695e+00,1.280023306626179233e-03,-4.723647928140951163e-02
-9.791467351195432656e+00,1.349650586457265327e-03,-5.090859803165059816e-02
-9.793291074176043054e+00,-9.947625951976211273e-03,-4.646475534588804385e-02
-9.788738584696609735e+00,-4.850624678446198088e-03,-4.658546053155549621e-02
-9.793448944547979096e+00,-3.069352296582241423e-03,-4.806939500172092289e-02
-9.800073455243083487e+00,-8.499817924850350606e-03,-3.999153995057837946e-02
-9.794876819358655951e+00,-6.556881044989995751e-03,-4.596986613308562397e-02
-9.790897908057750954e+00,7.876352760220584059e-03,-3.189346270124530230e-02
-9.780533217436783389e+00,2.085814941838919859e-03,-3.466581656628887204e-02
-9.791632251401065190e+00,9.559534870436718970e-03,-5.259286144079783343e-02
-9.793468442427485599e+00,-1.189497067917526501e-03,-3.855948217547400247e-02
-9.799717920201864274e+00,-3.237899102787365237e-03,-4.648513717943783541e-02
-9.793378112413812175e+00,2.493102569249745076e-03,-4.885925011864165196e-02
-9.792886957151855754e+00,9.231736138081605546e-04,-4.025684668807753830e-02
-9.795271506127559036e+00,-4.223219083034237750e-03,-3.958134369126728447e-02
-9.798002201017107282e+00,-6.195520380330656225e-03,-3.945262934900209406e-02
-9.786121561342744357e+00,-5.473327014007648176e-04,-3.023867063230679247e-02
-9.798002988237042743e+00,-4.281273616178634528e-03,-4.998921168944594345e-02
-9.796259868911558755e+00,3.103552414577526262e-03,-4.599480429371863993e-02
-9.793664989174166280e+00,2.379741720318186062e-03,-5.540337441228133930e-02
-9.799118172545234984e+00,-4.332384680995543698e-03,-5.015196850294321995e-02
-9.787526589681359468e+00,4.252001765485997550e-03,-4.453660856081900765e-02
-9.796342408243431166e+00,4.129967895263027787e-03,-3.724592171035417953e-02
-9.794295417554110372e+00,-8.353857467903819112e-03,-3.890695517055227370e-02
-9.795467201015791048e+00,-7.561135696291495026e-03,-4.739051411877565068e-02
-9.794560873879213148e+00,1.964412979483793134e-03,-4.462694404928235076e-02
-9.796444948510977468e+00,2.280559031894040505e-03,-3.699208011116810607e-02
-9.787886696933661312e+00,3.377096884425150308e-03,-4.238577517629759511e-02
-9.793827283309594733e+00,1.048732849109520852e-02,-3.927276898510282527e-02
-9.792363053381206939e+00,6.787138204437322825e-03,-3.469954669231586214e-02
-9.796033356815483373e+00,4.330388948300533270e-04,-3.976780731532078561e-02
-9.801934687875560215e+00,2.788784974616315918e-03,-3.677715238924302715e-02
-9.797789892967159631e+00,4.293942387354349362e-03,-4.152204215125052805e-02
-9.796462799323713000e+00,6.167112832142211676e-03,-4.411781798094689677e-02
-9.788764980628068102e+00,-1.279141807388272257e-03,-5.406636435511739947e-02
-9.793185594486145007e+00,1.068786259226478345e-04,-3.410860595397756378e-02
-9.796673541911333771e+00,9.616649258288069435e-03,-4.301318810856866182e-02
-9.790209456084937756e+00,-2.950808456043102664e-03,-4.390070710610260302e-02
-9.797706061109535014e+00,-7.338808797018613050e-03,-4.960214814160005675e-02
-9.791741464231233039e+00,-6.652472359196240879e-03,-2.985710158354187155e-02
-9.795427423771592146e+00,-1.217778637490748430e-03,-4.442821795356392822e-02
-9.790819904671899110e+00,-3.472354632914489894e-03,-2.908032308490050843e-02
-9.786868244737696898e+00,-2.809853002103240502e-03,-4.327245551938214974e-02
-9.792133902380136590e+00,8.927100999301974815e-03,-3.217453448252408088e-02
-9.787936786309337833e+00,-6.468634413583749729e-03,-4.088038111333641700e-02
-9.792372679945925640e+00,-4.824638329339086401e-03,-4.329921212431944721e-02
-9.783718828691608138e+00,-5.732882003934570460e-03,-4.619547842296329448e-02
-9.789939019535465192e+00,6.142437356410794698e-03,-3.698835625966403334e-02
-9.797880700148290600e+00,2.143908218488839359e-03,-3.708341014817322090e-02
-9.793643091286567071e+00,6.331291661967343963e-03,-3.954384572798196051e-02
-9.791702187136666069e+00,-4.190049424466917071e-04,-3.636006570352502687e-02
-9.801656282338372606e+00,2.684705127321503938e-03,-3.418048813066439096e-02
-9.789238288481165284e+00,-9.251433209160860385e-03,-2.916250500014886532e-02
-9.795579236509569299e+00,-1.683324570365693842e-04,-2.670547780989500353e-02
-9.786590403897838186e+00,-2.607984043641352941e-05,-3.709669807950602416e-02
-9.803150315888592203e+00,-3.931325955485072410e-03,-3.682911347621050518e-02
-9.794094288071228505e+00,1.589925035695550527e-03,-3.765685017587115657e-02
-9.795490527914454404e+00,-7.242620859745950608e-03,-3.179328793463962605e-02
-9.795987366037863353e+00,9.192283260176213350e-04,-3.941313421903185066e-02
-9.788936406458768502e+00,-5.818091642223940756e-03,-3.309222406108326686e-02
-9.803554671511689023e+00,5.812347899245288302e-03,-3.406058656119147904e-02
-9.802302995668050301e+00,3.319771381300039292e-03,-3.284617796184360200e-02
-9.794465605920880336e+00,-2.257058725880029849e-03,-2.509695047103475615e-02
-9.800677612696684804e+00,1.503866505155833800e-03,-3.614977706731631324e-02
-9.794816117914175280e+00,-2.441474804565935044e-03,-3.233469509243607626e-02
-9.803098933356229949e+00,2.923091219978356768e-03,-3.783318342825414682e-02
-9.800401120650596098e+00,3.101842692781590829e-03,-3.217783926851840171e-02
-9.796339258096546487e+00,1.229527820820985624e-03,-3.460715600541237891e-02
-9.791554137037708827e+00,1.637767947375716460e-02,-4.452956647795683343e-02
-9.800218167588996110e+00,3.270262741298503827e-03,-4.458430478204060410e-02
-9.787858101047282489e+00,-4.949348789744296984e-03,-3.127663754293332626e-02
-9.791732208291151096e+00,-9.212942386690327985e-04,-3.226834325487456384e-02
-9.796593013781896175e+00,3.075408858596265227e-03,-2.917847449324673104e-02
-9.793273528912521897e+00,2.860066536634672113e-03,-4.142818365412587883e-02
-9.794707249147883488e+00,-3.848629724906236496e-04,-3.181264943752059454e-02
-9.797211969262013653e+00,-5.035472441053265129e-03,-2.944500675357493782e-02
-9.791577149173056327e+00,4.385136574136888838e-04,-3.467464398661734837e-02
-9.790703758981223359e+00,6.336023345950519622e-03,-2.826989592807025581e-02
-9.790538167181145113e+00,9.972577706583091780e-04,-3.925059703562466806e-02
-9.799692560931411833e+00,-5.965696284308376687e-03,-3.112911061091173590e-02
-9.787775315408461907e+00,-9.059391168745449877e-03,-3.412296493726632574e-02
-9.793798838013236363e+00,-7.135403593932697526e-03,-2.903493204916656606e-02
-9.799889613725330406e+00,-1.649409938638901531e-03,-2.888627195044863455e-02
-9.792815148671456527e+00,-1.312169565128126769e-03,-2.732226644229227702e-02
-9.799678403340276844e+00,-9.636693653439625537e-04,-3.616446214931988423e-02
-9.779767099417224330e+00,1.217206490388854714e-03,-2.652672583619731031e-02
-9.787546718748615149e+00,-7.523861415806604169e-03,-2.840359596959959182e-02
-9.795438132592394709e+00,-4.531551767959637704e-03,-2.703231084951583651e-02
-9.786401214330163967e+00,-1.217054332225027749e-02,-3.018991200595891322e-02
-9.798440700954088811e+00,3.046129020384998227e-03,-3.326835100830294323e-02
-9.802220912564431288e+00,2.177115610733060778e-03,-2.865067672431737683e-02
-9.795350649951483746e+00,7.780184455872290105e-04,-4.296644832771637224e-02
-9.791161734219231860e+00,2.958909516772327206e-03,-2.733884322098259143e-02
-9.786370803125210571e+00,1.234310511254920958e-03,-2.887230429411987223e-02
-9.789983618250451158e+00,-3.908316904276282547e-03,-2.968705885161031927e-02
-9.786355033278480775e+00,-1.108613571465968430e-02,-2.626739284756909182e-02
-9.789571864330174122e+00,-2.522805567777523707e-03,-3.272915110685040152e-02
-9.788984732328296801e+00,-3.883856785845056329e-04,-2.440094455916753946e-02
-9.797612617229443543e+00,1.107761727965255079e-02,-3.282602219979532943e-02
-9.785248749927523804e+00,2.002403683638713169e-03,-4.306856120820666545e-02
-9.790190357113027986e+00,7.044792863092312488e-04,-2.600842520275178232e-02
-9.794979497028137416e+00,-5.976840107331652871e-03,-2.790817404179693484e-02
-9.794263804138724439e+00,-4.306531022606440752e-03,-2.827675393681023872e-02
-9.801795536159678690e+00,-2.637281125151119503e-03,-2.771271674827812878e-02
-9.795573461919232727e+00,1.067456200221125577e-02,-2.245616879552982809e-02
-9.796521823572962973e+00,-5.747628644800488462e-03,-3.536250709736599163e-02
-9.784317492635913993e+00,-2.790148589243248486e-03,-2.426842335539426340e-02
-9.794627989524054001e+00,-6.197289867627031774e-05,-3.236546542290720530e-02
-9.790023391972324518e+00,-4.000165796208329273e-03,-4.065682113118546798e-02
-9.799773988407075365e+00,-5.790876642449443827e-03,-2.845358626276399752e-02
-9.790226720127046534e+00,4.915162905510972891e-04,-2.279414013635944550e-02
-9.796007981405455922e+00,6.687973005456504874e-03,-2.446968063240739441e-02
-9.785139496893647149e+00,1.520037803090879078e-03,-2.952170675628834270e-02
-9.794791015429238357e+00,-1.644846845760179277e-03,-3.044448009392116544e-02
-9.783691767009838003e+00,7.609851640857738346e-03,-2.049175536209647125e-02
-9.786849223470325043e+00,-1.136980248631884287e-03,-2.739614378090846764e-02
-9.789276458448306073e+00,-6.512456003089128580e-03,-2.830267631090427685e-02
-9.786793205139222351e+00,1.791457095006742262e-03,-2.424082980290434911e-02
-9.791774117449511650e+00,-2.843564375716279517e-04,-2.409324784016151147e-02
-9.790525267038086454e+00,-3.569642319187890569e-04,-2.452998734299878525e-02
-9.799368816837057850e+00,8.020533136394453070e-04,-1.317728219373190575e-02
-9.796768655656872937e+00,-1.477765207824374705e-03,-2.384848873302854860e-02
-9.793701701603907850e+00,-2.350448542642807415e-04,-2.519699773546783123e-02
-9.795587563951167809e+00,5.552723256040054470e-04,-2.443826654326885714e-02
-9.796264284526991162e+00,4.038985207320601803e-03,-3.115377870655184483e-02
-9.780855563456144708e+00,3.785701815046856869e-05,-3.575257747991307522e-02
-9.793818943969478497e+00,-8.242794317527765702e-03,-3.440757470855652922e-02
-9.794044736171258592e+00,1.601010757685597573e-03,-1.238195430968584004e-02
-9.795447998119401589e+00,1.009249799535488767e-02,-1.345304649265378037e-02
-9.793121094241319824e+00,-2.287524893682344254e-03,-2.513561806245622615e-02
-9.803522949442921686e+00,4.771126063489751316e-03,-2.735665094416113441e-02
-9.800587966803707474e+00,1.835029124753513683e-03,-2.634591432470801547e-02
-9.787771351901506378e+00,1.126802319871930344e-02,-1.766069630865651705e-02
-9.790902609615363517e+00,6.029463478800043547e-04,-2.416474615350585470e-02
-9.796042915224585812e+00,2.736677990447766197e-03,-1.593704513849209664e-02
-9.799657859972661811e+00,9.121508112175061734e-04,-2.203746560066573157e-02
-9.798799085904441597e+00,-1.571364847157860579e-03,-1.452906980019192523e-02
-9.787779239892991257e+00,-4.295557812164259651e-03,-1.410956658590368021e-02
-9.792845461251353356e+00,-5.913745720970687431e-03,-2.754515728904703004e-02
-9.792143389797235642e+00,-4.448746457119234776e-03,-2.250274367020646191e-02
-9.799166569697741025e+00,-4.527158482356355255e-03,-3.022360514930115191e-02
-9.802197011128034987e+00,-3.135460331470395256e-04,-2.321875303308616745e-02
-9.790260139576105303e+00,-6.057815805988680559e-03,-2.846006044733541060e-02
-9.799681624216798781e+00,-2.010114699448073156e-03,-3.155260810755342038e-02
-9.794167000698131176e+00,-9.106913023729845463e-04,-2.503465066852937973e-02
-9.797033715481395788e+00,-8.333197950740065321e-04,-2.535612207699071072e-02
-9.795992588132007128e+00,-2.040166378750767669e-05,-2.473248505968779487e-02
-9.785992561897250752e+00,1.616478899112705047e-03,-2.123437179974018221e-02
-9.790199916795431889e+00,-4.901142365551251420e-03,-2.431759764450298553e-02
-9.794892343327445516e+00,1.707205437911083097e-03,-2.123922717892073181e-02
-9.791417887657866359e+00,1.705305379169469535e-03,-2.506046246775690475e-02
-9.795744551182465898e+00,1.565103937266641449e-03,-2.778258609715902189e-02
-9.799157736057550139e+00,5.375376619335957805e-03,-2.701109759515003816e-02
-9.800086126334766945e+00,9.564672902102604613e-04,-1.926851993339233349e-02
-9.789992213662150888e+00,-4.556824356987865601e-03,-2.197243430629698333e-02
-9.785770195479168265e+00,6.884132399805591683e-03,-1.608977311297197718e-02
-9.799107612903476650e+00,7.116407149374742551e-03,-1.869252083738918296e-02
-9.787130152721452703e+00,-4.574938279227639022e-03,-1.710225085250175955e-02
-9.788283156066244217e+00,5.019873507503709413e-03,-2.236165408954126146e-02
-9.793799664970274321e+00,5.169218550170249366e-03,-2.287140189881174332e-02
-9.796263160482251209e+00,2.885817468848245974e-04,-1.868906262411799968e-02
-9.783666122779180796e+00,-3.881349735455189021e-03,-5.884451859902136220e-03
-9.799446019253094775e+00,-6.555496411510586957e-03,-1.569215377187109517e-02
-9.797758707039104564e+00,8.397318821351848483e-03,-2.679107912620522225e-02
-9.795305675118132882e+00,-4.267975461810318526e-03,-1.935058559105365047e-02
-9.789860372699264346e+00,-1.784290901964012601e-03,-1.678949477775519908e-02
-9.797707163690445142e+00,-3.492828160718884287e-03,-2.307749890647777316e-02
-9.791143340350405566e+00,1.042001474567950947e-02,-1.864095283449991938e-02
-9.791190009385553950e+00,8.075161377645844471e-04,-2.106813554903427116e-02
-9.798946416745506482e+00,5.839518135895974300e-03,-1.217496247473297787e-02
-9.805843110000417084e+00,-5.951033103479065264e-03,-1.353480545928642878e-02
-9.788156218026404787e+00,-4.490329383607409228e-03,-2.620314311331162216e-02
-9.797004834343516322e+00,6.648011182592531050e-03,-1.950976773490796512e-02
-9.799497157075570897e+00,4.475688605212016155e-03,-1.965641660263057686e-02
-9.792226014370779552e+00,-2.410314846199967075e-03,-2.588079106888135569e-02
-9.788499647844862039e+00,2.465623999313094200e-03,-1.182664307689458745e-02
-9.793186704466284809e+00,-6.132791109923793442e-03,-1.791431389562244889e-02
-9.798679099607159770e+00,8.576341777333830463e-04,-1.219078185295340011e-02
-9.800244819581717337e+00,-5.722613959708635137e-03,-2.222354872911377899e-02
-9.797618115497842339e+00,-1.070241702359654582e-03,-1.074653830740752297e-02
-9.789024681348823975e+00,5.270223321087889878e-03,-2.152244740529610928e-02
-9.788280723643106640e+00,6.701229168792674669e-03,-2.564630664306392568e-02
-9.794205256975942575e+00,2.447130507201952365e-03,-1.796242184371997508e-02
-9.793532319065725744e+00,-4.091420162297653741e-03,-2.279186409400655797e-02
-9.793425802543785252e+00,7.310370908721382927e-03,-1.479438334956799037e-02
-9.789652212449404090e+00,1.185206416987932831e-02,-1.965365019130636132e-02
-9.786764134449528640e+00,1.984095806575526377e-03,-1.804150587380847284e-02
-9.796826426737368365e+00,-1.144755208550999638e-02,-1.085810709893487991e-02
-9.791913075057202320e+00,3.135131595255263252e-03,-1.844180558273272527e-02
-9.793220771605747998e+00,-8.051923170413635353e-03,-1.753502540041634167e-02
-9.805517620444215154e+00,-3.547389338920622220e-03,-1.771829593316930074e-02
-9.795706623041512628e+00,4.984369291873271858e-03,-2.009800619956892201e-02
-9.799323893218963022e+00,-5.493596747013016444e-03,-1.976182378333648029e-02
-9.793515609254171750e+00,-9.009526783681366668e-03,-1.615236845206404273e-02
-9.798429696321356630e+00,-3.621865585618737685e-03,-1.554731635300555734e-02
-9.802070416679075748e+00,-3.637770308184855479e-03,-1.559523315988211797e-02
-9.798534247356775140e+00,3.235385955067265635e-04,-1.173272237198516067e-02
-9.789885968881421263e+00,1.837233708715783724e-03,-1.791634869996845680e-02
-9.800113387786719699e+00,2.115973148550793353e-03,-1.021973183664294516e-02
-9.797873253319423270e+00,1.036157725445138646e-04,-1.715760053192973839e-02
-9.795661144099559792e+00,8.319735810988510699e-04,-2.187251754509771801e-02
-9.800632339245241909e+00,-9.012658585717280881e-04,-1.916018198600467209e-02
-9.789230460786388477e+00,-2.482354303058581253e-03,-9.622187734452877783e-03
-9.786621928596231257e+00,-3.360097282641754009e-03,-2.531267930908229213e-02
-9.797319739958197715e+00,-7.959590869993048417e-04,-1.262469596620028472e-02
-9.791584785056196338e+00,-6.700499397334813007e-03,-2.348267847299332495e-02
-9.787833841896732778e+00,4.879414520627485020e-03,-1.406364765471819316e-02
-9.798494471960330188e+00,-6.574701048367591252e-04,-1.551254657675751013e-02
-9.791355164138403566e+00,-9.568882583892089318e-04,-1.168658272505627461e-02
-9.792212219061967815e+00,-7.376456656330935766e-03,-4.518258456121849315e-03
-9.801293577663669154e+00,1.902538844943523627e-03,-2.121815498298078653e-02
-9.795157203337314655e+00,1.894759165781531064e-03,-7.891490141709259915e-03
-9.791482762042404531e+00,4.825263353767437861e-03,-1.453242212682670509e-02
-9.795952494562502721e+00,7.287227371620560133e-03,-9.144825255096184283e-03
-9.801843463240826893e+00,5.481297900630054251e-04,-1.001376264349216824e-02
-9.793889973630198753e+00,-5.967066398344053092e-03,-1.602979677146192453e-02
-9.789252881473364809e+00,-2.305773135555357414e-04,-7.944531419418338070e-03
-9.790786036031711603e+00,-1.336438951226086302e-03,-1.262579254414967871e-02
-9.792487526320243774e+00,2.950969618110729168e-03,-1.804482984994692715e-02
-9.792970252139559406e+00,-1.642220686919644438e-04,-9.579762983006313848e-03
-9.795171734206546077e+00,5.538635838431927270e-03,-1.444725770492593514e-02
-9.801561609546398657e+00,4.954683975401909723e-04,-1.430573936976191514e-02
-9.792171782506871480e+00,9.823749838104219381e-03,-1.515613788843728389e-02
-9.796367310685223373e+00,-1.285786899645139985e-03,-1.063086361538295894e-02
-9.796364959373274672e+00,2.165842905101702208e-03,-7.446818787469342352e-03
-9.797931294336189367e+00,2.733076214745703506e-03,-1.740693200319373690e-02
-9.790282628760508032e+00,-1.538087470857197117e-02,-1.765021165930591093e-02
-9.795895820321383951e+00,-7.248096011684503938e-03,-2.030762005656143454e-02
-9.785365515724318897e+00,-1.547374033478971563e-03,-2.280589787510985122e-02
-9.795651189104392031e+00,7.421683729592797518e-04,-6.553547275411328137e-03
-9.793243165956042162e+00,6.355692534811857586e-03,-1.191417475201281273e-02
-9.792860763098280685e+00,-2.661856602789580174e-03,-7.529147215029511481e-03
-9.793436464068408398e+00,5.519457843230794400e-03,-5.821985548638363914e-03
-9.784260233002768814e+00,-1.422288490813767951e-03,-9.336188533450622690e-03
-9.796947776252540763e+00,-4.355862366858320907e-03,-1.094493427124045883e-02
-9.793620228904314828e+00,-5.078418421170623892e-03,-6.225082315110450591e-03
-9.798326742442011295e+00,3.213156232800289027e-03,-3.535579067060926756e-03
-9.799066593239402323e+00,7.091947691932800474e-03,-1.372703608080410448e-02
-9.788711014924109222e+00,-4.739476098234145923e-03,-1.904850811189841633e-02
-9.790244313015662669e+00,3.316375844635605259e-03,-1.927067631210787474e-02
-9.794537530837265749e+00,-2.556893754094761214e-03,-1.405588310190376833e-02
-9.790460360772664572e+00,4.750392084816154950e-03,-6.126119876780690768e-03
-9.795914364388252693e+00,2.988020181932885076e-03,-7.550509566137037810e-03
-9.784380536199693168e+00,-4.403478149256141033e-03,-1.270664326548957487e-02
-9.788893945742382030e+00,4.586541378455433193e-03,-5.551972565605222884e-03
-9.796096130797895540e+00,-1.934456625375611302e-03,-1.125899519203043750e-02
-9.790420094889165981e+00,4.670887070063370339e-03,-6.821651931101062327e-04
-9.790880887627301021e+00,1.006847890871605776e-02,-7.879665205252166932e-03
-9.790272076484049180e+00,4.799876136395494521e-03,-6.511238130391464908e-03
-9.802541869546329778e+00,9.503887387917535692e-03,-1.227418038429601774e-02
-9.802313489104815147e+00,-2.999995718089953477e-04,-7.610766695113704156e-03
-9.796777604414755203e+00,2.773383741243335299e-03,-2.099491698158397271e-02
-9.797555211583370394e+00,-2.794973137666230054e-03,-1.804319111538691539e-02
-9.796881503620241460e+00,5.870998708891917925e-03,-1.289240486653429538e-02
-9.790202727734069299e+00,-4.306586511163763495e-03,-9.467338747621885028e-03
-9.792124231152605773e+00,-2.110032848230987586e-03,-1.440471638961757922e-02
-9.792816655613879817e+00,-8.648772924290393238e-03,-1.108389713183123571e-02
-9.785371321457379423e+00,-3.103108771750743861e-03,-1.390764022153012994e-02
-9.794734765513904762e+00,2.330065742938108690e-03,-7.047956970707561393e-03
-9.788956379622446136e+00,3.125716790277453458e-03,-1.266061054316981738e-02
-9.798829060452519002e+00,-1.998017575918584459e-03,-1.425124117684507807e-02
-9.781922995822775135e+00,-2.467815924857939738e-03,-6.448468563200498993e-03
-9.794298500342048186e+00,-3.421376783788451954e-03,-1.226886404808633611e-02
-9.789586588174872261e+00,-3.416931401649522457e-03,-1.701370373612215436e-02
-9.789601649448796294e+00,4.679194516073550449e-03,-9.981038163770184282e-03
-9.796192712690546145e+00,-2.538131288904922015e-03,-1.864080043786785212e-02
-9.797125102654318241e+00,-8.696590264475737020e-03,-1.183967753562980077e-02
-9.794683313417412052e+00,8.271311513107799246e-03,-2.359560729765131787e-02
-9.789956701158919472e+00,-4.038926758420761931e-03,-1.480521470767264501e-02
-9.795891946586294807e+00,2.574781531102916798e-03,-1.236335536187587077e-02
-9.785773889274484105e+00,6.452980464931231406e-04,-1.610145378365761271e-02
-9.791746696018787333e+00,5.573269067981572247e-03,-2.253273214830869148e-02
-9.786887456023695364e+00,-1.452123015719836065e-03,-1.001211082126440312e-02
-9.793151421536867574e+00,1.240646941036018837e-03,1.284121852175329481e-03
-9.792935598321047763e+00,2.507211222603979162e-03,-1.435464300135626953e-02
-9.793305349664194637e+00,5.081376442472725422e-03,-1.236273885171437596e-02
-9.797702695421678598e+00,-5.534200953007851857e-03,-1.110401417440991072e-02
-9.789711357137443670e+00,6.062802685299876690e-03,-1.583846336076561931e-02
-9.796151582329773788e+00,9.799847002360917436e-03,-9.068759612938508130e-03
-9.798159329151975072e+00,5.085579530866269141e-03,-1.470852550488822678e-02
-9.789794180093215559e+00,2.372235844259840305e-03,-2.716142378264930352e-02
-9.796048965907512951e+00,-5.201216304727098415e-03,-1.831903765945617352e-02
-9.794215069694175213e+00,-2.908205092236458567e-03,-9.172139147489030697e-03
-9.796582753421175127e+00,4.388215745853632326e-03,-8.787637565425440028e-03
-9.796003145246075405e+00,-1.008174823442374579e-02,-1.873077153172095222e-02
-9.798371574080192659e+00,1.840415478728895694e-03,-7.319510454741958924e-03
-9.792934379510343845e+00,-1.133439428868555660e-03,-1.525245949781925403e-02
-9.796396190618684940e+00,3.897404397722456677e-03,-1.264735892816656881e-02
-9.789651731901725995e+00,-1.615647077359943758e-03,-1.867611360585668540e-02
-9.784945490328958329e+00,1.202040429361487042e-03,-5.254352997631608728e-03
-9.799025916590156982e+00,-4.404935086965067539e-03,-1.198581593883902598e-02
-9.790265034526136390e+00,-1.519085911074507383e-03,-6.868896313480795345e-03
-9.795395841798820058e+00,1.043387805563002028e-02,-1.096752859222293805e-02
-9.792361019447531234e+00,-7.447419876793147028e-03,-1.140789821811194135e-02
-9.790528221766123806e+00,2.812465140002646299e-03,-1.053389298782853901e-02
-9.792776235946162089e+00,-6.478511598407087936e-03,-1.249963800800413076e-02
-9.800685781143418041e+00,3.485868977520839053e-03,-1.681724463174085610e-02
-9.796013529232128647e+00,9.109733205332650255e-03,-4.467992532294122465e-03
-9.797624436533254766e+00,6.055806227648593068e-03,-8.584917316068592374e-03
-9.793183993426730183e+00,-4.643656510456208031e-03,-7.959375262237134221e-03
-9.787739129693552087e+00,5.973650960555221354e-04,-1.350909610841238666e-02
-9.794089023079809664e+00,9.951738602522227761e-04,-1.031415260907745345e-02
-9.791676768222810523e+00,-8.379442671250271479e-03,-1.052771118718048848e-02
-9.792200620717608217e+00,-4.165282689393535499e-03,-1.333174032803701066e-02
-9.788325854831541051e+00,-9.597795872944485471e-04,-1.000728560715768468e-02
-9.796416947812387477e+00,-5.687238485581217005e-04,-4.418638005178260504e-03
-9.798260071895120049e+00,-3.105231456759801386e-03,-1.641613212543179684e-02
-9.794383472868824825e+00,3.353916435733599998e-03,-8.510221169258182228e-03
-9.793900160605314653e+00,-4.655353268776350880e-04,-1.488475638142874174e-02
-9.788405728249021109e+00,-6.258902995345358433e-03,-1.304845178134256788e-02
-9.797294905827964584e+00,9.033437316665346786e-03,-8.686748890227396352e-03
-9.802718138866666209e+00,4.412514909892850494e-03,-3.573393846535252716e-03
-9.795155906594755990e+00,2.500982129882425246e-03,-8.481716133740938718e-03
-9.797612118812129012e+00,6.825296342998140968e-03,-1.060136764691404880e-02
-9.800515399017744045e+00,-2.416175081870900691e-03,-1.179627050606162422e-02
-9.796984508638800548e+00,-3.031912572001228823e-03,-3.474095677928554400e-03
-9.794048288771806554e+00,-1.515215263992261523e-03,-1.237604669649680460e-02
-9.799667222116518417e+00,1.568474948358814045e-03,-8.707831234101667817e-03
-9.792826229685280381e+00,1.559397345762918857e-03,-8.753244717502486547e-03
-9.782973937360553762e+00,4.073519193578354139e-03,-4.333049549027079284e-04
-9.794445108468133654e+00,-4.027185332690042148e-03,-1.159392846666992480e-02
-9.793337993984236434e+00,-3.182458592261965154e-03,-1.101419689371958832e-02
-9.792343568150245758e+00,7.864803912642107792e-03,-1.115538145474652063e-02
-9.789407968358240453e+00,-5.580574065269541112e-03,-1.181411272452122414e-02
-9.800366303954428204e+00,1.936680519872119831e-03,-9.275812095603502144e-03
-9.784661704612728883e+00,2.563435258238425628e-03,-1.585176860100018237e-02
-9.790621664283893466e+00,-2.299979349842246057e-03,-8.161800198082215865e-04
-9.792280088884846023e+00,4.236458768602048347e-04,-1.119057246926624324e-02
-9.795910876727456085e+00,2.904306236399439248e-03,-1.001750338543800495e-02
-9.795919001235052548e+00,3.739281097340514236e-03,-1.126938552321068987e-02
-9.800699013161446871e+00,-8.174269472627337940e-03,-3.370069474088579868e-03
-9.794566362599503861e+00,-5.372285640320228345e-03,-2.331549301696912713e-02
-9.800004813551261407e+00,8.152975315465819939e-03,-1.108788687121041970e-02
-9.790548901335775156e+00,-4.566662554313976642e-03,-1.154161413971386586e-02
-9.792301769091247721e+00,1.777864330496806014e-03,-1.275332817172575295e-02
-9.800543525416969715e+00,9.242774202717352061e-03,-7.131468218637400033e-03
-9.785084498064170688e+00,-2.476887000851216332e-05,-3.273358784061922676e-03
-9.796710693519045776e+00,-3.563016315361853398e-03,-4.487314169954983306e-03
-9.793371058657593053e+00,4.783938879431161306e-03,-1.118727396516091405e-02
-9.797805542843422089e+00,-3.323945534869763522e-03,-1.485292046720636944e-02
-9.789458537028774998e+00,-3.708555883358394777e-03,-9.365606691652634749e-03
-9.792931118748560593e+00,-9.217524595331798125e-04,-4.015803401170378248e-03
-9.796685048400084028e+00,1.119702470114667878e-02,-4.656097295973561298e-04
-9.798636304756728421e+00,4.202082182700075767e-03,-5.087594734779859323e-03
-9.790327651008281507e+00,2.836477912414221876e-03,-9.421717803300323421e-03
-9.798039081976204656e+00,-2.931132789762033470e-03,-9.849961872775576596e-03
-9.797235082477365964e+00,1.381680654830002870e-03,3.009716218386601291e-03
-9.800792993134077591e+00,-1.172317245641480224e-04,-1.392481111167257098e-02
-9.807356437210669853e+00,1.087803550352155809e-04,-1.717004143703597385e-02
-9.793734294003415997e+00,5.373644860421291844e-03,-5.001236592073533480e-03
-9.801312883229989836e+00,-1.435915092231004799e-03,-1.753184902534860728e-05
-9.803211660823301088e+00,-2.431945715944895409e-03,-4.867348375067416869e-03
-9.789752259231022435e+00,-7.912311153449032991e-03,-4.644337752325259500e-04
-9.798095806966212962e+00,9.599342264937326926e-04,-3.674330192175518078e-03
-9.794486775664566380e+00,2.297654055189921746e-03,-5.717655470641424577e-03
-9.790136245077841082e+00,1.001161887100406565e-02,-7.199819480625217240e-03
-9.805878755727803764e+00,2.711130648219518824e-03,-5.320892626871916165e-03
-9.792947434309043686e+00,-6.738669687358789110e-04,-4.747472515841009641e-04
-9.797772585620112551e+00,-3.929096752586500908e-03,-1.236151251462227867e-02
-9.792660116784864144e+00,1.088152111018951627e-03,-1.198694925065884979e-02
-9.794204937909968933e+00,1.088362223465812097e-03,-1.070983664496455608e-02
-9.789805421652895134e+00,-2.570567104374868288e-03,-1.244020116787429922e-02
-9.789668068206964335e+00,-2.344429251853361387e-03,-5.633541914597346364e-03
-9.792329701186226032e+00,5.894212028778216157e-03,6.646200606478085311e-03
-9.793283755707488325e+00,6.362161712001791584e-03,8.409464359772165359e-04
-9.791893274621189747e+00,7.614688661636224640e-03,-9.665768334931455763e-03
-9.788979537931879804e+00,-1.664485003299931345e-03,-1.841088659045043291e-02
-9.793525999993665465e+00,-4.032327784468252990e-03,-6.628013914130780060e-03
-9.790701076532926095e+00,-1.029565896917569896e-02,-5.459678854366163681e-03
-9.798670720524983224e+00,-1.891010257695067802e-03,-5.501887043824310944e-03
-9.785788035612382529e+00,-6.851433637285603284e-03,-3.573316266884192256e-03
-9.796353867046242669e+00,-8.374395886972980929e-03,-1.857807358101067410e-03
-9.790924811044440901e+00,7.119380026527489212e-03,7.054089644682418926e-03
-9.792948698028808963e+00,-2.240441742528817212e-03,-6.843883769758476836e-03
-9.800400691681707244e+00,1.608801573594543805e-03,-5.977219102944340313e-03
-9.787118524464148095e+00,1.053790279006573162e-02,-5.476647973386337964e-03
-9.802415900417495109e+00,-1.673889083863655623e-03,-8.735255542129886919e-03
-9.797988145700466944e+00,-5.800510265966631572e-03,-7.484696605711858158e-03
-9.786004273623554184e+00,-2.188142077043439028e-03,-6.190121635952858768e-03
-9.796838870789212450e+00,-5.484517471579178870e-03,-8.028122189048378030e-03
-9.791293124420683114e+00,2.179816342634784479e-03,8.109805668676386275e-03
-9.792207487018288248e+00,2.927221440222534674e-04,-1.635854223877134667e-03
-9.794534198425443705e+00,4.113160637564984567e-04,-6.711761907054346679e-03
