gyro_x (deg/s),gyro_y (deg/s),gyro_z (deg/s)
4.699531717910681583e-01,2.411224921299943702e-01,5.975289872751130549e-01
5.223003417823363081e-01,-8.329964549880684854e-03,4.741520765632785683e-01
4.706483667804823301e-01,-2.092869437428747093e-01,4.465506523300531438e-01
5.118236776712765668e-01,-5.190358891825438414e-01,5.757124123488657208e-01
5.452644564928252890e-01,-8.163292770247866370e-01,4.516712991375591013e-01
5.683212748249485413e-01,-1.113763799281243250e+00,4.221116257097893287e-01
4.514290020902906320e-01,-1.335263456293054096e+00,4.505083166595283961e-01
5.225954931002141368e-01,-1.548869397285173699e+00,4.019955864745005103e-01
5.065490989064282967e-01,-1.814444754951509697e+00,4.877674862980317383e-01
4.792939759866055027e-01,-2.067189483762813307e+00,4.541151928457342613e-01
4.587017494447873101e-01,-2.350671306447443154e+00,4.137842669990186573e-01
4.495601391145641057e-01,-2.608659140313433600e+00,5.072336681011606618e-01
5.049152404078798284e-01,-2.908961120719707694e+00,4.124815841217476242e-01
4.676568674900016265e-01,-3.137200613005035610e+00,4.292119364017044081e-01
4.892551676895139368e-01,-3.300911920780068343e+00,4.235162886963729223e-01
4.936473019170551368e-01,-3.620469208996973887e+00,4.170442447060445645e-01
4.504053947774114830e-01,-3.901008972814351328e+00,5.338289822100478199e-01
3.944457629959630118e-01,-4.135614221841818150e+00,4.869074440511607094e-01
4.596222952931029448e-01,-4.369791232479535381e+00,3.548351396919758871e-01
4.057924121357944780e-01,-4.711315858146036817e+00,3.732978404675123540e-01
4.389784121686762242e-01,-4.948566751120962337e+00,4.776095305711205996e-01
4.887171654116050368e-01,-5.131150511780328216e+00,4.666662851280201640e-01
4.495854641115514805e-01,-5.419520481577841942e+00,4.413490333156662171e-01
4.016132534214624239e-01,-5.634725031670223316e+00,3.696557349691859673e-01
4.278105260484166283e-01,-5.942643015057719857e+00,3.718582219179242809e-01
4.468045181768379726e-01,-6.241694206386756427e+00,4.898254306675831060e-01
4.321748410973684229e-01,-6.474885549135140472e+00,4.051083519350704432e-01
3.385269135399055496e-01,-6.767394709462493552e+00,3.599948725956159112e-01
3.977981245699478974e-01,-6.946608153772777960e+00,4.123596026382434498e-01
4.256108747489326105e-01,-7.178025034250640424e+00,4.264374162811732094e-01
4.385938428722462312e-01,-7.492274936830339627e+00,3.792645497615543260e-01
3.489055817419851047e-01,-7.712486102277185118e+00,4.861335175538420983e-01
4.700104835689906668e-01,-7.976512880997536747e+00,4.099240618189707308e-01
3.483867070716384351e-01,-8.223631914683117827e+00,3.807679455154713288e-01
4.252637037278291232e-01,-8.517029536043965621e+00,3.380838129333456621e-01
3.976161305604961616e-01,-8.787270738754131116e+00,4.329735803811591843e-01
4.419847581204703335e-01,-9.067688446820342918e+00,3.430217562735973780e-01
3.996904117156541147e-01,-9.353099885356476406e+00,2.712116142125182150e-01
3.411577481943277590e-01,-9.549121256656812662e+00,3.793218199451544592e-01
4.353637999895867972e-01,-9.802412223163818439e+00,4.066385564415400111e-01
4.178308038373961808e-01,-1.005035792492823710e+01,4.037836851049472764e-01
3.858869767725623956e-01,-1.027581087834392015e+01,3.718238733727101675e-01
3.878550522583700255e-01,-1.061045528579789732e+01,2.844556080793568253e-01
3.742583527017266376e-01,-1.075800407727447094e+01,3.664232696784283649e-01
4.120484406244824815e-01,-1.100532649460588885e+01,4.323926295499569972e-01
3.110042858144299593e-01,-1.124333307378040914e+01,3.414218773210540014e-01
3.759869737448552907e-01,-1.166758446313885322e+01,3.000008028981565600e-01
3.245549439211360965e-01,-1.180302760608606683e+01,3.460957979268537432e-01
4.363705474994561961e-01,-1.220571968239258176e+01,3.125986968650282249e-01
4.013086306188082264e-01,-1.237533617470371361e+01,3.511828015246218904e-01
4.134910788025720207e-01,-1.261638664015363709e+01,4.119419227492177038e-01
2.893332212804773929e-01,-1.294458529453727991e+01,3.187663720870010375e-01
2.547632915490219974e-01,-1.317566047871574320e+01,3.573092759603567758e-01
3.451068378724454488e-01,-1.345403840407183615e+01,3.723784150414027883e-01
4.105421994827875287e-01,-1.362341579798780344e+01,4.494323477654322829e-01
3.841397315968857473e-01,-1.394615580394451904e+01,3.214391009277976496e-01
2.966804431639235018e-01,-1.415074926115812382e+01,4.087064218031771223e-01
3.230609420658513975e-01,-1.453250383807854185e+01,4.174769840100298057e-01
3.637600472066671586e-01,-1.463092096751919158e+01,4.010526368467169922e-01
3.711833864137183414e-01,-1.499101427176654511e+01,3.371359795566177264e-01
2.472721074052559587e-01,-1.526995267294832992e+01,3.986727334570520642e-01
2.731823448226502471e-01,-1.547785824333028337e+01,2.883107107055685181e-01
3.535535056434307433e-01,-1.572378248864213113e+01,2.605407235413538247e-01
3.432555652752748987e-01,-1.602513641206743600e+01,2.700091719314503536e-01
3.002324142526626161e-01,-1.625584683011272702e+01,2.919607513552469613e-01
2.728037720465146254e-01,-1.647455722242973408e+01,2.661987396790713722e-01
2.865576626247883230e-01,-1.683222157858282486e+01,2.802475692016112019e-01
2.420357788311603142e-01,-1.701362154958859207e+01,2.847320468728684606e-01
2.531806675339489665e-01,-1.724387680437866166e+01,2.948729565339822667e-01
2.602562770178320495e-01,-1.754975511890510020e+01,3.294723380645712685e-01
2.969744347608106461e-01,-1.791994378683235922e+01,2.965176873607078822e-01
3.252330692349395536e-01,-1.807020487972950207e+01,2.373746052106193438e-01
3.044694278941652010e-01,-1.833322514922119950e+01,2.975357121015083650e-01
2.868026254098085537e-01,-1.858773485207553477e+01,3.102731654314635490e-01
2.523192536826968646e-01,-1.877515885766590742e+01,2.631980528483109372e-01
2.276822058559740403e-01,-1.909880403666916848e+01,2.819348017461458245e-01
3.030240273856583122e-01,-1.928203497331018568e+01,3.125892230243036418e-01
2.340557772780458012e-01,-1.956812280600992437e+01,3.494137997516600369e-01
3.004012131727976098e-01,-1.992988047009008667e+01,2.277974673797157623e-01
2.984833904802258742e-01,-2.017445493167549841e+01,2.704319984994031367e-01
2.641962469720788298e-01,-2.037899460444425159e+01,2.165040947289050832e-01
2.439422020744569930e-01,-2.071194911778099979e+01,3.204940628675518322e-01
2.934964290749103033e-01,-2.094668075938785989e+01,2.845458302523093397e-01
2.163305067423683670e-01,-2.115547992826761359e+01,1.912826602136587228e-01
2.597765852025057942e-01,-2.139904304841891403e+01,1.961897067046460552e-01
2.917068259813043185e-01,-2.164739568253660451e+01,2.718804258433660803e-01
2.682579686355472948e-01,-2.188288716849412197e+01,2.703617225717604433e-01
1.879191268223981692e-01,-2.222396309010935056e+01,2.219663735668673810e-01
2.192877796984512018e-01,-2.241959402039781679e+01,2.722942685535175156e-01
2.402247465685486416e-01,-2.277933383640075959e+01,2.459252312202919177e-01
2.212365968905920244e-01,-2.300936505879112914e+01,2.213017223912142339e-01
2.398954962789292544e-01,-2.321542519592556530e+01,2.039746495111044722e-01
2.803061271844450864e-01,-2.343486836964747511e+01,1.884555668997367484e-01
2.334295404800706963e-01,-2.380958801302386618e+01,2.058064751684172411e-01
1.983082081085614790e-01,-2.403247646466185827e+01,2.135135532652876200e-01
1.722575876123026428e-01,-2.424448711303331550e+01,2.222144150817212394e-01
2.283843672680067327e-01,-2.451949965049713498e+01,2.243200735443478810e-01
2.248963359855061794e-01,-2.477429019407279398e+01,1.875936890409801439e-01
2.211524218541595366e-01,-2.496216345985526885e+01,2.067306798209559704e-01
2.248476329461749079e-01,-2.535556797248217720e+01,2.605676938486513050e-01
2.338676552012196874e-01,-2.548357413031112273e+01,1.694020208889501222e-01
1.829019102059776802e-01,-2.578394457121532923e+01,1.591570531700650659e-01
1.468011195670090863e-01,-2.608711290160389140e+01,1.783116891174768848e-01
2.199162093482706914e-01,-2.635042472995126772e+01,1.840809611415144542e-01
1.603796932419962185e-01,-2.653428878786412426e+01,9.581126975027799697e-02
1.229021356894011568e-01,-2.683719442672844124e+01,1.831006484470159845e-01
1.424282998083010732e-01,-2.704889746890048841e+01,2.330326869257061118e-01
1.480155429607518947e-01,-2.738912721392054195e+01,2.561867104922284089e-01
2.303641918014251999e-01,-2.759432574049158404e+01,2.155923741790110038e-01
1.546101668715241517e-01,-2.782266680335694886e+01,1.636868267285595258e-01
1.448407837798391384e-01,-2.808542509268449905e+01,1.380985887815211477e-01
1.581251964783369213e-01,-2.834518834137335830e+01,1.711458305358929399e-01
1.769421511497851485e-01,-2.867381462562584460e+01,1.492622616894777043e-01
1.718438296291372180e-01,-2.885557499040121954e+01,1.261970775023817382e-01
1.944073672357047589e-01,-2.916996918267073369e+01,1.784935600176625059e-01
1.516839187829361890e-01,-2.934619989546689212e+01,1.700471873415261292e-01
1.538918713134865279e-01,-2.962142583220438397e+01,1.511277181448116569e-01
1.139449483914913991e-01,-2.971046964586478012e+01,1.478601015284083942e-01
1.143385790264170726e-01,-2.984003649363931743e+01,1.236894565365831561e-01
1.224546414303690628e-01,-2.997854804842497245e+01,1.676200150287718571e-01
1.458058046006613928e-01,-2.996934372107197220e+01,1.601493172757663119e-01
1.429773736024237962e-01,-3.002380003454483415e+01,1.763337650319188321e-01
1.117006911650190865e-01,-3.015966843119974783e+01,2.104088018109043778e-01
1.074424622516260558e-01,-3.013522329464999316e+01,1.758982342815180733e-01
1.834329401039711260e-01,-3.011145929799025467e+01,1.629748058879654793e-01
1.596443335163910127e-01,-3.002185374930636286e+01,1.655885275979882554e-01
1.367293111078824452e-01,-2.999783836394321668e+01,1.298806713309827998e-01
1.893081317162005617e-01,-2.999614338478858144e+01,1.632468565849599929e-01
1.557194480692917216e-01,-2.998888871049373961e+01,1.806303158319514379e-01
1.801339375997918490e-01,-2.985959593780765076e+01,2.067738232885673322e-01
1.210077568436274120e-01,-2.979644151897119997e+01,1.926616549448432747e-01
1.318082197439010006e-01,-2.974536369868808094e+01,1.094644984293707962e-01
2.034560788972101242e-01,-2.967758627590393417e+01,1.663183212603012440e-01
2.047293378143399678e-01,-2.955375401948965219e+01,1.479223697559901851e-01
1.141990974161878475e-01,-2.947385903627936798e+01,9.985652546246910621e-02
1.769355055447650593e-01,-2.931987553666254698e+01,2.604053427695263156e-01
1.097888920650902378e-01,-2.917570381901743204e+01,1.523316829840687670e-01
1.478072928673553887e-01,-2.913117286374496118e+01,8.279285934784881562e-02
1.371248585499248440e-01,-2.899296267924649939e+01,1.768981217717365273e-01
1.838416074483114893e-01,-2.884382238081309069e+01,1.794554507699379076e-01
2.608696077676125324e-01,-2.877165447506421714e+01,1.598687967758105621e-01
1.454979450199991031e-01,-2.857757104464775466e+01,1.444615086773047841e-01
9.876247379375112379e-02,-2.858066188844260580e+01,2.488260543316919426e-01
1.258629224341427377e-01,-2.830659357648803365e+01,2.439993268262583836e-01
2.188128177151742737e-01,-2.820978208227575834e+01,1.937956840330481156e-01
2.839816181987845356e-01,-2.814982876170322612e+01,1.314221158753444696e-01
1.633180715588397058e-01,-2.794631642005529670e+01,2.197771155392295728e-01
2.319601552524896415e-01,-2.788178838413523408e+01,1.947021244522490202e-01
1.816167771747659032e-01,-2.764888338212834284e+01,1.413286946416239254e-01
1.720616241917742872e-01,-2.752964849896790511e+01,1.449998483494229773e-01
1.967582174995765876e-01,-2.740444002969352155e+01,1.462841144428229379e-01
1.747060347767175892e-01,-2.730414682803622028e+01,1.134818084152190293e-01
2.043847940324778345e-01,-2.710279122939654073e+01,2.762306808964008487e-01
1.753697461211659037e-01,-2.706688735137436552e+01,1.496361647418119334e-01
1.416069017430209853e-01,-2.689590414980385091e+01,2.264884352416483282e-01
2.568243172115299844e-01,-2.672148767868441865e+01,1.798606997526515650e-01
2.694636178474944521e-01,-2.660505236357078829e+01,1.694005558285437418e-01
2.492910687382622059e-01,-2.643041589252970880e+01,2.483416180700838694e-01
1.246777567931692671e-01,-2.633223642583105217e+01,2.009645193333340074e-01
1.157589340680839352e-01,-2.617564105637839944e+01,2.417179101238102201e-01
2.122371979573683953e-01,-2.610127259920881571e+01,2.543700717087616359e-01
2.057422702504643208e-01,-2.586902352883819489e+01,1.755959329748577324e-01
1.973689017121700584e-01,-2.576137638326591528e+01,1.783125054987466096e-01
1.946485782854711910e-01,-2.564144337623180547e+01,1.667297684215323650e-01
1.528562270007023105e-01,-2.558790047794148492e+01,1.253353004794224845e-01
2.527992365177113010e-01,-2.535788841533824112e+01,2.135882461913435337e-01
1.839579363746127738e-01,-2.522727136461971753e+01,1.299608693657754721e-01
1.642905392717909918e-01,-2.511034503361226200e+01,1.904427915290487217e-01
1.612511020015160168e-01,-2.497436080608187581e+01,1.788101600259161539e-01
2.335469240042934436e-01,-2.488481881047536248e+01,2.029180336545391983e-01
2.332221185147465292e-01,-2.471087313729371715e+01,1.490099728767355358e-01
1.660929754181285911e-01,-2.462983126070800211e+01,1.629572750912696433e-01
1.991059041633603810e-01,-2.449212404613983551e+01,2.231509018926036425e-01
2.604232705901258216e-01,-2.429608748358691628e+01,2.196589174313599846e-01
3.047298939491338565e-01,-2.419213813166211580e+01,2.830284633399616223e-01
2.588838803926507004e-01,-2.407502894228627355e+01,1.701924804614502740e-01
2.864878794136354045e-01,-2.391088290048647025e+01,2.089831764916319501e-01
1.949315368835160267e-01,-2.386236989641361816e+01,2.462102132621982742e-01
1.967727377121783194e-01,-2.365298625479317352e+01,2.344303796797792272e-01
1.662593250025125591e-01,-2.354470857133165040e+01,2.717495340688453886e-01
2.526339079818070710e-01,-2.342633252867077687e+01,2.313971842872704354e-01
2.509352544630901738e-01,-2.324984058462557002e+01,1.964956887165662247e-01
2.162287597739505352e-01,-2.310580300876583593e+01,2.444864527148833677e-01
3.062215290786928223e-01,-2.311389599578834364e+01,1.919748597934178846e-01
2.923457217600478053e-01,-2.293805625734324494e+01,2.612827953515970414e-01
3.033317175413999811e-01,-2.281797561201134172e+01,3.007920290068361036e-01
3.293892947100762192e-01,-2.266352911262404390e+01,2.960895121908891925e-01
2.191335433480796901e-01,-2.254727908561087091e+01,2.675585682377384367e-01
2.624851428658830366e-01,-2.246375235799032311e+01,2.386570418585562681e-01
2.704356211215768191e-01,-2.239968665124773395e+01,2.492016986063621542e-01
2.527198745987603301e-01,-2.228709438747969074e+01,2.027744808274006272e-01
2.859743895399116664e-01,-2.208375746309563326e+01,2.503833784823889519e-01
2.501683398038420658e-01,-2.196351728373082679e+01,2.308561924106995733e-01
2.532813841292127499e-01,-2.184723996405364588e+01,2.330477387708995707e-01
2.864125150777108719e-01,-2.176752457011608399e+01,2.734204470257725617e-01
2.410483194019035491e-01,-2.154739502854033617e+01,2.650334383429860940e-01
2.241424941944027693e-01,-2.152852814739976139e+01,2.679718074502148162e-01
2.543964174347504992e-01,-2.148176332312559467e+01,3.251870383661464303e-01
2.179414987924054303e-01,-2.122582851484644806e+01,2.346312201796661445e-01
3.155034499512582857e-01,-2.116831697297966031e+01,2.696439511928723776e-01
2.752023410881986321e-01,-2.106863826652474003e+01,1.801352135994795933e-01
2.058351409699816503e-01,-2.094771670666439078e+01,2.839714939670744953e-01
2.176790938389796537e-01,-2.079006264076526378e+01,2.961256868231866846e-01
2.807607467322002504e-01,-2.071266598755805433e+01,2.002735845816349114e-01
2.722869596946796422e-01,-2.061986065804506296e+01,2.884135594325255014e-01
3.244381912101051424e-01,-2.055956647800976711e+01,2.876253368339362071e-01
3.154741491727562908e-01,-2.035646534055338464e+01,3.077416565913448920e-01
2.209110249408245963e-01,-2.029072760957433985e+01,2.513220682451290933e-01
2.393893088636633304e-01,-2.020378293999904784e+01,2.205210034479862802e-01
2.690323327408641330e-01,-2.012525562219946451e+01,2.212358047361183966e-01
3.746849806510989533e-01,-1.994645578642853678e+01,3.206602237882718587e-01
2.991913275170850484e-01,-1.985258272354506559e+01,2.543306178608256141e-01
3.049791255738154572e-01,-1.965870709824659812e+01,2.684236480356135823e-01
3.617100348966817425e-01,-1.956402576405826110e+01,2.677564837109027707e-01
2.858818772700781885e-01,-1.947872170227101662e+01,2.933982995218124001e-01
3.079293889794554318e-01,-1.936185759960374142e+01,2.841210412738967572e-01
2.993401497774089148e-01,-1.932632974276037174e+01,2.480136137244411676e-01
2.794048266147666215e-01,-1.917065506098451877e+01,2.695314649979351218e-01
3.665426602615610152e-01,-1.905190325748571212e+01,2.959268910811627684e-01
1.858674888026752292e-01,-1.897693410523846680e+01,3.710595445948723925e-01
2.429010294553859417e-01,-1.890991575939016300e+01,3.272944613757710064e-01
2.774034764581181922e-01,-1.877964448204132708e+01,3.089278709747004803e-01
3.526765689998107578e-01,-1.869667633774542281e+01,3.421216842441144879e-01
2.664114682294608238e-01,-1.860016021620383952e+01,2.930749804632485911e-01
2.818755337504519343e-01,-1.852359056385814995e+01,3.540259132035189493e-01
3.652924203057927866e-01,-1.841085614050293273e+01,2.322596695758901153e-01
2.864353363220434323e-01,-1.826316374722399161e+01,2.824690335819700082e-01
3.389743816733049586e-01,-1.812146279727174303e+01,2.985296475114102011e-01
3.037606081532130964e-01,-1.802550098093522024e+01,3.107732282433775528e-01
2.691062994662428154e-01,-1.798678412550808048e+01,2.599815493340554284e-01
2.719747665492935895e-01,-1.791012216599901663e+01,2.459097021186728849e-01
3.082320334060377198e-01,-1.774083481841072185e+01,2.276938468852808817e-01
3.390001578229569490e-01,-1.773377507757057359e+01,3.158674180441851109e-01
2.409912735290557773e-01,-1.761832715008064909e+01,2.369529869942383626e-01
3.246533826466739270e-01,-1.764324807959781793e+01,3.112179503978924067e-01
3.176426540532651388e-01,-1.734135187125700028e+01,2.886087441546685839e-01
3.926261315750570469e-01,-1.738501653463758601e+01,3.292578319078282578e-01
2.553423416201982543e-01,-1.732335134055212933e+01,3.505692380386374873e-01
2.231895253393557932e-01,-1.721902835108966556e+01,2.849830838226593555e-01
3.177416814447847071e-01,-1.710573195622165699e+01,2.815274675001269156e-01
3.367980476114502686e-01,-1.694911083497824933e+01,3.439904245902655200e-01
2.883470054614357125e-01,-1.693714726986411989e+01,3.969679327478124464e-01
3.448569668010114109e-01,-1.681538318780573249e+01,3.474227224154531890e-01
3.494078645741863776e-01,-1.665177598298300055e+01,3.142270530991470578e-01
3.109060026092673734e-01,-1.662132870079431513e+01,3.274399104637711333e-01
3.147934347785228959e-01,-1.656373560757813479e+01,3.125482116550871159e-01
2.164974083556586992e-01,-1.645125959143756234e+01,3.308572108975615378e-01
3.792042474799283691e-01,-1.634006309588266248e+01,3.056958517575478207e-01
3.749960982549678801e-01,-1.625001580966619130e+01,3.250387277500956795e-01
2.338966926929653967e-01,-1.611827464888622075e+01,2.940688974879116513e-01
3.688782801689755031e-01,-1.604934619284555808e+01,4.186641853859316420e-01
2.575648106843619889e-01,-1.595022954051278319e+01,3.504888245572698180e-01
4.102260852827123716e-01,-1.588820370225087331e+01,3.436822610174091186e-01
3.678993589482737470e-01,-1.579502271210650655e+01,3.735112422012782929e-01
3.546172066483969654e-01,-1.580288856728443037e+01,3.373556742907465322e-01
4.149531047457666877e-01,-1.561711048768530041e+01,3.219426175903871146e-01
3.617593995477262347e-01,-1.556794846585945535e+01,3.912111346464161588e-01
2.577471552778148323e-01,-1.544226778107429610e+01,3.143570098136541646e-01
3.657254414930180553e-01,-1.539377705278564434e+01,3.558042278443817596e-01
3.335205647289716246e-01,-1.532530579151384487e+01,3.503958348811193058e-01
2.886345687941818672e-01,-1.519154044342544196e+01,3.370904884800575152e-01
3.102430219497435693e-01,-1.505769867132604922e+01,2.328999948619082105e-01
3.160545814365469663e-01,-1.502245837395611439e+01,4.240500538184742152e-01
3.396210639479928517e-01,-1.501401995257262101e+01,2.756891968362560896e-01
3.265233343969336510e-01,-1.491656696711051566e+01,3.939823955001888756e-01
2.761022853911352382e-01,-1.485084408362615171e+01,3.103161216277036671e-01
4.018246032025167835e-01,-1.467768114389215484e+01,2.916952280325289526e-01
2.925152891021381985e-01,-1.466611457346085956e+01,3.356687190121295794e-01
3.512860278748191067e-01,-1.463285786578404668e+01,3.179619625814910644e-01
3.659774817062819152e-01,-1.448233672615639556e+01,2.846800212240159222e-01
3.036885369277991797e-01,-1.439040160593560280e+01,3.253671824283337899e-01
3.314383206227280998e-01,-1.431195962588253323e+01,3.109878341941783031e-01
2.946781849608320347e-01,-1.423753318489690400e+01,4.273764612083902903e-01
3.038636425857801360e-01,-1.413750388632361243e+01,3.447866446977728150e-01
3.474859523140582107e-01,-1.416290875140607319e+01,4.175931146007506034e-01
3.728712320399835134e-01,-1.412084843642655230e+01,2.812971724740653823e-01
3.529029388286719082e-01,-1.391668465490184303e+01,4.089803731407335996e-01
3.169834642056270635e-01,-1.382809304629378566e+01,4.286694216954637371e-01
3.574009988767146151e-01,-1.380138362259656759e+01,3.748930568356537707e-01
3.135584515306242270e-01,-1.371601640850215098e+01,3.255162670428397576e-01
3.952773235022901677e-01,-1.363253904642321501e+01,3.603436051346733948e-01
3.331654790173399494e-01,-1.360878563936535990e+01,3.439450496285415548e-01
4.033006494811533504e-01,-1.343366079436291827e+01,4.263623380691869413e-01
3.162425201534128649e-01,-1.346994177360591749e+01,2.860416795525821954e-01
3.217979736499994026e-01,-1.336323489106953133e+01,4.119966434494151120e-01
3.025873485834031373e-01,-1.331432300699234972e+01,3.168629464392167527e-01
4.065345563353172653e-01,-1.326155066115235570e+01,3.383643223364466990e-01
3.874095420212737007e-01,-1.313698173122716639e+01,3.792733768157309782e-01
3.578145021100020418e-01,-1.301206135852850565e+01,3.947788472807379767e-01
3.961466968342187145e-01,-1.299700636529648357e+01,3.441343923880928468e-01
2.923154613634739718e-01,-1.287130222546629632e+01,3.002086109968471472e-01
3.413037772359836519e-01,-1.284640859535691781e+01,3.567844244342632254e-01
3.231131918034792494e-01,-1.282033920622021128e+01,3.988116882211770187e-01
3.093596194714313130e-01,-1.272783400049972613e+01,3.375342070611378475e-01
4.435276434928964728e-01,-1.270390857181101296e+01,3.307930883536054356e-01
4.121219363918905421e-01,-1.262682057523668355e+01,3.056478298107179192e-01
3.235428929931164488e-01,-1.244235730258726136e+01,2.939268443765380434e-01
3.147978180816167759e-01,-1.247844822487498817e+01,3.023464835308143361e-01
2.917068405909818973e-01,-1.232444824368702108e+01,3.535820600551879411e-01
3.410224845891873802e-01,-1.226865972686523421e+01,3.977561312153948814e-01
3.222965485880404102e-01,-1.227388375851542257e+01,3.625664245406537978e-01
3.892847526828910887e-01,-1.213614153281477392e+01,3.285729183383959695e-01
3.758966091478768146e-01,-1.209966787624693652e+01,4.320520489641666018e-01
3.710422059466718103e-01,-1.204835520817256622e+01,3.749039868897580674e-01
3.350610880152236071e-01,-1.200225561164142540e+01,4.093903319324003753e-01
3.118997457445721322e-01,-1.190561807368870895e+01,3.641293998812115684e-01
4.022548856759398661e-01,-1.187798689713132561e+01,3.237404192743431608e-01
3.670721665794142718e-01,-1.187102926350432597e+01,3.528575581011568763e-01
3.499820050322268727e-01,-1.164345080744026717e+01,3.463436693457496718e-01
2.675289611979659310e-01,-1.162594461117415534e+01,3.818105587872624995e-01
4.103538253774153266e-01,-1.160572738657860370e+01,2.963394751863909771e-01
4.254968288156656953e-01,-1.144921677585127995e+01,4.101589064143189023e-01
3.082705589671926316e-01,-1.145279748583712909e+01,3.517285477684805040e-01
3.269238242486063317e-01,-1.135580776452381535e+01,3.292902086265800388e-01
4.033624815337603087e-01,-1.128329002582019314e+01,4.412428193350539929e-01
3.344369178655985375e-01,-1.128713894152387986e+01,3.881320265332843800e-01
3.154282326769895506e-01,-1.122185232859185611e+01,3.525604324583226923e-01
4.325769999121492071e-01,-1.114004349722742049e+01,3.913875047744789781e-01
3.829898770862188440e-01,-1.100140471725590174e+01,4.023358339634792169e-01
3.754621731450806243e-01,-1.101977685420797215e+01,3.937838460432090959e-01
3.723777526878599420e-01,-1.087198225353019154e+01,3.840624159562534556e-01
4.233050421403747876e-01,-1.089566461273939879e+01,4.191734173609653058e-01
3.476118497764429938e-01,-1.089186128039905022e+01,4.592714846261208295e-01
4.421961936455044984e-01,-1.080190610788574901e+01,3.492692309594338518e-01
3.305665126781474616e-01,-1.071835322307713945e+01,3.366425113702496974e-01
3.857755948213260067e-01,-1.065582238137646875e+01,3.631142822857543750e-01
3.910549097899945759e-01,-1.063821514062474449e+01,4.493479967014673004e-01
3.886040187527428080e-01,-1.056557700121536136e+01,4.242765914315059228e-01
4.017827986862958500e-01,-1.042136921011826267e+01,3.460354103998559139e-01
3.963103784227315907e-01,-1.038455524855192103e+01,2.962246430798927688e-01
3.443428419519118378e-01,-1.035939598435038711e+01,4.075790857031013625e-01
3.632005364004842196e-01,-1.025324736523773517e+01,3.364732655021461794e-01
3.437366921843529877e-01,-1.031951521514496051e+01,3.349693091280838697e-01
3.947344631779540758e-01,-1.020464392900648143e+01,3.222279327554437578e-01
3.394770226336026875e-01,-1.015057650480451557e+01,4.475117072301528220e-01
3.701373765419587181e-01,-1.014732015930357711e+01,4.757443015618898485e-01
4.164479207913646674e-01,-9.983145389582720242e+00,3.952440529931114943e-01
4.882727774473931692e-01,-9.978207698823396754e+00,3.023283705501606522e-01
3.967076360060578510e-01,-9.901953765940101349e+00,4.054651176322774386e-01
4.086369375797139214e-01,-9.858239286153985148e+00,4.001323134225189260e-01
3.953639819622804530e-01,-9.840385687150853045e+00,4.432955961560020586e-01
3.634124542577445993e-01,-9.755747407907472635e+00,4.208218881079160978e-01
4.230752641921917689e-01,-9.709423631349675787e+00,3.562694821948573232e-01
3.781163459000909666e-01,-9.684674797546808378e+00,3.640727480900498580e-01
3.886524162341695732e-01,-9.535442641513409257e+00,4.333014915039045678e-01
3.990655645754022096e-01,-9.523997273206481040e+00,4.215222357831136524e-01
3.445591284017534561e-01,-9.379698411645952305e+00,3.438262765096372631e-01
3.648385672460455198e-01,-9.433627209694691373e+00,4.952262222357794452e-01
3.945562938749532234e-01,-9.408893429305043909e+00,3.694971848378186263e-01
4.186437636131707940e-01,-9.343359986503559256e+00,3.821530647869995634e-01
4.073994287559037364e-01,-9.306178109242935648e+00,3.934739827042407212e-01
3.284997287932704957e-01,-9.290428156414845873e+00,3.679300600782448027e-01
3.514770163246030976e-01,-9.196670116283835128e+00,4.172372440991460874e-01
3.896374777388975086e-01,-9.141594283032199897e+00,3.691995348609904415e-01
4.348617953762313748e-01,-9.086003545151818628e+00,4.159833451440539953e-01
4.512023439517917622e-01,-9.021637920589688164e+00,3.894074995244949378e-01
4.176459634628013062e-01,-9.003834696114976666e+00,3.958252118649873696e-01
3.520496352385577565e-01,-8.828569829842052741e+00,4.018495349437179454e-01
4.037057075694497899e-01,-8.893114509055722650e+00,2.725571498741611309e-01
3.935736301573516949e-01,-8.812715516116631065e+00,3.339459113409150581e-01
3.787402059215391747e-01,-8.770618475868850794e+00,3.386670961397758028e-01
4.409330965437335825e-01,-8.655067687802311838e+00,3.394013560220494607e-01
3.630292964668493938e-01,-8.634668085312785735e+00,4.464650352041460990e-01
4.554092128443557597e-01,-8.594122913963131438e+00,4.233826322010391108e-01
4.372148198782370709e-01,-8.622386086522249471e+00,4.712383093054074434e-01
3.820376507878547323e-01,-8.523337050680913407e+00,3.754526634091139847e-01
3.308638806569648705e-01,-8.547595091215569596e+00,4.447254890121390969e-01
3.765784204762602227e-01,-8.443802005084640072e+00,4.118384580705972686e-01
4.453375900387417929e-01,-8.383730930670695969e+00,4.725319049890198686e-01
2.778483542057673117e-01,-8.411876448263749140e+00,4.219638010359146874e-01
3.751527422173207560e-01,-8.328997582983625136e+00,4.604007596953968440e-01
3.988812751171885163e-01,-8.283563861729536626e+00,3.740621844936866114e-01
4.190646223549196470e-01,-8.238600859220150952e+00,3.692797307634498316e-01
4.175595313498414729e-01,-8.235091691219865950e+00,3.982089810760148785e-01
4.021916570016896841e-01,-8.085685021573308262e+00,4.162861273670341311e-01
4.480823335086670522e-01,-8.154443471026356249e+00,4.046120610633625603e-01
4.118840059299885281e-01,-8.030962964319158459e+00,3.410702558996038802e-01
3.886242907473547725e-01,-7.949727900025187033e+00,4.382884932476608375e-01
4.200799886013937834e-01,-7.944014935898381147e+00,3.976676812481440004e-01
4.556667447660106007e-01,-7.947722492087136992e+00,4.428263124303545295e-01
3.981430441495405481e-01,-7.791175962011240408e+00,3.325748449633665338e-01
3.617053174150017258e-01,-7.838113087293605119e+00,4.246953412733702748e-01
3.589696266759622723e-01,-7.740890551014071974e+00,3.776088105849247922e-01
4.112316089744584846e-01,-7.729743327533984854e+00,3.418984248795753911e-01
3.313014473401255655e-01,-7.716539177187282661e+00,4.452449805786123371e-01
3.892205725435158858e-01,-7.703951833478820177e+00,3.744950694021220161e-01
3.709903680010323557e-01,-7.607730418903023484e+00,4.119813797652152609e-01
4.596189826831550973e-01,-7.603825679227133705e+00,4.139689864771016192e-01
4.502884450946627592e-01,-7.550458123320010095e+00,4.167751103595203066e-01
3.643107214598561572e-01,-7.494039637987465419e+00,4.631248885078405042e-01
4.317319893288728005e-01,-7.424676361614984010e+00,3.721434266869995122e-01
4.898374710833401369e-01,-7.397232466513257165e+00,3.996799124236736778e-01
3.710824091152116755e-01,-7.398549295405511650e+00,3.576512482731386000e-01
4.210195500837295990e-01,-7.288345051774420824e+00,4.373545860637215177e-01
3.983133863192800939e-01,-7.217654234679330649e+00,3.848129622113750092e-01
3.747306896997809611e-01,-7.132114124798671462e+00,4.327801955936715905e-01
4.097639859915246374e-01,-7.185832487880588815e+00,3.975701610946884568e-01
4.481194556542831275e-01,-7.119257879856292881e+00,4.236756047780731449e-01
3.541286594014856348e-01,-7.124242142438712122e+00,4.477840098736580732e-01
3.860400760455558467e-01,-7.066292958605915331e+00,3.930793441185854720e-01
4.624081914419832517e-01,-7.038404231493106344e+00,3.985982807192104405e-01
4.041497260460024665e-01,-7.013057054992748895e+00,4.305745661917002587e-01
3.701151668026392838e-01,-6.895451524183418002e+00,3.991160382896983827e-01
4.560914271062134207e-01,-6.861886153170767777e+00,4.286430202556755220e-01
3.826209902590781975e-01,-6.919486108480733755e+00,4.526764453376234121e-01
4.942265817392091365e-01,-6.784890758259702892e+00,4.269526508876774762e-01
3.875871066144399024e-01,-6.795547128834410699e+00,4.354403551444026577e-01
4.113012429824828842e-01,-6.761643495621840749e+00,3.870560513455971741e-01
3.913227079882237724e-01,-6.752242424825132261e+00,3.440325969846206311e-01
3.949181246657280098e-01,-6.706895503210632548e+00,4.994911046321625636e-01
4.017023893437432491e-01,-6.664835274842955570e+00,4.054872840687838709e-01
3.260670468459641591e-01,-6.515021181977709297e+00,4.156357438711428265e-01
4.731515629365312114e-01,-6.571673861277322892e+00,4.086512910129116993e-01
3.509284013318831885e-01,-6.578544461150902301e+00,4.216019730075012406e-01
4.015759110429332757e-01,-6.510916790139636312e+00,4.423864726862031249e-01
4.330755570021760370e-01,-6.391829317434721602e+00,4.113434926600165187e-01
4.923809203155805614e-01,-6.370815191228182961e+00,4.212792589660442899e-01
4.533502609949107143e-01,-6.448241412326648714e+00,4.072590105763011503e-01
4.203074941465448910e-01,-6.340477718136916074e+00,4.109865431692948934e-01
4.233770481133527497e-01,-6.261203945855065456e+00,3.267497239845386647e-01
4.287660067870701086e-01,-6.296287526657906142e+00,4.152368400855127040e-01
4.114347932645873174e-01,-6.211714433091391818e+00,4.070273412382672262e-01
3.437020101033329555e-01,-6.341749915648841274e+00,3.854625368021537546e-01
4.207444575048818192e-01,-6.103368195141028352e+00,3.732152554991922666e-01
3.931343558297039631e-01,-6.132137083703956826e+00,4.638907091581243036e-01
4.329628225460120938e-01,-6.116006418986498439e+00,4.767706023376760416e-01
4.902885316386688119e-01,-6.011908814209728114e+00,4.174585882355012489e-01
5.394909595005414893e-01,-6.047372153444720233e+00,4.556166772434900314e-01
3.682465749686869572e-01,-6.033754792845356540e+00,4.724477257341754832e-01
5.361724294304383021e-01,-5.858150405397895888e+00,4.051152494048503305e-01
4.338514805214155889e-01,-5.860018351295743777e+00,4.778686700707535095e-01
4.298290267548307564e-01,-5.867379725632682508e+00,4.371839578455368747e-01
4.750027280367395965e-01,-5.878534521061107299e+00,3.672343818859964970e-01
3.891440201815846156e-01,-5.832185102086093309e+00,4.284313093056801858e-01
4.869157377734420478e-01,-5.820264456559644195e+00,4.466588328816304410e-01
5.110967687907770340e-01,-5.768342364051491700e+00,4.629669390857245048e-01
4.344496807558081986e-01,-5.760378583415424636e+00,4.408983797807443095e-01
4.872826782193568906e-01,-5.695753443785450898e+00,4.443738150659098940e-01
3.287541327445267503e-01,-5.722392549460212585e+00,4.165457208841762959e-01
4.626540066891449143e-01,-5.639535075810917064e+00,4.416830096642153647e-01
3.288503550874027348e-01,-5.617015001278482522e+00,4.697603476234772923e-01
4.802926365372318651e-01,-5.621066871201916726e+00,4.186918867580146641e-01
4.440754441311679512e-01,-5.510548673066443470e+00,4.331906492387436192e-01
4.288273799134708630e-01,-5.477821303989139246e+00,4.735391634662484694e-01
4.125993026196493885e-01,-5.437112787661519953e+00,4.364730279213449582e-01
3.792408876048161126e-01,-5.413204276851453223e+00,3.776256431536632041e-01
4.175461476086980150e-01,-5.369757645895899323e+00,4.879797274549841357e-01
4.120742481461897033e-01,-5.335516927851734259e+00,3.691104640201161580e-01
4.319785391190562596e-01,-5.361087152573986714e+00,4.219120639140932494e-01
3.910727303161070090e-01,-5.269158611757776001e+00,3.732708098756006843e-01
4.209514274158313585e-01,-5.255995294590931621e+00,4.657174022712189942e-01
3.746801171719772450e-01,-5.258095640226353673e+00,4.581214951217396636e-01
4.099631696167724826e-01,-5.183475449840399207e+00,4.024835050497681532e-01
3.695848666643506975e-01,-5.119789358768534804e+00,4.211812675432621278e-01
4.553488669347278694e-01,-5.156621003513208734e+00,4.491676240983965562e-01
4.004347899451173864e-01,-5.130760740855383695e+00,4.465315623576893711e-01
4.357262880643776315e-01,-5.055140684110485338e+00,4.002621521352067724e-01
4.096112926143100075e-01,-5.095157403159523035e+00,4.291764158413606811e-01
4.405793780119425795e-01,-5.101742593577669460e+00,3.662144421212925050e-01
4.008607689078840797e-01,-4.974068558063017953e+00,4.331639045682164624e-01
3.913516233406026390e-01,-4.989350100795089560e+00,5.003271671454271319e-01
4.835690853209682616e-01,-4.913048287029927685e+00,3.835684615280710585e-01
3.979294139352613224e-01,-4.961437382006084640e+00,4.707789761921173377e-01
5.006040635705696351e-01,-4.969493451974735798e+00,4.641563151419629829e-01
4.786894146066302258e-01,-4.847160443680475161e+00,4.820372908074665452e-01
5.048234464014246248e-01,-4.897759181827950670e+00,3.487770332180837873e-01
4.778133924785555320e-01,-4.784991589340049423e+00,4.516726826369384384e-01
4.956000074766750418e-01,-4.762407305458937756e+00,4.573222362398106089e-01
4.341286684278020114e-01,-4.729411511399564283e+00,4.861559954243529491e-01
4.295244648460712078e-01,-4.768444083231377917e+00,5.146729624338352016e-01
4.650665900243161621e-01,-4.638840560543434854e+00,4.181580899928628581e-01
4.940818319267831771e-01,-4.719096943364621488e+00,4.390097492582608063e-01
4.257700860086142680e-01,-4.633890412769024358e+00,4.567072170564467348e-01
3.900857758121229479e-01,-4.613357913903054275e+00,4.087097737472716319e-01
4.551147746999263943e-01,-4.540420911728248576e+00,4.234263670109928435e-01
4.274872604416781741e-01,-4.562817812122932359e+00,4.778390550412695559e-01
4.732720955630673743e-01,-4.538046271807441912e+00,5.401641317169019185e-01
4.843828231236265158e-01,-4.522888119360903403e+00,4.389861813132940327e-01
4.980039251653718413e-01,-4.455000827788624385e+00,4.961228492944361190e-01
3.819412660628669354e-01,-4.430423737928578909e+00,4.314393846753749595e-01
4.664618893126248889e-01,-4.442139009663392812e+00,4.300918923472481503e-01
4.397817715229079827e-01,-4.395970063309075471e+00,4.345995987202920796e-01
4.693695082844573374e-01,-4.356296597090379308e+00,4.254084184486002229e-01
3.931447107786739115e-01,-4.375555631693554659e+00,4.261572152554003456e-01
4.584421425148999529e-01,-4.342977512677864027e+00,4.093867831720552908e-01
4.362618284130568291e-01,-4.296769521814677972e+00,5.160692909115730531e-01
4.089474011072110615e-01,-4.245483748612795871e+00,4.343104009284046163e-01
4.467522744175468352e-01,-4.260980705510938549e+00,4.895020058186648759e-01
4.832190279926045218e-01,-4.245241708247869283e+00,4.677980945098457743e-01
4.391620463880727687e-01,-4.180958471760641615e+00,5.324197855003606206e-01
3.721560294955877368e-01,-4.166462872606140344e+00,4.745932389810160745e-01
5.125712840199339038e-01,-4.183255041176368927e+00,4.228508535755592934e-01
4.852633797733921783e-01,-4.131921736626572361e+00,4.699225837143383155e-01
3.919083368793137567e-01,-4.069292645297061028e+00,4.692294363533778823e-01
4.357445874216675508e-01,-4.021658277294602790e+00,4.451211082128160856e-01
4.978605102921346282e-01,-4.085427857516260808e+00,4.434488959651594064e-01
4.842867361410340687e-01,-4.054609742037652786e+00,4.025756292406741932e-01
4.885462430878299567e-01,-3.967431310602114625e+00,4.562747073252590435e-01
4.002799307334293233e-01,-3.939933764213926271e+00,5.003621427676668842e-01
4.421498281082107962e-01,-4.008655380049269468e+00,4.864908564871666119e-01
4.014782316598272116e-01,-3.936459752079682239e+00,4.796344454512920796e-01
5.000940910620246260e-01,-3.926693969179807731e+00,4.487513845863444484e-01
4.189703096911746583e-01,-3.934329554601190271e+00,4.359495732188433670e-01
4.782625225435533922e-01,-3.915051825113566419e+00,4.957814388818884144e-01
4.789956843689001098e-01,-3.918450145920099548e+00,3.968859046827193926e-01
4.694174279150997164e-01,-3.812399107405727516e+00,5.128314168861790590e-01
4.266183791368240441e-01,-3.745587353118656981e+00,4.331135684315039480e-01
5.121712919720697865e-01,-3.787433832860824356e+00,4.199272126414544948e-01
5.361373182655222447e-01,-3.813564674816883215e+00,4.578159821546335384e-01
4.207475430546681050e-01,-3.679851615275297583e+00,4.637909218025768610e-01
4.788822201704848736e-01,-3.738344993500446911e+00,4.465351119324670326e-01
4.454001538470918065e-01,-3.729599838328698791e+00,4.468375637768207120e-01
5.539957671234303493e-01,-3.761592503496439477e+00,4.887277311081267839e-01
4.919359935971769349e-01,-3.628581615248297698e+00,5.075784737116653123e-01
5.108699167406041131e-01,-3.661496629907350808e+00,4.719298820969400898e-01
4.374462808196230568e-01,-3.617646028717383277e+00,3.965260198716221152e-01
4.626177459164470540e-01,-3.582787753378674278e+00,4.453900383954457198e-01
5.330751795847438190e-01,-3.562695528313150728e+00,4.751758691027156423e-01
4.593468358343764657e-01,-3.505708791929454282e+00,4.560486702786561986e-01
4.156537123043398396e-01,-3.574277312862433664e+00,5.044885716188977076e-01
4.029622958691272405e-01,-3.521551336543099708e+00,4.292455216199104195e-01
4.997363487745933863e-01,-3.506517224942384381e+00,4.460972210334230303e-01
4.112140532137105176e-01,-3.467988225689325965e+00,4.476704999734648083e-01
4.487053189691014854e-01,-3.449336092562281131e+00,4.472565077851587967e-01
4.052789117274037123e-01,-3.423698363164794589e+00,4.620334302587279507e-01
3.895016305543522184e-01,-3.481414034578699912e+00,4.392850935970541992e-01
4.324618395416266470e-01,-3.338147100766347464e+00,4.450601564726795467e-01
5.174939021026375707e-01,-3.355131791479023295e+00,4.623286773471785849e-01
4.103151291331385564e-01,-3.404552291539294728e+00,4.396451846905530259e-01
4.229783457351137810e-01,-3.371309659128828962e+00,4.594257902320478260e-01
4.461560520920735962e-01,-3.264362631582954144e+00,4.701209936396680278e-01
4.825890858264842431e-01,-3.240835179132207422e+00,5.202255289909359925e-01
4.293829981016029640e-01,-3.345696490925777589e+00,4.947980821662425477e-01
5.438216886398916650e-01,-3.214696220288756123e+00,4.010348689854429383e-01
4.733832358482257807e-01,-3.206465459992026812e+00,4.517984298066695104e-01
5.577385992898298284e-01,-3.150424999636919132e+00,4.887923684441643490e-01
4.456508592827995163e-01,-3.246546456895520905e+00,4.940792436520298203e-01
4.106739764653880576e-01,-3.176977450827317195e+00,4.787761783696231621e-01
5.222942563145055450e-01,-3.123098994392428995e+00,4.221606806242921839e-01
4.715548023240849762e-01,-3.071722251234166201e+00,5.206813692182628017e-01
4.351326919818251926e-01,-3.091230305133049860e+00,4.369157648295381446e-01
3.993309425970365534e-01,-3.109347853998349009e+00,4.263555522381897722e-01
4.983442136144893841e-01,-3.043826559079235050e+00,3.629535571433206154e-01
5.232525035203603458e-01,-3.044743175829689452e+00,4.515352823063634724e-01
4.260280470704659317e-01,-3.030484525910550619e+00,3.538369248641622944e-01
5.281536987921514603e-01,-3.014784468724392763e+00,5.396511960947238951e-01
5.260813298801170212e-01,-3.004402622257867694e+00,4.902021192674786976e-01
4.178968635802348675e-01,-2.979447647868389115e+00,4.224844798516967925e-01
5.398545252118470694e-01,-3.008996441984653991e+00,4.474950210337053647e-01
4.788395059186416058e-01,-2.896860358338624764e+00,5.599691677056601868e-01
5.120194738195512629e-01,-2.858897532185718848e+00,3.674917389393796419e-01
4.319970055723289515e-01,-2.874675048167137703e+00,4.641958998531842129e-01
4.488851906970111050e-01,-2.862779056408814693e+00,4.619611396753633970e-01
4.855453988237547480e-01,-2.874809595284854691e+00,4.495696582288706833e-01
4.790054104582935901e-01,-2.819680160458542417e+00,4.361915619042850967e-01
4.503191974546403853e-01,-2.797838551970249998e+00,5.333914040397089718e-01
4.708077223221275864e-01,-2.800387896600689874e+00,4.846152411215899902e-01
3.906710394468687619e-01,-2.821320275535381228e+00,4.825977773029863083e-01
4.429594223828258737e-01,-2.831712761126790046e+00,5.026731240091548703e-01
4.654528110315349632e-01,-2.785929221103732534e+00,4.835545858688712340e-01
4.115850291562063168e-01,-2.696361698887137504e+00,4.685355561067398034e-01
4.555337637176711807e-01,-2.678324113900312220e+00,4.831620661613811318e-01
5.122791216777848877e-01,-2.687624116581221134e+00,4.314256389821203852e-01
4.504756716399458960e-01,-2.705411382190079816e+00,3.361176192050822076e-01
4.182259785232722571e-01,-2.666651385443167044e+00,4.088987422825048901e-01
4.766726928572030952e-01,-2.705423383703422946e+00,4.214546074104522089e-01
4.942122164070262835e-01,-2.667590786800715374e+00,4.972738592961946646e-01
4.700520749598110504e-01,-2.643306878088127920e+00,4.502899476848166160e-01
5.257038159305027492e-01,-2.582408362238176380e+00,4.569913643097363587e-01
4.750608191663876489e-01,-2.600534967520182761e+00,4.812775849985159171e-01
4.347912012930868486e-01,-2.628257586645893262e+00,3.978546842694801189e-01
4.475933860509235807e-01,-2.556440907890297876e+00,4.877752548641913211e-01
4.512270766626153007e-01,-2.569311863050109057e+00,5.358589490066512084e-01
4.914208904889411089e-01,-2.485291821066839102e+00,4.660785651608854718e-01
4.923051187411640606e-01,-2.572407336781238119e+00,4.965124364570925319e-01
4.763539550425083258e-01,-2.548341791624801012e+00,5.044692196604154688e-01
4.769259227137829793e-01,-2.466261435763931420e+00,4.440039033744557773e-01
4.927431561342214272e-01,-2.507907459206114353e+00,4.002987021014378088e-01
4.291305049640395386e-01,-2.511073357719597610e+00,4.872738886046231177e-01
4.703719799832683512e-01,-2.470876218611477437e+00,5.651454962626419887e-01
4.994611575957964567e-01,-2.419022341194749348e+00,4.393935510954702361e-01
4.702615937294000181e-01,-2.431638330676034521e+00,4.808192737573413478e-01
4.744935690098538439e-01,-2.382442756967382280e+00,5.172534069029384174e-01
4.465568959414189520e-01,-2.414804450924853629e+00,3.890757471140561807e-01
4.503864824341033968e-01,-2.344911792881024137e+00,3.623860086247923662e-01
4.867019298565217755e-01,-2.359673893347392859e+00,4.353419732347348359e-01
5.430656932527127001e-01,-2.340448303703394739e+00,4.568450697144390560e-01
4.345555801148303643e-01,-2.302640133183774029e+00,5.419268126970218091e-01
4.312099903728870975e-01,-2.260651054880893795e+00,3.828209015913720537e-01
4.764435707341255211e-01,-2.271429763600404161e+00,5.175254137320319803e-01
4.455597752458336780e-01,-2.233334560611610176e+00,4.772002831502059617e-01
5.099295293007708452e-01,-2.185787087768048309e+00,5.253152295394587501e-01
4.677146532919722044e-01,-2.299474202062437467e+00,4.354781477009462276e-01
4.605930548097801891e-01,-2.230639973722472469e+00,4.612785134188063241e-01
3.797468457010063081e-01,-2.153593691617102568e+00,4.896971495699656285e-01
4.743624415536790151e-01,-2.219020128248038404e+00,4.057431690820707537e-01
5.426612629675278132e-01,-2.191775330561736457e+00,3.511175495362438004e-01
4.425797969908031315e-01,-2.140016590321358159e+00,5.012772512562774230e-01
4.418188435575873263e-01,-2.079288050562339674e+00,4.863835676356184079e-01
4.515192589484171570e-01,-2.161640605167082008e+00,3.843242183468281170e-01
4.415528872411386696e-01,-2.180515680902328057e+00,5.102752943299753152e-01
4.917736492507109869e-01,-2.175860650122328099e+00,4.577417700208134543e-01
4.872133000934364411e-01,-2.035684459764413479e+00,4.896710610295745836e-01
5.362621865278399680e-01,-2.175842727608791272e+00,4.879124699709533886e-01
5.072696688920514951e-01,-2.073953140948255225e+00,5.024627592545851673e-01
4.649155216670066149e-01,-2.135593102336561966e+00,5.071028246050071076e-01
4.170923494302451462e-01,-2.009968283909874032e+00,3.994349332041229328e-01
4.624016884473453604e-01,-2.000801368766313537e+00,4.610316634257973223e-01
4.564934658571042081e-01,-1.972233407459729193e+00,5.580765870801378536e-01
5.730548264196084762e-01,-2.016366864351058830e+00,4.546462684123975806e-01
4.918281370860811963e-01,-1.966463730525691123e+00,5.362191751694052044e-01
4.539326888917849523e-01,-1.984612145741067257e+00,3.749028293832374903e-01
4.108648276385318820e-01,-1.916146236939962000e+00,4.837637489677739655e-01
5.175672783392490928e-01,-1.874395827606622378e+00,4.948935683046469802e-01
5.055444725753924784e-01,-1.907754104346442769e+00,4.319675981244694429e-01
5.082467391191602957e-01,-1.937290666772568892e+00,4.897803426712393216e-01
4.766826935830614786e-01,-1.824170185050576043e+00,4.749218671913161272e-01
5.161273315206987844e-01,-1.898560436599323609e+00,3.983605045570139946e-01
3.868500111105916406e-01,-1.905171501113921639e+00,3.946002572204322378e-01
5.203727819473170646e-01,-1.856967767745580034e+00,4.734331215550346417e-01
4.622001914286562041e-01,-1.920031691553581554e+00,5.368076177479501609e-01
4.031735316147095904e-01,-1.813897091348783519e+00,4.916294246983837213e-01
4.569505718939270156e-01,-1.818983993153748147e+00,4.792446952772083657e-01
4.752277811766833504e-01,-1.845983368011680170e+00,4.965987787910057794e-01
4.555491212399227496e-01,-1.858175964504193312e+00,4.451841606997394285e-01
4.423034449647658128e-01,-1.806995241403305030e+00,5.255548120403618073e-01
4.068986044914721378e-01,-1.885520920321944960e+00,5.433260169298033126e-01
5.254904890846137100e-01,-1.785239815192782631e+00,5.002901623785070973e-01
4.761738629099369624e-01,-1.751159698362310335e+00,5.187778806198348747e-01
4.518242856138723340e-01,-1.723778060047220340e+00,4.617590743743270609e-01
4.212351206341946597e-01,-1.750393500130190239e+00,4.869431910342298941e-01
4.848034681064310458e-01,-1.707705856751827511e+00,5.522453676767962172e-01
4.467824727464208556e-01,-1.637745470379293744e+00,5.174627213696610939e-01
4.202029076849202460e-01,-1.724302914675446052e+00,4.356670628559037306e-01
4.221472694001191517e-01,-1.641602066802174242e+00,4.408711624948460917e-01
4.198454219261791853e-01,-1.688615826045450241e+00,4.587782450432861814e-01
4.514832679523054226e-01,-1.756214756130973109e+00,4.957095614139935269e-01
4.191040773813681231e-01,-1.640740908123202724e+00,4.437923881812736449e-01
4.361344183208372693e-01,-1.632206006817980004e+00,4.059813702335245966e-01
4.559500662979906194e-01,-1.687112773990595338e+00,4.432586664305136481e-01
4.605968353287321349e-01,-1.626765843534429434e+00,5.096219805417584459e-01
4.475365849411299668e-01,-1.652972500984224213e+00,4.486013206686223498e-01
4.636229959363579733e-01,-1.573967144572074206e+00,3.958928390888444837e-01
4.982259238190256956e-01,-1.585367713648984100e+00,5.409201698441105099e-01
4.608813353535378687e-01,-1.580723261891233244e+00,5.346321604769324054e-01
4.797159381159976088e-01,-1.581900081084954834e+00,4.466678401639835316e-01
5.230873669993796327e-01,-1.569229513543788146e+00,4.440437867642095249e-01
5.186605625922027230e-01,-1.498660297984914846e+00,4.413559348165645990e-01
4.652948619164583022e-01,-1.537933556714277117e+00,4.360988293374173930e-01
4.593811030664665673e-01,-1.563482279071562564e+00,5.460966786002184881e-01
4.599283961240118179e-01,-1.608965435328115090e+00,4.090816888694763231e-01
5.412935288150808599e-01,-1.566765991640286959e+00,5.105769944188169873e-01
4.697903111609517124e-01,-1.475031215925060257e+00,4.957726039677953223e-01
4.122396667337427378e-01,-1.457255606561579375e+00,5.128459838962899919e-01
4.310709788368015660e-01,-1.475363068845920944e+00,4.637663889776789117e-01
3.475775377964591684e-01,-1.464078517225019249e+00,5.656037839475044349e-01
5.318863464742923375e-01,-1.463475018037474040e+00,5.048131017524029041e-01
4.991563604815416610e-01,-1.456345456332550858e+00,4.919843362569911727e-01
4.846246630954331724e-01,-1.452036134268918532e+00,4.324731726756034789e-01
4.715598737506960791e-01,-1.428950428181405385e+00,4.826351294853990503e-01
3.697998504246698404e-01,-1.412435599114262308e+00,4.498286612409566065e-01
4.043754235913156747e-01,-1.267339706967706592e+00,5.109968761779832835e-01
5.177828731874178914e-01,-1.450290884056310681e+00,5.072962759525189158e-01
5.181518516563752286e-01,-1.419741783052046680e+00,5.196141142213642761e-01
5.844182903413406294e-01,-1.363737972847951063e+00,4.705774606418184902e-01
5.978672887301437200e-01,-1.340303529059957421e+00,5.457953808686357711e-01
5.281074176879270166e-01,-1.329324237603093373e+00,4.108229294665196596e-01
5.095313175249055471e-01,-1.389181041589195198e+00,4.475939177553049930e-01
5.195967951028502840e-01,-1.333153980330628707e+00,4.526424982039803924e-01
4.765595586722804478e-01,-1.317100906767934676e+00,4.637673666814162710e-01
5.227606113875618021e-01,-1.384736117431581981e+00,5.302578392557960596e-01
4.685112371987624758e-01,-1.338209015147439507e+00,3.935573371512993135e-01
5.076872514429325856e-01,-1.330582203168424460e+00,5.596825122590987078e-01
4.996024856202387898e-01,-1.279645362073851711e+00,5.116440352265270164e-01
4.975303224653682688e-01,-1.271369756989973787e+00,4.825514158391903674e-01
4.748259754089225182e-01,-1.306573117125772621e+00,4.637574913596405612e-01
5.567228865617802613e-01,-1.224665622718650315e+00,5.671538261837284489e-01
5.339441109895591842e-01,-1.246224124949200984e+00,5.222667229005292233e-01
4.204348059297290940e-01,-1.233683123435671547e+00,5.348545647271351067e-01
4.962034595997624753e-01,-1.190422146388210534e+00,4.621046715141300387e-01
5.120116608653980661e-01,-1.306050751365971596e+00,3.825111264526966370e-01
5.174095640614255753e-01,-1.219518213279368934e+00,4.733226787462679330e-01
4.672882221315532436e-01,-1.243267834529443006e+00,4.030002548960916475e-01
3.904802396855329150e-01,-1.229338008792418613e+00,4.361566009855780690e-01
4.708970103596042955e-01,-1.173770833987712203e+00,4.796422076810606949e-01
4.506247421094584094e-01,-1.108654861286617610e+00,5.362512486652042387e-01
4.881588875985090614e-01,-1.141735021532178651e+00,4.729932883893024353e-01
5.084255438938439786e-01,-1.085697892006088905e+00,5.461035538152445579e-01
4.435083198048631603e-01,-1.101105567037555577e+00,5.447419939275855993e-01
4.415953984283648159e-01,-1.074057524496949689e+00,4.958692993645918423e-01
4.308313276063189812e-01,-1.152686815545381327e+00,5.357530775570772397e-01
4.948586904216487614e-01,-1.057371455789600789e+00,4.745136642274836447e-01
5.700366276939549115e-01,-1.039603203922377483e+00,4.557105565998548768e-01
4.372218527725133530e-01,-1.172460870138154920e+00,4.810763068388216324e-01
4.014031874678360978e-01,-1.123335866940099459e+00,4.932980669837186971e-01
4.851540258084011126e-01,-1.079168488218992028e+00,5.393557837225730900e-01
5.200024711716919601e-01,-1.025602331594970051e+00,4.967175841609717257e-01
4.866382256783728932e-01,-1.107821346087338732e+00,4.652310227973838197e-01
4.983287121805677344e-01,-1.105043922413053936e+00,5.344346324527839975e-01
5.098825263436134181e-01,-1.140535232813916000e+00,4.785893898884912012e-01
5.370737157992974131e-01,-1.098118106054234655e+00,4.514912757149995848e-01
4.811353731870963157e-01,-1.066609926639323636e+00,4.726571529370774960e-01
4.785467221496048085e-01,-1.053116772784465693e+00,4.476161476235211434e-01
4.579234212413818561e-01,-9.925152269432037100e-01,4.615033929251584066e-01
4.148169103903351362e-01,-1.012420703302685743e+00,5.324721449109357518e-01
4.755119996115974024e-01,-1.016988149041475165e+00,5.058987214210310945e-01
4.851814706679982714e-01,-1.050193526401350885e+00,4.975949374233752942e-01
4.594817811785751327e-01,-1.088759157206143913e+00,5.659587171853133203e-01
4.877313284643713942e-01,-9.586583678279637644e-01,5.405556711021550775e-01
5.170267203842415782e-01,-9.325135809888518423e-01,4.683537797183304763e-01
4.438153795818950975e-01,-9.132823308321483813e-01,4.626608995409347558e-01
5.361266072341147604e-01,-9.554457073071118689e-01,4.969054802446417063e-01
4.347676929593263795e-01,-9.415935559743202621e-01,5.155541330300197345e-01
4.331316812021770990e-01,-9.458347441563259572e-01,5.192125144192167863e-01
4.773483163910479110e-01,-9.632845772199289947e-01,5.415866368345596538e-01
4.444205433479909706e-01,-8.248673947141541563e-01,5.021179094650704000e-01
4.799863466350408059e-01,-9.336956238116015383e-01,4.693420460322607624e-01
4.677490632296182893e-01,-9.572003412614695783e-01,4.962574778969600642e-01
5.021157622122851549e-01,-8.330423330814963334e-01,4.761324563829951728e-01
4.964617101287188139e-01,-9.022629941549935584e-01,5.474545252910397730e-01
4.660681563146951700e-01,-9.795962362122923039e-01,4.856551245391872995e-01
4.967197240405540337e-01,-8.464397970738808397e-01,4.707041739205958253e-01
5.311064574293817842e-01,-8.767988517178603169e-01,4.920557798913623437e-01
5.484244439995398235e-01,-8.673841169795856176e-01,5.220556876150506120e-01
4.487192830160286472e-01,-8.546939683789669395e-01,4.983781091238607686e-01
5.088616472589353457e-01,-9.239589971958327430e-01,4.755449041697804025e-01
4.692174355202083924e-01,-9.031681418811002837e-01,5.089355115329359247e-01
4.855038003009503056e-01,-8.924996722222469092e-01,5.975921713016156822e-01
5.106280546413695109e-01,-8.020326383706238849e-01,5.401279984379576682e-01
4.785716272262524607e-01,-8.529207689639241030e-01,4.733557096713469359e-01
4.985957413698000606e-01,-7.938913793875664870e-01,5.240461967007581379e-01
4.976681988717074345e-01,-7.360510884322788439e-01,5.209767720250596534e-01
4.728349305518629864e-01,-8.015473525917337083e-01,4.523896173325382408e-01
4.701862308898046017e-01,-8.276597174060761342e-01,4.409059533147633436e-01
4.166445198397800143e-01,-8.394482593338927767e-01,5.083226653023183994e-01
5.515456986882970591e-01,-8.528380992059884091e-01,5.012568033483539853e-01
4.975527127017572160e-01,-7.744274272215662114e-01,5.267202889896233087e-01
5.009223659795078998e-01,-7.192101233449199604e-01,5.418310051424197749e-01
5.586810613316349761e-01,-7.525975459111327037e-01,4.954726081568611162e-01
5.303081726963906339e-01,-6.667151458477386106e-01,4.305669556569646228e-01
5.086272176940075385e-01,-7.846652737473839290e-01,4.593165895626589168e-01
4.811273432916007287e-01,-7.191535336870957806e-01,4.736210344223082958e-01
5.300545888096013236e-01,-7.478289525848444974e-01,4.451645757618887811e-01
4.304860066433072729e-01,-7.779931681211561534e-01,4.355330901970624335e-01
4.731334485566856540e-01,-7.999629898620321811e-01,4.591101070576306120e-01
3.744600431277102515e-01,-7.469981804855131413e-01,4.631613065446250066e-01
4.100560649940289126e-01,-7.643254890708554017e-01,5.049138122456207078e-01
5.720254783908517160e-01,-6.942700678030605532e-01,4.824002558281906272e-01
4.890442311810475617e-01,-7.055619106955111075e-01,5.110755289095297860e-01
5.221676738303447918e-01,-6.497999461187961012e-01,4.672105099432582453e-01
4.813556401338654478e-01,-7.407238626997633135e-01,4.042643835172829991e-01
5.692851662744951025e-01,-7.374902999512122914e-01,5.060817938931674309e-01
5.068050474662451066e-01,-6.835056425190348950e-01,5.266881515989834117e-01
4.777466469819933170e-01,-6.946639888785648420e-01,5.080131318562025600e-01
4.628253293303259408e-01,-5.932049484847191634e-01,5.024596292464612590e-01
5.650204505263064503e-01,-6.229906200069693645e-01,4.651530133838667758e-01
5.217468197730571466e-01,-6.717786708859493361e-01,5.521230130217168464e-01
4.634124783003480963e-01,-6.523676688781766542e-01,4.941140060450976423e-01
5.267352188201980256e-01,-6.215971651522519403e-01,4.705985458520061115e-01
4.145654802264185368e-01,-6.659552808940685242e-01,4.188537728843493846e-01
4.910083839093653535e-01,-6.257222717064455653e-01,4.952255221577951949e-01
4.501109655633537265e-01,-6.274139374322659224e-01,5.084847773705450935e-01
5.206503954470306228e-01,-6.532868136410435733e-01,4.839850479736251820e-01
4.901231267420610993e-01,-6.200787433646227642e-01,4.913017091889281263e-01
5.143258678005929729e-01,-6.728941788660738332e-01,5.120234772615100960e-01
5.536812821711130095e-01,-6.660643705722680830e-01,4.940076662862397106e-01
4.506150464370239916e-01,-6.423444245114607876e-01,5.253933174460814204e-01
5.151739105558891252e-01,-5.957554275712254599e-01,4.574704359051670610e-01
5.267589987484239122e-01,-6.129320666387689798e-01,4.255930730062472134e-01
5.445498357207819717e-01,-5.674992869162818199e-01,4.426612745783060077e-01
5.012085861493978944e-01,-5.984888519043306543e-01,4.833170066492866734e-01
5.540309028259772228e-01,-5.460925830117749902e-01,5.107813570991727170e-01
4.850107164717402664e-01,-5.542383835232200795e-01,5.425298191472702758e-01
4.536708259091155604e-01,-5.068306789903637144e-01,4.958262999909727742e-01
4.356958491666205746e-01,-5.207165457567507483e-01,4.688284000329977497e-01
4.699089227352556408e-01,-5.554504576878565025e-01,4.950105879959129651e-01
4.783673762454129785e-01,-6.266738488067885582e-01,5.197468569561380924e-01
4.888926684461114558e-01,-4.817635170074119344e-01,4.857002376952451184e-01
4.409890287538495990e-01,-5.111250317908913043e-01,4.778727969718451485e-01
5.084240100271251173e-01,-5.249353683747886024e-01,4.327531823995821036e-01
4.432036632065108894e-01,-4.994700212238772363e-01,4.574286653818946391e-01
5.076301654274616437e-01,-4.385183126602295589e-01,4.314888555025209738e-01
4.675271297436983664e-01,-5.524820219122530407e-01,5.183564696378776260e-01
5.170419479679212449e-01,-5.380593163373578180e-01,4.896634789988801306e-01
4.332492986141914248e-01,-4.504504753570451325e-01,4.619173129171779690e-01
5.405842433553063042e-01,-4.563269111499562714e-01,4.889701863297641893e-01
4.914245460094844309e-01,-5.221492349809118139e-01,4.910677252082723543e-01
5.247871543456726906e-01,-4.690014680453620799e-01,4.689448371674179716e-01
5.014162795205164835e-01,-4.945462678230198028e-01,4.614459140616696819e-01
4.417138189367813550e-01,-4.468307775658791337e-01,5.137444444214070982e-01
4.250195181184264204e-01,-4.062732864351776829e-01,4.672076547591964557e-01
5.219529736891181937e-01,-4.405635063489832803e-01,5.149698290684860957e-01
4.891135606129557445e-01,-4.838147848680954821e-01,5.047140642365796070e-01
4.670036413773324124e-01,-4.934282337791005557e-01,4.836095267726566727e-01
5.051239404374429087e-01,-4.603977861996224608e-01,4.684176376788246610e-01
5.483315405302544576e-01,-4.290713700484903859e-01,4.445175477238393347e-01
5.290601357508634139e-01,-4.505232628336994782e-01,4.795329342813721696e-01
4.981178006372586342e-01,-3.901278280986297253e-01,4.271593086843967768e-01
5.883855087479273882e-01,-3.708674738467955811e-01,5.373423954162561689e-01
5.214879758630869278e-01,-4.999060828229170972e-01,4.969843042736294403e-01
4.450827783326865572e-01,-4.436958601578734340e-01,5.219606844893894815e-01
4.822187159533681267e-01,-4.296857578124919086e-01,5.010746397451706358e-01
4.691771401563696320e-01,-4.397098155078616455e-01,4.885454539620381897e-01
4.711118519802741100e-01,-3.646972623652152690e-01,5.375353452866699078e-01
4.303455512210315748e-01,-4.359416082449635299e-01,4.337298297929676472e-01
5.094776459056644669e-01,-3.979366166172845776e-01,4.637301867949105705e-01
5.411183171926651214e-01,-4.651851701638660130e-01,4.802525489404023684e-01
4.475621801395060495e-01,-3.469334597037843637e-01,4.848704485581736279e-01
4.580093328180898093e-01,-4.658357994371862265e-01,4.629260949035257089e-01
3.767858188191172686e-01,-2.428530955967863336e-01,5.658846699215910325e-01
5.359864451324444223e-01,-3.832004962623797306e-01,4.521538052220865911e-01
5.078229588836858932e-01,-3.461132506525111396e-01,4.899537435517014594e-01
4.976599325701404619e-01,-3.580891663420471271e-01,5.143313995137220873e-01
4.681698930036102824e-01,-3.520206305973098138e-01,4.510343310733870847e-01
4.144348242254984882e-01,-3.427405781996563650e-01,5.035473324428476616e-01
4.667099185793482929e-01,-3.086705860549882607e-01,4.753701573772281530e-01
4.793361987973604466e-01,-3.372513163900043853e-01,4.892672668069855679e-01
4.949481183339637380e-01,-3.155310385762271630e-01,4.715672455507676775e-01
4.304419302899186728e-01,-3.664103635166139350e-01,5.214444867141244666e-01
5.034619300273650566e-01,-2.886756460428777094e-01,3.841649254286308990e-01
4.420357413338136809e-01,-3.481721702182896672e-01,4.519121673648165416e-01
4.802687826082898126e-01,-3.806641833042283540e-01,4.331476667121422208e-01
4.474009400767484657e-01,-3.675781923974000276e-01,5.128636401503797737e-01
4.563587032498893636e-01,-2.858340409939883475e-01,6.094805676320339538e-01
4.969812440731424807e-01,-3.019928729501146769e-01,5.154500625182398821e-01
4.909373358508379859e-01,-3.016097110938214532e-01,5.334958499654222086e-01
4.394504711989764001e-01,-2.905557989918890471e-01,4.698663182581864772e-01
4.067608104595515917e-01,-2.564840673510968561e-01,4.746417803231848809e-01
4.885594079262604583e-01,-3.295257312773319236e-01,4.128289030366653622e-01
4.731753138004841097e-01,-2.587867113964392729e-01,4.246084681949971462e-01
5.041312178078409811e-01,-3.262332613016797889e-01,4.855319234946299245e-01
4.343455313672648366e-01,-2.346997858172178431e-01,4.539274182599407070e-01
4.995399941192920079e-01,-3.434218972676440496e-01,5.286403470991537512e-01
4.609692780123488820e-01,-3.233653785213503884e-01,4.716732382906182464e-01
5.068065737222648970e-01,-2.902838005125344401e-01,5.314110644465723787e-01
4.797555991175070367e-01,-3.154624039789070133e-01,5.002971150054831284e-01
4.544550414985242814e-01,-2.368294335412343687e-01,5.028486521276400723e-01
5.511460589616231642e-01,-2.984705389453404245e-01,5.136939249479587355e-01
4.064115551205774168e-01,-2.646625375049633244e-01,5.430605843234234120e-01
4.899546969760741333e-01,-1.706399152078816039e-01,5.196049614532958216e-01
4.816580419822414916e-01,-2.663084576949482640e-01,5.037617430529439666e-01
5.500005127144691475e-01,-2.629392965619939404e-01,4.908129233655800783e-01
5.335801479470148045e-01,-1.875118319887482399e-01,4.943631284643760782e-01
4.857732396710703338e-01,-2.024817148989093984e-01,5.130058227548881522e-01
4.990001850369905623e-01,-2.606158365895207552e-01,4.790138655268157408e-01
5.416707657365321671e-01,-2.107478547781717892e-01,4.888918596980625919e-01
5.378935438748403408e-01,-2.608761966074719107e-01,4.859285630993951388e-01
5.080792477546890451e-01,-2.538819328731920510e-01,4.884249710143180878e-01
4.336835046026114027e-01,-1.981216856392745140e-01,4.380481835722466188e-01
4.830869114423350652e-01,-2.247229995841597827e-01,4.676064797381562776e-01
4.965089801736248809e-01,-1.357720887057372594e-01,4.395129750209320063e-01
4.786970164287288054e-01,-1.238913729493210381e-01,4.968227070168411696e-01
4.552702889871371172e-01,-1.919343610493076391e-01,4.740114192900560242e-01
4.385054766666354187e-01,-1.867660461151240403e-01,4.653931229753232035e-01
5.105505403227174055e-01,-1.971020628619414017e-01,4.712211232841085895e-01
5.063860470951926374e-01,-2.157720150399864700e-01,5.682768817299079789e-01
5.473858544309371243e-01,-2.202620564359095701e-01,4.592550649560076526e-01
4.453560468676041606e-01,-1.918211041960906083e-01,5.091983822337431409e-01
4.650381977505438913e-01,-2.107055275683817341e-01,4.404627849178417431e-01
4.615028302153059703e-01,-1.537383454898034185e-01,4.803592690852524494e-01
4.811903436329625916e-01,-1.540647602976938646e-01,4.512064037106892078e-01
4.618965634760945349e-01,-1.405952508205909890e-01,5.176933638981381369e-01
4.394784886915686917e-01,-2.272218596100732124e-01,5.257920679074228332e-01
5.023108001221661123e-01,-1.982735274465816377e-01,4.722315954043366792e-01
5.228703760457361627e-01,-2.087654244072103815e-01,5.014699444202725953e-01
5.202020976977804745e-01,-1.471568210488671535e-01,5.489718677771123767e-01
5.003330067422218086e-01,-1.275240866535610751e-01,5.424678262787478999e-01
4.638128248325442682e-01,-1.320717144583574698e-01,5.304693477223603182e-01
4.690399458704536118e-01,-1.861166071083810991e-01,5.281999118107868485e-01
4.659601787523223737e-01,-1.271471078831435397e-01,5.525813783556009495e-01
4.712656502492887367e-01,-1.690543042722993383e-01,4.887706847740641014e-01
5.271721830374322959e-01,-8.936647801693482773e-02,5.427920815483714412e-01
4.272269151753215199e-01,-1.665752371280261601e-01,5.356806326428097398e-01
6.034526302143869980e-01,-1.354289266656414914e-01,4.844815161816508620e-01
4.634050965970760716e-01,-2.288793930035771529e-01,5.397788217343791883e-01
4.578357814470903064e-01,-1.289491277609741138e-01,5.607566802183403532e-01
5.279332275440844491e-01,-1.009992437189954212e-01,5.168846910897435531e-01
4.802496020039861424e-01,-8.576926718455860077e-02,4.098109283634878697e-01
4.153918472057821498e-01,-1.730025882155612760e-01,5.774563265487258068e-01
5.963407004406239276e-01,-3.541175082476220870e-02,4.730987666813555870e-01
5.335000451901658058e-01,-1.666796724767122539e-01,5.152475613811832167e-01
5.210205713219312473e-01,-1.210582121193159583e-01,4.667311615584665563e-01
5.177287241265414730e-01,-1.362402407652447411e-01,5.955961941093655954e-01
4.868363380063208123e-01,-7.645016859789290076e-02,5.212018397141399140e-01
4.599090197607212382e-01,-9.383694939769884891e-02,4.563901672251588493e-01
4.987420665374492912e-01,-1.321818979280714179e-01,4.615444238740180616e-01
5.004322646070791247e-01,-1.197333775501498165e-01,5.220790426497446957e-01
5.398577068693445336e-01,-4.966272066377713790e-02,4.851260784127097159e-01
4.902388655233921311e-01,-2.549020999357490616e-02,5.220741523044233334e-01
5.747815105811617808e-01,-1.388933438468358261e-01,5.337021330153949306e-01
5.261697089975377883e-01,-9.117300461600078010e-02,5.066570396653118369e-01
5.531075631303703499e-01,-1.031123889139515387e-01,5.094408281201244781e-01
4.909096379395305187e-01,-1.093304946017236920e-02,5.187213316149752451e-01
5.205828976579003342e-01,3.040264363897387471e-03,5.501256447749472978e-01
4.862358864987718077e-01,-3.983983279925398802e-02,4.617821409279429523e-01
5.189446314978707342e-01,-4.533258095448852026e-02,5.030324859990237263e-01
5.366415106645167077e-01,-8.046156068431153940e-02,4.407922682749456089e-01
4.871968998246329341e-01,-1.170890153297780567e-01,5.368856185178151330e-01
5.487198112188216292e-01,-3.250220115055822701e-02,4.425480140882804836e-01
4.918193542280671626e-01,3.446005256634501052e-02,3.969046222259467460e-01
4.968229864684359787e-01,-7.640077323255708985e-02,5.222135562230085792e-01
5.443445989454277489e-01,-2.481762829790758879e-02,5.239619326337654481e-01
4.619865794673699844e-01,-3.334397651908193455e-02,5.123874851747642900e-01
4.995922361848304516e-01,5.894943074771900882e-02,5.103587699954381662e-01
4.982559014654320273e-01,-9.039690756369209157e-02,4.426603297854688757e-01
5.053147047857837748e-01,1.792583110943977249e-03,4.661435988051808033e-01
4.510465055377697041e-01,-4.212933393780067537e-02,4.681111683996023176e-01
5.045679287688809023e-01,6.544136873072903260e-02,4.518501784665888144e-01
4.884349943984215847e-01,1.036049042820827090e-02,4.712365762783173873e-01
4.488476334824634817e-01,-1.777223875079233725e-02,5.045727283261817186e-01
4.420401802280045644e-01,-1.626867030144703297e-02,5.055359935715778574e-01
5.351171061957464836e-01,3.230177642618094203e-02,4.518910215589202473e-01
5.846769539817577854e-01,-2.594206268407498947e-02,4.677817964859083411e-01
5.306825873241133307e-01,-2.856670307150606034e-02,4.475939538485541047e-01
4.559020158873453576e-01,3.224637723959196400e-02,5.015196811629324403e-01
5.417902411628011672e-01,1.501801062483733469e-02,5.198453720349887064e-01
5.077449203029302804e-01,1.631116671476162683e-02,3.958862744651436838e-01
5.098639168065624006e-01,-2.590396250011994111e-02,5.364034080464686882e-01
5.384240346605392302e-01,-6.313706136080929170e-03,5.019025881690545310e-01
4.731227796452482925e-01,2.565429354605786375e-02,4.919525851543062878e-01
3.995083926713792755e-01,5.210858710750449624e-02,4.621315411508741255e-01
4.229962012911092639e-01,1.583305314981754350e-02,5.666991932029189494e-01
5.305967161103348761e-01,2.440968074012531824e-02,5.163658887225683891e-01
4.899091554154225148e-01,7.975148413532013800e-03,5.199833695759202845e-01
4.994796731225856212e-01,7.176723653232981726e-02,5.164737250615676345e-01
4.720590167262618264e-01,4.669450931618265160e-02,5.265064990314718418e-01
5.104887667166007059e-01,-5.134943401772463362e-02,5.134586753871505094e-01
5.036079709629128764e-01,7.105892015214441970e-02,5.006034519591167076e-01
5.022149616475040101e-01,-5.217041746424063570e-02,4.855192727274512121e-01
4.915943455192752776e-01,3.294030209694035621e-02,4.548807864309782345e-01
4.602826240032209526e-01,3.329509975410574474e-02,5.218840785194235332e-01
4.581197373783477689e-01,1.680371389169146162e-02,4.976381684953390394e-01
4.898632079512282855e-01,4.220082483435547149e-02,5.352710190806332369e-01
5.551947123651884697e-01,7.468927003798249420e-02,5.448305644186921537e-01
5.190465444738060485e-01,9.883253858363261202e-02,4.671134379863953190e-01
4.776940313809835970e-01,4.723989222877327671e-02,5.408726141663766640e-01
5.243478902342418868e-01,2.652712667748733169e-02,5.003714175998077440e-01
5.284200781957283377e-01,6.280099911671009616e-02,4.217177415719511324e-01
5.387866606678894943e-01,1.218687097216843013e-01,5.458219889625612886e-01
4.693035504521968493e-01,5.819357453649895429e-02,4.256824226280826462e-01
5.169776374518312290e-01,2.887162726321383655e-02,4.531365148261307096e-01
5.326399727256568850e-01,4.511521947882162625e-02,5.227321832577902505e-01
4.613191217835529989e-01,8.768346899140223860e-02,5.325157158446557348e-01
4.621921120271508809e-01,1.093230939424642972e-01,4.870180803352996413e-01
5.608473687223581861e-01,4.898395080148622294e-02,5.196004784017349554e-01
4.682488437414619731e-01,4.740258147738810740e-02,4.005620653571305700e-01
4.531340386503903694e-01,3.902033452550051490e-02,5.192989217987521444e-01
4.016133511583918070e-01,8.072300503614208977e-02,5.427239265996799400e-01
5.315817787347678625e-01,1.134469634015785738e-01,5.717837151249641758e-01
6.033719613235773993e-01,1.087518838572328617e-01,4.796915303726244084e-01
5.154999481433499842e-01,9.783443769576913307e-02,5.041552579061969741e-01
5.109398439196070063e-01,4.843011000390447240e-02,5.631304104532552923e-01
4.767494924737202822e-01,1.411990714925501766e-01,4.733975198298170373e-01
5.377301495621632510e-01,5.212352773733919253e-02,5.119515397811699176e-01
4.408655036804768890e-01,1.494712348713911898e-01,5.507082403318654951e-01
4.558136384764479576e-01,1.268208565282645250e-01,4.721462182047894141e-01
4.902498867564026308e-01,1.319262115848084949e-01,5.480336961901270953e-01
4.846351045306848682e-01,1.781274178018391746e-02,5.264770298703097540e-01
5.012159791612178505e-01,1.281470550514382800e-01,4.858215980948417667e-01
5.225701013493851965e-01,3.132113639240118735e-02,4.483087610475799956e-01
5.569467542713630870e-01,9.714982853664914930e-02,4.257550215904502000e-01
5.496648300719829683e-01,8.181089116194242838e-02,4.618150550613429051e-01
5.874826784856380657e-01,6.534598071953043319e-02,5.141569946115238654e-01
4.297432772221486674e-01,1.414282738158544328e-01,5.347591594952911809e-01
4.636017287593224290e-01,1.111778838257630464e-01,5.323637792259332535e-01
5.336999830328054140e-01,5.532834390692858290e-02,5.357636498020267313e-01
5.356004821933511018e-01,1.064736756830787362e-01,4.758627436415389655e-01
4.219655346933977591e-01,9.046812297313765183e-02,5.393835682540764065e-01
5.199261690704330974e-01,1.323963893042041373e-01,5.360739391294769840e-01
4.485867555776827387e-01,1.141155630306856933e-01,5.542900528567911156e-01
3.859988694398584497e-01,1.244343515307183845e-01,4.504736635346674456e-01
4.887302985602692829e-01,1.461331956721392822e-01,5.484642149488302421e-01
4.731428662530539064e-01,1.471480962282654681e-01,5.246341357833099739e-01
4.849151030324669875e-01,1.310964313180786878e-01,4.873375505123649365e-01
4.799605100449501616e-01,2.117836891148467404e-01,5.066516954382099813e-01
4.768167335192646794e-01,8.736821575406111817e-02,4.466476626199151756e-01
4.463078349294166136e-01,1.732509393439362611e-01,5.009537862371415962e-01
4.134740866586721353e-01,1.498904072779953522e-01,5.479596142498804889e-01
4.640534609922171705e-01,1.359187850800505082e-01,4.612640467874252193e-01
5.635281596094743328e-01,6.135819554318094893e-02,5.237670641282917705e-01
4.982557736987415775e-01,7.948824132188980762e-02,5.328459829550358240e-01
4.901889955289001066e-01,1.975229646655034532e-01,5.086410023986643880e-01
5.070678763915860143e-01,1.796578130823785757e-01,5.487736474831914624e-01
4.136037203616583224e-01,1.514717158123802254e-01,5.242981052549694487e-01
5.089648703242013461e-01,1.109239700700290210e-01,5.414101517804686958e-01
5.307852435761750698e-01,1.907184446351973262e-01,4.926573977596263032e-01
3.852367820699220125e-01,1.639192719177003099e-01,4.717768157105621807e-01
5.297483381050340778e-01,1.435321373920070975e-01,5.158284076113029970e-01
4.886749784831088128e-01,1.395032491222883975e-01,4.546496090170331628e-01
4.710263393481367578e-01,1.115584935578924214e-01,4.961992667371550869e-01
4.916236654000815109e-01,7.722209830123742680e-02,4.811413996948992189e-01
4.754964994307646631e-01,1.388666364465628578e-01,5.062291867035578763e-01
5.123355725368945457e-01,1.635436754689752747e-01,5.245598105190886207e-01
4.827149805287617168e-01,1.431261016656288354e-01,4.268871959643573688e-01
4.682312019439883732e-01,2.166525894392750395e-01,5.371632327592239520e-01
4.230084877552181544e-01,1.994611539149761803e-01,4.595949782865686450e-01
5.097698951597808836e-01,2.292497389466149060e-01,4.846250167328559622e-01
5.347181162605154636e-01,1.960190951410462346e-01,5.403834072882287565e-01
4.687703861408764050e-01,1.311476939121622443e-01,5.124093928492672312e-01
4.448851364632494532e-01,1.436176755830023133e-01,4.832290562292229086e-01
4.805221337058266373e-01,2.496669804584133456e-01,5.214656447614294255e-01
5.453377906831565758e-01,2.353418465780665880e-01,4.796740663989570996e-01
4.623920168324238134e-01,2.405900751901134671e-01,4.730379209889275516e-01
5.149326116893796490e-01,1.470221154425050414e-01,4.468714370999795626e-01
5.256619696582297552e-01,1.207941299593273815e-01,4.756486075891038778e-01
4.876454131850779805e-01,2.173630344539496106e-01,5.962447554337674260e-01
5.377018974081071434e-01,1.641513403183365305e-01,5.127664324138664353e-01
4.897677788567713630e-01,2.175589783532025645e-01,5.002218300032019727e-01
5.434789016386343263e-01,2.778379216829447440e-01,5.648668309271897003e-01
4.574720244188875684e-01,1.921354870580237739e-01,4.157311214345172923e-01
4.654069001933155980e-01,1.462489390761161634e-01,4.986409993903350713e-01
5.004193982552187503e-01,2.028472287473054303e-01,4.749764530021949316e-01
5.707878357638986877e-01,2.042756291851814954e-01,4.918746540603812778e-01
4.841153079537979242e-01,1.860675538237135107e-01,4.255685005235445573e-01
4.351377240732528517e-01,1.798667581259315307e-01,4.507736936876326483e-01
4.793114069123242671e-01,1.957278972848702503e-01,5.346398867891820617e-01
5.299628599696867282e-01,2.085322048701668540e-01,5.337418760690912922e-01
5.437824015445346104e-01,1.724923770166124359e-01,5.320098781220546913e-01
5.301502713359329544e-01,1.964658932530895241e-01,5.118283293713240534e-01
5.658412979349652927e-01,2.137207688960881258e-01,4.953550125666008053e-01
5.099820315952463545e-01,2.654447448956721023e-01,4.881079880777653424e-01
5.100169793370132876e-01,1.559562454604383752e-01,5.831415464779087232e-01
4.345838644921140581e-01,1.882383281087586790e-01,4.775282087973352074e-01
5.494562038603479914e-01,2.061051868666554931e-01,5.104900853598657307e-01
5.055353575528125365e-01,2.682583309129544791e-01,5.033619443573906782e-01
5.225359859882036107e-01,2.661635469479655680e-01,5.173076279921624554e-01
5.822779685495537150e-01,1.916554042211269515e-01,4.775104812589962000e-01
5.211870412859989088e-01,2.137162018182988954e-01,5.238023524906361139e-01
4.343173168170818554e-01,1.630796494591379708e-01,4.264586997271974100e-01
4.010755720886355902e-01,2.824139677558269446e-01,5.315066228445620711e-01
4.987773924974049922e-01,2.533331310994065277e-01,5.281716963000034903e-01
4.813739386003702547e-01,1.833439827280587964e-01,5.130814952596740586e-01
4.812481657579669170e-01,2.151324775183444116e-01,5.046891059488773923e-01
5.086031137008190095e-01,1.909619560042391251e-01,4.903608841824259046e-01
5.273680497246825416e-01,1.911330347357671766e-01,5.220025383094368809e-01
4.233520077482850197e-01,2.135633549579947499e-01,3.969025447307000798e-01
5.476366383181845432e-01,2.496602861459171763e-01,4.810123928846138930e-01
5.483382894358409532e-01,1.910232320099161385e-01,4.625118924983481761e-01
5.309281074692669966e-01,3.053563382515357416e-01,3.973690617451711704e-01
4.590982757176759188e-01,2.039972684488458865e-01,4.948300980329142784e-01
4.880949609071575379e-01,2.529366179223683786e-01,4.240429825153785304e-01
4.573449717256160563e-01,2.457808268150380171e-01,4.719378295465468387e-01
4.638668009086989175e-01,2.618575841332974052e-01,5.321250402836144033e-01
4.675898138401382576e-01,1.835685677746446975e-01,4.423176402431586718e-01
5.271087579772960607e-01,2.417536095865451540e-01,4.701264351348641846e-01
4.530258679241655484e-01,2.380711373801234487e-01,4.359007812096099554e-01
4.947726504666621339e-01,2.561950355437408455e-01,4.827420496765322810e-01
4.580096984541409122e-01,1.952409655868881377e-01,4.096435592568503092e-01
5.310834065175332741e-01,2.087087514842401736e-01,4.740169911111398737e-01
5.408615481977380179e-01,1.917521496548072191e-01,5.857592773512544371e-01
4.788100160217759749e-01,2.295313581672606684e-01,4.741986895890806797e-01
5.043210024078417231e-01,2.257360909501488488e-01,5.302107513913263404e-01
4.825400217045092144e-01,2.357796434864126434e-01,4.795539453129121776e-01
5.035010476643220212e-01,2.900372772554921652e-01,4.843896429588139263e-01
5.025029269052211367e-01,2.384125660042024919e-01,5.033891356682331786e-01
5.257638348199894507e-01,2.599986348894527954e-01,5.360904502327018539e-01
5.871868093418867174e-01,3.067746705417412900e-01,4.532400986579938618e-01
5.365052695526344451e-01,1.641543471063183490e-01,5.236559755023889595e-01
5.065697953592968039e-01,2.358490848449989463e-01,4.892417204509922901e-01
4.792878519142607097e-01,2.939222230823447246e-01,5.719294688145432071e-01
5.046167111379821213e-01,2.502468355857226379e-01,5.004801230692014213e-01
5.469271161579938312e-01,2.247375511421537131e-01,5.288121214313787899e-01
5.770207723593401283e-01,2.585401696627165347e-01,4.906354485374583296e-01
4.749131972973809623e-01,2.586152342386223713e-01,4.935905647865273527e-01
4.828247162579079599e-01,3.036007415691875377e-01,4.813949413323752591e-01
4.697136871714060469e-01,3.344196992351830544e-01,4.853302788393730749e-01
4.510680189952362973e-01,2.902819939466284582e-01,5.247016684503901240e-01
5.149342441064583831e-01,2.962064052409053017e-01,5.564554771603845706e-01
5.126073683525456115e-01,2.551350784401715255e-01,4.867291862227674515e-01
4.632250055881453332e-01,1.816803756948089377e-01,5.078096645140408594e-01
4.811767405015902610e-01,3.650339653957279662e-01,4.970166487993670223e-01
4.537890228433544282e-01,2.739552152037886268e-01,5.154572134793042881e-01
4.973289661352204294e-01,2.555008565603854032e-01,5.391282995169064396e-01
4.903670309519715387e-01,2.458947591464276938e-01,5.023824129919050030e-01
4.628841710565643197e-01,3.370294989920301632e-01,5.268311220370718306e-01
4.921365053537619105e-01,2.862928424885086143e-01,6.285834734931162737e-01
4.577911640124529558e-01,2.507164482977808362e-01,4.971590826005419794e-01
5.367601012215245104e-01,2.703024139020669403e-01,4.739921287102551450e-01
5.015228204593923378e-01,3.372147758087021274e-01,4.876170046959804050e-01
5.093894790687940599e-01,2.671854096309373428e-01,4.745249889505552821e-01
4.801364246120868318e-01,2.058998491515424412e-01,4.315042355198880353e-01
4.878890604135949216e-01,3.042957589996749812e-01,4.827720236185804592e-01
5.686869322463617982e-01,3.591473857270963688e-01,4.075352454674158187e-01
4.304481175674859106e-01,2.375856577384277135e-01,4.669490107609808316e-01
4.392911571955617211e-01,3.137404016065960533e-01,4.780600508745225241e-01
5.279324696167220221e-01,2.489076707575100522e-01,5.128452352930472635e-01
5.195214911802543689e-01,2.825364493578594316e-01,4.759934164499255993e-01
4.953414571206675165e-01,2.475547599949306787e-01,4.864238375637413569e-01
5.099241400759818577e-01,3.380640431372475274e-01,4.743920353655602939e-01
4.721847800538247486e-01,3.541010476007990238e-01,4.516898250311239815e-01
4.620963453740969951e-01,2.994651030612299203e-01,5.467926608021007606e-01
4.860597911989514852e-01,2.302296513094359010e-01,4.861050577062290268e-01
5.097792422391228540e-01,3.454349374115966986e-01,5.030940787258859626e-01
4.792637529960582787e-01,2.319639662405917346e-01,4.560019215066437037e-01
5.254410445372735827e-01,3.013062714394554864e-01,4.711204995037579502e-01
4.571297837006879083e-01,2.885564186275048626e-01,4.280175949685848247e-01
4.818798436027031395e-01,2.519745753933076426e-01,5.227744915132638281e-01
5.564579839749637102e-01,2.455069716073872421e-01,5.102846937776072123e-01
5.240745135217284023e-01,2.902619121387571277e-01,4.495202746009076544e-01
4.865960727242550909e-01,3.535745027616978842e-01,4.756410372388225616e-01
4.908883976520610481e-01,3.409133595603772715e-01,4.386752001630852549e-01
4.874008253967272442e-01,3.496762740358876353e-01,5.554590936738199591e-01
4.457278382764704450e-01,3.199754791971980983e-01,5.130747648873263955e-01
5.549506203293688156e-01,2.971374122496970860e-01,4.289260530871432109e-01
4.495863005443254679e-01,3.932896319111269801e-01,4.305488001576135426e-01
5.096026289955102317e-01,2.835272416673085272e-01,3.847007629884520163e-01
4.886215456434840898e-01,2.427159709976603463e-01,5.018917603159677165e-01
5.204829758585420851e-01,3.335221070264212662e-01,5.162319956919371178e-01
5.077014660629661780e-01,3.517933957869666672e-01,4.676766300255381648e-01
5.432352995732702139e-01,2.540016931544749057e-01,5.081995882810329546e-01
4.597272246792405426e-01,3.449228481050987671e-01,4.663363352637056591e-01
5.236082782948396908e-01,2.979779476175631325e-01,5.363386619037695535e-01
4.912014412022961407e-01,3.522423191876116189e-01,5.531590145767870670e-01
4.686401054227367080e-01,3.713532864476737361e-01,5.760937085636117505e-01
4.609789510829632730e-01,3.845391222405935561e-01,5.405436332134330168e-01
5.079271671402392219e-01,2.996863816395287095e-01,4.860135599577848353e-01
4.797316714884499733e-01,4.092010553941115014e-01,4.528207487056881697e-01
4.426612777480551930e-01,3.590971421230919058e-01,4.483830677224709405e-01
4.975301805204366823e-01,3.278981160736669787e-01,5.698095180835892615e-01
4.575300789610225460e-01,3.665852674797429600e-01,5.523430417973697049e-01
4.899980495259983471e-01,4.237015442923878772e-01,4.450874453896768723e-01
5.007909948203408401e-01,3.796783754983582559e-01,5.145837630708520738e-01
4.903246530909823320e-01,2.999372077491372912e-01,5.096956777281687057e-01
5.449622330886918498e-01,2.592931131963960301e-01,5.102048460582749856e-01
5.517988596188563299e-01,3.384222049884487715e-01,5.127186968906140008e-01
4.836673513747762332e-01,2.934829596297209298e-01,4.993798724214477125e-01
5.049453949750006831e-01,4.199801183152817030e-01,4.924675696904690647e-01
4.661436218364632400e-01,3.351119762322983253e-01,5.325756430826151799e-01
5.007488851862980095e-01,2.953961137573046791e-01,4.510211308442960143e-01
4.584441491377192479e-01,3.693754207832273262e-01,5.170920446818143557e-01
5.272366844596101387e-01,3.267240566982412275e-01,4.662202718224294218e-01
4.754930994349471085e-01,3.360295717206939758e-01,4.440522379317989876e-01
5.444155476468031107e-01,3.299259226618854179e-01,4.829416937156108536e-01
4.452345316147049425e-01,3.408985147856108400e-01,3.851371047267252434e-01
4.750700024071374816e-01,2.744091803322154521e-01,4.583883695483346732e-01
4.038935303731910342e-01,2.559378872708693020e-01,4.940825235702200335e-01
5.481771944829504362e-01,3.468142007337878807e-01,4.355351412143122491e-01
4.912949257057073194e-01,3.510421158889674986e-01,4.682087142367967192e-01
5.244026334107640963e-01,3.498179293303610438e-01,4.790452826785422946e-01
4.740477550764802817e-01,3.747970169149248409e-01,5.945517547841597805e-01
4.396423285746344778e-01,3.358215138719704562e-01,5.314261174998148318e-01
4.685157557873615985e-01,3.352545229473557487e-01,3.949440528832166564e-01
5.219337525204847950e-01,4.275100006792323937e-01,5.795061637066345472e-01
4.850198262294524443e-01,3.690286471622486464e-01,4.473547472478529019e-01
4.845105978350850440e-01,3.206460492455434075e-01,5.446722243099688665e-01
4.620362947175453150e-01,3.856145889306875074e-01,5.314136395815411973e-01
4.743865885660342174e-01,3.787193590287518674e-01,5.669360633196843802e-01
4.698998344959451345e-01,3.644156468572855023e-01,4.847006965369665132e-01
4.651746598523667231e-01,3.829815426560759795e-01,5.151716521877868216e-01
4.730357192613950379e-01,3.748565660631703600e-01,5.738867210153996146e-01
4.709427864046942802e-01,4.123976014515389754e-01,5.609054270325087854e-01
5.131603583461550322e-01,3.970812173724593830e-01,5.143905596032489758e-01
4.640862822071492588e-01,3.139474948825646261e-01,5.458944172899166114e-01
4.922211539849989936e-01,3.487448990020678430e-01,5.106300738473972256e-01
4.746901417647365617e-01,4.107444358300754716e-01,5.069379843543934117e-01
4.780629812445838511e-01,3.845082874997420297e-01,4.370595742369027259e-01
4.853870517353288672e-01,3.614375396608587865e-01,4.297806838522694739e-01
5.551564238745585467e-01,3.464787620877234353e-01,4.934368634821397759e-01
4.787903158645480106e-01,3.477525810156136821e-01,4.764267648433354596e-01
5.765940557139531686e-01,3.506561281462304835e-01,5.253067029969145096e-01
5.150981719830493022e-01,3.667755002305233547e-01,5.335834019339233958e-01
5.756191877868297446e-01,2.569893662236851783e-01,5.169062772139352280e-01
5.369251290286305434e-01,3.400095486103901221e-01,5.073587949614104531e-01
5.021385989162361341e-01,4.428328667876912927e-01,4.986905852813605655e-01
5.446838133823713735e-01,3.605591342840888669e-01,4.493812077122942839e-01
5.352628268950977430e-01,3.505158328715680116e-01,4.433463576069096579e-01
5.031456497387764015e-01,4.462267866083761136e-01,5.549995249498272942e-01
5.063636570815368554e-01,4.465535563916981365e-01,5.021930416241893180e-01
5.202976488271410238e-01,3.696673562646313749e-01,5.462470424408595315e-01
4.903784499806636554e-01,4.115587254886203805e-01,4.854967955238583266e-01
5.135557659969377520e-01,4.091826773183085408e-01,5.202434911567798137e-01
5.172330523190363794e-01,3.754138048486613810e-01,4.587804055497830547e-01
5.153116648942573930e-01,4.344409239541194845e-01,4.229609346872116871e-01
5.153400433559561788e-01,3.445066404450383146e-01,4.634458805894528521e-01
4.237188364527594286e-01,3.549673003899385670e-01,5.052690526385663627e-01
4.701373903985398006e-01,3.337876948510405395e-01,5.301057581148131970e-01
5.034060733155897305e-01,3.718125092212826721e-01,5.925787730498609518e-01
5.113862295732052310e-01,3.599654328826200067e-01,5.376692343431426213e-01
4.531224729079130764e-01,3.676169441763622592e-01,5.184773231202237653e-01
5.047423867384246421e-01,4.019759420264023553e-01,4.180648118372386479e-01
5.546725638179285101e-01,4.212129678277775069e-01,6.142137939944007918e-01
4.666162954091744863e-01,3.807219270083033735e-01,5.077635819198698108e-01
4.951677962328106530e-01,3.816277104667699094e-01,5.649538712814989871e-01
5.645855778430852734e-01,4.210700542134980240e-01,4.748049327562053334e-01
4.493313399863483881e-01,3.484481577751009640e-01,5.144397615040987581e-01
5.101155193373945185e-01,3.902965562392380905e-01,5.257526165693129361e-01
5.699549579639444641e-01,3.790022023661422934e-01,4.360255033558683713e-01
5.408835576759196684e-01,4.344041516626188093e-01,4.974160588278501716e-01
4.244409000682698996e-01,4.062006209925289046e-01,5.015212851894985668e-01
4.809008480455975731e-01,3.806923601763975706e-01,5.167848663101787254e-01
5.852692505343662921e-01,3.231111891721851759e-01,4.392190139878207056e-01
5.026129602273666785e-01,2.985165846486237951e-01,5.403148571764185837e-01
5.031399903544975238e-01,3.967151230036342069e-01,4.837238633560578815e-01
6.032906502660351222e-01,4.809057138394399189e-01,5.080099960920363422e-01
4.274541751234500198e-01,4.507709927561174834e-01,5.672921899557683556e-01
4.839754364076309101e-01,4.223117632599491245e-01,4.354760607716171572e-01
5.376426000068599276e-01,4.373175842069270680e-01,5.144577381453599996e-01
4.869424226762493757e-01,4.340720820193803564e-01,4.986904686395500219e-01
4.948880971838612308e-01,5.153412583884444675e-01,5.438673108330286388e-01
4.817131666521124456e-01,4.156883544868893443e-01,4.980421910477752512e-01
4.804868559297731379e-01,3.794388426441547280e-01,5.457185468487163460e-01
5.275560338195709464e-01,3.129710669038624493e-01,5.338560400749255974e-01
4.489366202140117057e-01,4.080740031823114067e-01,4.823674803742253325e-01
4.690096627864175916e-01,3.707649948144015606e-01,4.783418394890877612e-01
4.916783618225271102e-01,3.840759683458315754e-01,5.571796004506257560e-01
5.130161445271843590e-01,4.241564109399134641e-01,4.865982995500351960e-01
4.703589898336723030e-01,3.341422081678752654e-01,5.024110219610101735e-01
5.269065316587875358e-01,4.401982725149317655e-01,5.398017522433504745e-01
4.387873623402573919e-01,4.233725837442276485e-01,4.901146269463844130e-01
5.433331620807388962e-01,4.410088028706469765e-01,4.929664356338940845e-01
3.954609042924627227e-01,3.906400734797779162e-01,4.593733634804700317e-01
4.286644548130656429e-01,4.340161570929397805e-01,5.465574584690087168e-01
4.669791065492122084e-01,4.325424392761108017e-01,4.404795880139000808e-01
4.665300076469944268e-01,4.795364097897452660e-01,5.137344524205669227e-01
4.983831202674922634e-01,3.346459305871731238e-01,4.754242349954750924e-01
4.470422155353049321e-01,4.531065004536960483e-01,4.125516455135622707e-01
4.622057642376634634e-01,3.957458330403239022e-01,5.318776824458431030e-01
5.163834469349091183e-01,3.692228583077063475e-01,4.895004892922469319e-01
4.702738648626741402e-01,4.156138416900917454e-01,5.022478788794531024e-01
4.844489553960602546e-01,4.504681439858863601e-01,5.454628811996358184e-01
5.211466956675718798e-01,4.432845591848257882e-01,5.080327254167498197e-01
4.500678255410393014e-01,4.569409642049058196e-01,4.722297828828891930e-01
5.672339082272453981e-01,3.831030462231470590e-01,5.709970942213958844e-01
5.017113391295517921e-01,3.820604026522320673e-01,4.718387478139003388e-01
5.152164003931724023e-01,4.606139362471146637e-01,5.376219634799139779e-01
4.401579934913698589e-01,3.809439985030632081e-01,5.884997236516171792e-01
5.640674862406144241e-01,3.712466142167150651e-01,4.794916436884495425e-01
5.008276071205494118e-01,4.146034178321674202e-01,5.572052597905279292e-01
4.603063317838799184e-01,4.526341553469896417e-01,4.876832165069421299e-01
4.512803505399435311e-01,3.906114291864190569e-01,4.975940024293941666e-01
5.312677951002944265e-01,4.179106380829826217e-01,5.002685454770421369e-01
5.056217236243458757e-01,4.148648928069392783e-01,5.380518319959666229e-01
4.690949507162431309e-01,4.422739907339155452e-01,4.926071355672534402e-01
4.547078879012010355e-01,4.226545272117431806e-01,5.334829002911498641e-01
4.662795843322516953e-01,4.209895896165461449e-01,5.297517850656707772e-01
5.511798958247782210e-01,4.439077288705935431e-01,4.933958153232783084e-01
5.683314361650807500e-01,4.245406679786565829e-01,4.898897207548539301e-01
5.497549148653403384e-01,4.335185900399561865e-01,5.287576275189743713e-01
5.251757957495132301e-01,3.953057098753903764e-01,4.753289032297569050e-01
5.105278545933938927e-01,4.550991523426505814e-01,5.446865386426874567e-01
5.521583107785751343e-01,4.540019831118270455e-01,5.144569705587163089e-01
5.070942727926575078e-01,4.536448023542065666e-01,4.955224823561094061e-01
5.709761778494402140e-01,3.937764152039154308e-01,4.811416219336102640e-01
5.071270434874683986e-01,4.598416683521085457e-01,5.294736284523844372e-01
5.212019481571635859e-01,4.140644885513129481e-01,4.754657674383794275e-01
5.497343434864524481e-01,4.002048777711081362e-01,5.067302461137377367e-01
4.960416085881038661e-01,5.064751579277170235e-01,5.121870382609290395e-01
4.551020943238850425e-01,3.957219145691384665e-01,5.404937512244546438e-01
4.145236004544143871e-01,4.015814936766636256e-01,4.261454500546763557e-01
5.227672674160185329e-01,4.247712912278180930e-01,4.817038653153513095e-01
4.568060139296139521e-01,4.673678470625554637e-01,5.024238405546767039e-01
4.938450590425458864e-01,4.100941872249345699e-01,5.296466808774354940e-01
4.921340517718244545e-01,4.571380489748608777e-01,5.782155855327286709e-01
5.831479330975436470e-01,4.045960990706953253e-01,4.961834366979395727e-01
5.517976259372818770e-01,3.950061581031886759e-01,4.616245576227216985e-01
5.436780033378437738e-01,3.807991268650273153e-01,5.274994634559951878e-01
5.615586291528729124e-01,4.744411684911394311e-01,4.451265471003628682e-01
5.232510781736330330e-01,3.838878966466421350e-01,5.242553592254661776e-01
5.472197445624086276e-01,4.266656849646766059e-01,4.700197584673426743e-01
4.162688767308714288e-01,3.322093771220299141e-01,5.185740695325145033e-01
5.049682532887806996e-01,4.067134390828117119e-01,4.867295175794334461e-01
5.177420243760625373e-01,4.006644097312523356e-01,4.945824270531045674e-01
4.870269750760559679e-01,4.021835363458796109e-01,4.692976426727622496e-01
4.899723140593399973e-01,4.267521744096683944e-01,5.338128709790868065e-01
4.488345118284134405e-01,4.310479832006079426e-01,4.974187932716962468e-01
5.391325446665351517e-01,3.714995295197083269e-01,4.674252261405772435e-01
5.752306863985346963e-01,4.861818890717721775e-01,4.560942128244365179e-01
5.620523538405025610e-01,4.302188083514276729e-01,5.307207647203604495e-01
5.030705261276956497e-01,4.393491986573082042e-01,4.639764758172081893e-01
4.610911475557926131e-01,3.994735495501573475e-01,5.388966151193029797e-01
4.886912976873272751e-01,3.617289760373454399e-01,5.439285097132529057e-01
5.275060685723613751e-01,4.045444746148946225e-01,5.097980991168460374e-01
4.790993935931495695e-01,4.415011662281592697e-01,5.410206412680308441e-01
4.973324097851460346e-01,3.634245981256652991e-01,5.023071517584758450e-01
4.984579380231404233e-01,3.414610611426561193e-01,5.603348730825851165e-01
5.066387111620920258e-01,4.396590456417895365e-01,5.296541980516252801e-01
4.458855779416934784e-01,4.175298591208975729e-01,4.740299825016911495e-01
4.965463767711692511e-01,4.511883786688147824e-01,4.919936136389378434e-01
3.995018605554633284e-01,4.402403657012004534e-01,5.017489299369702893e-01
5.046208744822080483e-01,4.081662023269781447e-01,5.170519211193735920e-01
4.793978526107172122e-01,3.735033864769903289e-01,4.972071063261800372e-01
4.682865004119413643e-01,4.303874352384860491e-01,4.971870881414784393e-01
4.413480583694820436e-01,3.579629699293294665e-01,4.695436594633487504e-01
5.154354697813215980e-01,3.945162922985409049e-01,4.875758495691545069e-01
5.665128440889201089e-01,4.562380092392859243e-01,4.076582632693968589e-01
4.694886894218837647e-01,4.320381102212524360e-01,4.839314533743907520e-01
5.283342060689986130e-01,4.008216345534035829e-01,4.947370959926958855e-01
5.017220287394983380e-01,4.684551964481991071e-01,4.862350841438059512e-01
5.230825819447333380e-01,5.050833570209427581e-01,5.355260942954229719e-01
4.696196980936430676e-01,4.545480218951446494e-01,5.044141569935621794e-01
5.297733665378979717e-01,5.157414142756374664e-01,4.919491402343789677e-01
4.453326313673605097e-01,4.398569599708387345e-01,4.414801240655908399e-01
4.709829986555408299e-01,5.478255917288405996e-01,5.004491652856739581e-01
5.020319408143887330e-01,3.584474636930461977e-01,4.805905201177796959e-01
5.144169300977429193e-01,4.266973948049798682e-01,4.981873603605956324e-01
5.423556621664021860e-01,4.529637005642017100e-01,6.021366019194765995e-01
5.377360289298088736e-01,4.342975583622218916e-01,4.945333925167200162e-01
5.320106847758125923e-01,4.615841711593816066e-01,5.805136172082581147e-01
5.362399047726302825e-01,4.411311674056939136e-01,5.534072557647573554e-01
5.028966596925634747e-01,4.508606244749133185e-01,4.796218448026561276e-01
5.113200476145435269e-01,5.012909689188886908e-01,5.230210679507329985e-01
4.954500006616952001e-01,4.763961181259227518e-01,5.689622124622676358e-01
5.870392603777413454e-01,4.715805707649677880e-01,5.059541747070183115e-01
4.741628193595600060e-01,4.107392385590061257e-01,5.723343879974280846e-01
5.513842990446116143e-01,4.593085299800265808e-01,4.862649744261772211e-01
5.193099794605059438e-01,4.084864616810539584e-01,5.746795511397733147e-01
4.214677870189833531e-01,4.565986609424387832e-01,5.824103537426325028e-01
4.918160965434817400e-01,4.748453049399472548e-01,4.661615041350293809e-01
5.431255663709466663e-01,4.596582858304830710e-01,5.078597996125959746e-01
5.023285411531843714e-01,4.078047254082516893e-01,5.412348065687585530e-01
4.805174916556035347e-01,4.362144768519926608e-01,4.974965361272634667e-01
4.417867975002396363e-01,4.455363949627197395e-01,5.724433328918695496e-01
4.608499958967992582e-01,4.059299992916302613e-01,4.209480488745719895e-01
4.327273023453754308e-01,3.793363835667238337e-01,5.129369930484823925e-01
5.147752839362480515e-01,3.763364249151385788e-01,4.823151404977218393e-01
5.024105888522463204e-01,4.667564771073114960e-01,5.548397985048503234e-01
5.202684889560584836e-01,4.141696909534758331e-01,5.370170504732540984e-01
5.471866339152078318e-01,4.667317945694637316e-01,5.093644933712336842e-01
5.312828925216339648e-01,4.299214204624826619e-01,5.758901251171796298e-01
4.671982641278702442e-01,4.157143181797764431e-01,4.734638904092627332e-01
4.505456042765335622e-01,4.621394278626336227e-01,4.955031575557187207e-01
5.194182802693446677e-01,4.776032398329150275e-01,4.517032214588609929e-01
5.022046504770288911e-01,4.770033062834075910e-01,5.662077238374505495e-01
5.251139875322498041e-01,4.525311848746276788e-01,5.175414141698835291e-01
5.093971333119026168e-01,4.474875213995014867e-01,4.795081605610090336e-01
5.434100199440089485e-01,4.109220567292803938e-01,4.679102568108153282e-01
5.666316037590298782e-01,5.235993032442506356e-01,4.803299820144964483e-01
4.215238432025815718e-01,4.407000889197723592e-01,4.623881970824787468e-01
4.927207308421353016e-01,4.238275296481456289e-01,4.866464946069233855e-01
4.876393525815417296e-01,4.338495290220486522e-01,5.048397758736583585e-01
5.118581606341756629e-01,4.202490862072945088e-01,5.306053525398458648e-01
4.579749645691130189e-01,4.308415647127571413e-01,4.810894319493350668e-01
4.420341325800205556e-01,3.896779946426371377e-01,4.645269472707408975e-01
4.786189502128878059e-01,3.677727553468120858e-01,4.727479694588371806e-01
4.956034868524726855e-01,3.827921587178611529e-01,5.192766167700024749e-01
5.510982915422444339e-01,4.887801171350871776e-01,5.384354484323663481e-01
5.153065477600138333e-01,4.709882214207720130e-01,4.481637194656237222e-01
4.949259135417988786e-01,4.746361077636723214e-01,4.583312006817800155e-01
5.437154041345279021e-01,4.984075694644478638e-01,5.344184066794256394e-01
5.058331749124467258e-01,4.363536023224197646e-01,4.360435619083490311e-01
5.034381278274069338e-01,4.601822824069513596e-01,4.576215411037151681e-01
5.235675611870104218e-01,4.364200859255503717e-01,4.718621492346434798e-01
5.534893061126806568e-01,4.397891970499635539e-01,5.282434820752122118e-01
4.946137483832108717e-01,4.200501538804599644e-01,4.993987219754673079e-01
4.721871519896274072e-01,4.635785184693026473e-01,5.082127582958612111e-01
4.871954914799258018e-01,4.612275294493823896e-01,4.338050179134569917e-01
4.609704382107895348e-01,3.982450509221117652e-01,4.150361277844934471e-01
5.184090709808060193e-01,4.120108650358831337e-01,5.228152026157610877e-01
5.055172128485451166e-01,4.146640644346122895e-01,4.979884334779607347e-01
4.203940878208856091e-01,3.867152928753290753e-01,5.034845167001001931e-01
4.629926171548175984e-01,4.571669277396885889e-01,5.869372001039682152e-01
4.725027853159555757e-01,4.266099793386478600e-01,5.307489786638656115e-01
5.744701319806708728e-01,4.620265020197150130e-01,5.257200749132445727e-01
4.523065298004142476e-01,4.066536754528390363e-01,4.374329688617568102e-01
5.141833976691786434e-01,4.781841413957812481e-01,4.879741317076936591e-01
4.968413401646691319e-01,4.167787752755086061e-01,4.641276890282791667e-01
4.879270611547262826e-01,4.896738942426237529e-01,5.092908218772486117e-01
5.331928578055445955e-01,3.904006652989484571e-01,5.794117137868411982e-01
3.980552920517281823e-01,4.364381812630874768e-01,5.542041421823364900e-01
4.483643563667110699e-01,4.205473733644202738e-01,4.839250489237507113e-01
5.208293097416432094e-01,4.701276561204014715e-01,4.068152062403054825e-01
5.109662903649425658e-01,5.358746302162490371e-01,5.223576759282895221e-01
5.081658258640238124e-01,4.843441773044641074e-01,5.540108730247951252e-01
5.058378516965220673e-01,4.224119448058396564e-01,5.347073873917941311e-01
4.896452690177074407e-01,4.848264194229652824e-01,5.623110235656609834e-01
5.233499870308657709e-01,4.434514807637447431e-01,5.144936653602472099e-01
4.537423978590106599e-01,4.443572749970892688e-01,4.767989141331452352e-01
4.414386584033909711e-01,4.142970831442869817e-01,5.147390765013828418e-01
5.163833314704554533e-01,4.634182986077639010e-01,4.657038650354702325e-01
5.855590636927501258e-01,4.707768289846286369e-01,4.740597092642565569e-01
4.973484315674581713e-01,4.688707564719529208e-01,5.016603817983595892e-01
5.424607459493456796e-01,4.291287810093669663e-01,4.973895278594914204e-01
4.733081969968431224e-01,3.959812638015194342e-01,5.178178321881793389e-01
5.274351599723916539e-01,5.262836878299375076e-01,5.310154625258107774e-01
4.581583939825679130e-01,4.514120404902939865e-01,5.342460319743251862e-01
5.503535129721788266e-01,3.778301503798624505e-01,4.610287376183361263e-01
5.149441920573688547e-01,4.750072701618490156e-01,4.699799210569098884e-01
4.827793569399487228e-01,4.126588739607888745e-01,5.313819681385250071e-01
5.000017382077346362e-01,4.849667433318852749e-01,5.441749815677149327e-01
4.404635022097844188e-01,5.178125806253539576e-01,5.375328598675594982e-01
4.418391591916634442e-01,4.504909245081891722e-01,4.810097987214108084e-01
4.672335976881005215e-01,4.584479239670641859e-01,4.814218050407682581e-01
4.702088269515966035e-01,4.907160537631550246e-01,5.098011954612490237e-01
4.306744822500644387e-01,4.841955382289568899e-01,4.824825274731493474e-01
4.081694968994760142e-01,4.670511449255453917e-01,5.353352979598715589e-01
4.976071516215932466e-01,4.549239965098522687e-01,4.608241777878467893e-01
4.386669741602870487e-01,4.707278146835934818e-01,4.569679665635930643e-01
4.834610802279167285e-01,4.539279287123416662e-01,4.771302299737550934e-01
3.984537829652877172e-01,4.291017487672266206e-01,5.273750753762153076e-01
4.991273252846850084e-01,4.933774018653618310e-01,4.533574891646288130e-01
5.256861305653565131e-01,4.182599703630819898e-01,5.336918507843152470e-01
4.722938253301148248e-01,4.631407749576711419e-01,4.956865084338041294e-01
5.468246010693501580e-01,4.204287869045458259e-01,4.705260327713940982e-01
4.592962062510947407e-01,4.964761291386426967e-01,5.007130139195296037e-01
5.240146918439642088e-01,4.495098341123589525e-01,5.243818670179760666e-01
5.362190666480408652e-01,4.280714965737033584e-01,4.619764076513930284e-01
5.280954827676681562e-01,3.958569293272495293e-01,5.263858309266703506e-01
4.661333222918744301e-01,4.839625212273029331e-01,4.356870540011209547e-01
5.236161000737872273e-01,4.401976715377605709e-01,3.669963649051333210e-01
4.972298708311349014e-01,4.617540951085619128e-01,4.617155923838150433e-01
4.760722274424013523e-01,4.367069546219302101e-01,5.422751587709849774e-01
4.949953221572606088e-01,4.927928715247553715e-01,4.944406092664740959e-01
4.304743140636941856e-01,4.748112374709482775e-01,4.701171733265731567e-01
5.365176823681970797e-01,4.351626782501968327e-01,5.015592196828776439e-01
4.504095526108526371e-01,5.014089197670003051e-01,4.727865155818214982e-01
4.926164532693581566e-01,6.003821977539723909e-01,4.726204092136281343e-01
5.082650654526322809e-01,4.491133781942617809e-01,4.888126653509735076e-01
5.071989482094337864e-01,4.725570671674386714e-01,4.920648155759936859e-01
4.744968279330156191e-01,4.962537752983016692e-01,5.380668167251134726e-01
4.177582393613088474e-01,4.737043236499495769e-01,5.232953369223132256e-01
4.935505378316338843e-01,5.018125939824336079e-01,4.952935547369486935e-01
5.002023721794154332e-01,4.825878791484981556e-01,5.005305218390152522e-01
4.421195666517729883e-01,4.826070753834968419e-01,4.454088121457192573e-01
4.740692334285596665e-01,4.540148726614011698e-01,5.273461603513429630e-01
5.340452216822036968e-01,4.652887444979892928e-01,4.955976079071343632e-01
4.646801852815971579e-01,5.129123040112504306e-01,5.064928913118916798e-01
4.355978867645107777e-01,4.449111721470943581e-01,4.751518239349791783e-01
4.713633931385862175e-01,4.523250338755631095e-01,5.401164624468147712e-01
5.075167019826068993e-01,5.348501430630362430e-01,5.412177774230280125e-01
4.611717155868549911e-01,4.281032429573735087e-01,5.419123043906476367e-01
5.136290606242379653e-01,5.222413524148217245e-01,4.155735337784847716e-01
5.568463335219565602e-01,4.787726733789424149e-01,5.471169576841906634e-01
5.230545249122380280e-01,4.224543025156262122e-01,5.122044620565554540e-01
5.195760892475691506e-01,5.077659458796435210e-01,4.774787324539259137e-01
5.168987392903222622e-01,4.334069692656212780e-01,5.213354659949095415e-01
5.239626258357563682e-01,3.835824995289071060e-01,4.416669549814398743e-01
3.875258333597308424e-01,4.710863828920264784e-01,5.354617042371495605e-01
5.306250426088251482e-01,4.579363470480311560e-01,5.173113267041182795e-01
5.008673740848369471e-01,4.589399608301180100e-01,4.819580836378443145e-01
5.078527123763936224e-01,4.734051491810102874e-01,4.515977214529033890e-01
4.557836385429022696e-01,4.506273222168820092e-01,5.480927801073792738e-01
4.878329554936790546e-01,4.116407872628708442e-01,5.252763192293746775e-01
5.583772675965011922e-01,5.183223017446313419e-01,4.680799179328480331e-01
5.263560089233076944e-01,4.100972304174355099e-01,5.062677217667351792e-01
4.854617660217291908e-01,5.301847888096058448e-01,4.055096040695763127e-01
5.299483479974410605e-01,5.197856226938405433e-01,5.877182501024363903e-01
4.611452838411770894e-01,5.012105189261014671e-01,5.177526023581071613e-01
4.374056291636990168e-01,4.416517950929035874e-01,5.559971717224414522e-01
4.920934648023462255e-01,4.879266553383617699e-01,4.945801323991251275e-01
4.436047311892290512e-01,4.709420283730905155e-01,4.599832451051759086e-01
5.059094500663494642e-01,5.223322444819359367e-01,5.176903163522253992e-01
4.782698372785262886e-01,5.047446440687918257e-01,5.212790858805905758e-01
4.526328087875126638e-01,4.366775123868892883e-01,5.264337128302664093e-01
5.370649067198970394e-01,5.104683654165712570e-01,4.721231073131285649e-01
5.037854727525771237e-01,5.033769740227527212e-01,5.241597481112539869e-01
5.147371875484214598e-01,4.721054776576411594e-01,5.213657495249633955e-01
4.829922262164784708e-01,4.772496409691028840e-01,5.426113810715625929e-01
5.047267104543228244e-01,4.601638455179531961e-01,5.670506724880667315e-01
5.382304723219095699e-01,5.050766675954060370e-01,4.647385438741066799e-01
5.032808803392002650e-01,4.536315929252570656e-01,5.259315647954357908e-01
4.425692818155688157e-01,4.967656068481399734e-01,5.425317298620152551e-01
4.386549436006635383e-01,5.094176796676549435e-01,4.904696422219274043e-01
5.132731651708245524e-01,4.986849085777034785e-01,5.024913620497527544e-01
5.832094382000929667e-01,5.254417579355150636e-01,5.453376987513361973e-01
4.992798727000866688e-01,4.982161984703587509e-01,4.410237275089859965e-01
4.846813204614758841e-01,4.609678357271684845e-01,4.988287467191528379e-01
5.184205715844258933e-01,4.520170154143143826e-01,5.502597615507699436e-01
5.770454511838393197e-01,4.489777806910579261e-01,4.629923681195642904e-01
4.948298515966469968e-01,4.399619243591550988e-01,4.728561949713253054e-01
4.904316176986909803e-01,4.595107078479858664e-01,4.876234865428120124e-01
4.212354861824976759e-01,5.062941370124568463e-01,4.217677029439071412e-01
5.396179769029981754e-01,5.058956127453376750e-01,4.915324042804155025e-01
5.863267883222657018e-01,4.267377118902116462e-01,4.883731913975269401e-01
4.335287128074816199e-01,4.977187705460516809e-01,5.394796316518705170e-01
4.522812268946854175e-01,4.369959389396267935e-01,4.874335519101301584e-01
5.239899058251635822e-01,4.135627074098963685e-01,4.814247160999216568e-01
4.585111984730490531e-01,4.916416625059270573e-01,5.690953301034819001e-01
5.361517413895879880e-01,4.102779368376621161e-01,5.262639890143027133e-01
4.985287357704315525e-01,4.634953697076752976e-01,5.647779865135216237e-01
5.403237924398094361e-01,3.909276928238437088e-01,4.700643867398878739e-01
5.455916242367778723e-01,4.501262013223648606e-01,4.296343873029818128e-01
5.380900157539929562e-01,4.603172657214735231e-01,4.971952765772196248e-01
4.971605113836305989e-01,4.091421381021127512e-01,5.386954443480160837e-01
5.394430378028636230e-01,4.902941386437444926e-01,4.434176487360264596e-01
4.708665063527341377e-01,4.933429698529985252e-01,5.214307400615906252e-01
4.746994091369698410e-01,4.692380228820761667e-01,4.853099785568539826e-01
4.670091691905600140e-01,4.190350666344295760e-01,4.788978542913455705e-01
5.309053857397882936e-01,5.074396258207062305e-01,5.061585873447453920e-01
4.943894763434384387e-01,4.203389158023346783e-01,3.849523338045438003e-01
4.734226164009814886e-01,4.468110372188602297e-01,5.364685530004932312e-01
4.909870957227832622e-01,4.970778951456330530e-01,6.158369556722542715e-01
4.949578072320225397e-01,4.545371880624256011e-01,4.867947579428437144e-01
5.477342819165783583e-01,4.293548501618650315e-01,4.581689951697333063e-01
4.788124356456802122e-01,4.990351264766249573e-01,4.474998548069755167e-01
5.883216912400894838e-01,4.437009229367944174e-01,4.538214688287454668e-01
5.552786981110267028e-01,4.513901704520684177e-01,4.559037635301111391e-01
5.086596621624187575e-01,4.699205489416312109e-01,4.953373812125109188e-01
5.336772635934436959e-01,4.392673774586178803e-01,5.359414006483963488e-01
5.194171370443342317e-01,4.430281384193699434e-01,5.488381603935567066e-01
4.668514035570452414e-01,4.728617587766637542e-01,4.846022266956834801e-01
5.100057947691843951e-01,5.223459371748429003e-01,5.384227726382998513e-01
4.980868525495312227e-01,3.847381760653805771e-01,5.052802041683740475e-01
5.952375473631345004e-01,4.364200929369597692e-01,5.567008220439607635e-01
4.745561533797447162e-01,4.282710275497029762e-01,5.004334813982458385e-01
5.186668281131708858e-01,3.180474321618729228e-01,5.176807592057762752e-01
4.958216673075019898e-01,4.957314663506443564e-01,5.255623522619030652e-01
5.145276662226355713e-01,4.238993956876371816e-01,5.222272815364679133e-01
5.130668180270547829e-01,5.026310930810022892e-01,5.651361453542491642e-01
5.720586593507516193e-01,4.477074051656227960e-01,5.709187411242689913e-01
5.512093371830892874e-01,5.103643899627874347e-01,5.477694553592749038e-01
5.360231298494422258e-01,4.789995502228154844e-01,4.850459680333616963e-01
5.541135728475081734e-01,4.716942348045116695e-01,4.668825116922882268e-01
4.656193767533203243e-01,3.825088417390072326e-01,4.927781135264649448e-01
5.235997123020578181e-01,5.189685264104517692e-01,5.180324213799040178e-01
4.765293117399383438e-01,4.857236022791464047e-01,4.936010443827011929e-01
5.124307822699445403e-01,4.102286442081696238e-01,4.933856835843357658e-01
4.601504433455246290e-01,4.906268725063489544e-01,4.860595208711779303e-01
4.819482819537257989e-01,4.712233355281718050e-01,4.915776820109542533e-01
5.191887201232077143e-01,5.241105739024848331e-01,5.245843281613462583e-01
5.169330013317136041e-01,4.404367747523013077e-01,4.066938195023201419e-01
4.342315007316273623e-01,5.149026915166406981e-01,4.793270042136795750e-01
4.564176433235005992e-01,5.197485578151515018e-01,4.455905593809056930e-01
5.090589559879965531e-01,4.561622329337461368e-01,4.990176070288346866e-01
3.967769749754046504e-01,3.915137750878783240e-01,5.262138047328869250e-01
5.307987828739323399e-01,5.275806383396098864e-01,4.842303028126067055e-01
4.578669078064149800e-01,4.300657979644311180e-01,5.227769601017837608e-01
4.912158357508659701e-01,4.436383287193136349e-01,5.037996070123956782e-01
4.597663264628271129e-01,5.090401656513273698e-01,5.029242839034337997e-01
5.207474649578339720e-01,4.811566410570681240e-01,4.367001146329704819e-01
4.979192731036923281e-01,5.711711541885703403e-01,4.589124878729934909e-01
4.771182479509524232e-01,4.394439453915640059e-01,4.797296583521596935e-01
4.913688302145001741e-01,4.023151758130388833e-01,5.157226525555339558e-01
4.847399779356716953e-01,4.402057433435791478e-01,4.941986332391503645e-01
4.576230658168544130e-01,5.012776839074791768e-01,5.971335357992951787e-01
5.078552181127348186e-01,4.847080317316249665e-01,4.471040305511893576e-01
5.304838992447727941e-01,4.821835674133744254e-01,4.722088059401767790e-01
5.236988285745944882e-01,5.345117722288598161e-01,5.527368068447192639e-01
5.084634569049192310e-01,5.061881265468265445e-01,5.009202927449408760e-01
4.326173180968426735e-01,5.107496142126627392e-01,4.775176074988372599e-01
4.687950599002694840e-01,4.188909641095251990e-01,5.088510074760805857e-01
4.114464473920835808e-01,4.695109826057086155e-01,5.119411216703629863e-01
5.141196357367963099e-01,4.807650323002896076e-01,5.187243404304257011e-01
5.926713926874619398e-01,5.157750140651750081e-01,4.686058635436295416e-01
5.264254409986737215e-01,5.152011553633593088e-01,5.190581528893553065e-01
4.667982083377686942e-01,5.194615339714325764e-01,5.122859253498935894e-01
5.215314563527185809e-01,4.868496279213962996e-01,4.679667138734431853e-01
5.434885958579989129e-01,4.886587615446900124e-01,5.764934816563194175e-01
5.054416129731772456e-01,4.645178706504257127e-01,4.633186084042108521e-01
4.529931965191649756e-01,4.779819503106323419e-01,5.024603984875650742e-01
5.779082122542722466e-01,4.265794459496408675e-01,4.544396562800457895e-01
4.731836637332598738e-01,5.031032379239955832e-01,4.724547404836864639e-01
5.552948509653432563e-01,4.847494372753328173e-01,5.327811145574334883e-01
4.615974502998039797e-01,4.621983131052700977e-01,4.842832849045304866e-01
4.928815447091449697e-01,4.715842107024625363e-01,4.565236244942169619e-01
4.758622413194186218e-01,4.575553755269891609e-01,5.718096174283748834e-01
5.353863097826830897e-01,4.649547689866566080e-01,5.445853573123340396e-01
4.478197877721530329e-01,5.174291914716879770e-01,5.375813741750730124e-01
5.187025720887187274e-01,4.910899593290724008e-01,5.171203692345781588e-01
4.944594369605126993e-01,4.377418029115675568e-01,5.159118020198374399e-01
5.830040108369158869e-01,4.546090528878967141e-01,4.605310491134184114e-01
5.137459514679356687e-01,5.382004762352078364e-01,5.142464495869299990e-01
4.942315182534174900e-01,4.998424452363431358e-01,4.897145396372827864e-01
5.518061832925128529e-01,4.398960283549179784e-01,4.552744854485576420e-01
4.700416362388366021e-01,4.532108187549332423e-01,4.498000387320483795e-01
4.726512827244013226e-01,4.760145878846366307e-01,4.548654581389878770e-01
5.223381911696427515e-01,5.269353398759133444e-01,4.825356526570710458e-01
4.900634652027940907e-01,4.914498106439142977e-01,4.721453700117237418e-01
5.609623423283055521e-01,4.747544325463559645e-01,4.696898014873642224e-01
5.582425373696792148e-01,4.354866346961427381e-01,4.975936178519148045e-01
4.824726440597235100e-01,5.090021329726542865e-01,5.029434966345304181e-01
5.331265360342801740e-01,4.989658952433326244e-01,4.933979892105891385e-01
4.429316494907822865e-01,4.556339801074439921e-01,5.704502028395092017e-01
5.491880483587673334e-01,4.161868031856423844e-01,4.087865202481897886e-01
5.078519600758315544e-01,4.661358005098814039e-01,4.594950893486135501e-01
5.038082156742152984e-01,4.859340669645225708e-01,4.467633037288034070e-01
4.916106219227042717e-01,5.017679080418411264e-01,4.361140123932188972e-01
5.399463380887216113e-01,4.724548619650825731e-01,4.995264960673021504e-01
5.262831965634467979e-01,5.097262183783073386e-01,4.582191992614463305e-01
4.627346544100316983e-01,4.529866543588418892e-01,3.956905842962501474e-01
4.703319269900526622e-01,4.760131307377351018e-01,5.042174946563339200e-01
4.867384963921838059e-01,5.126912498069663426e-01,4.711980968189402041e-01
5.626316577699945753e-01,4.815969887798837168e-01,4.175793721913284018e-01
4.580894064780441921e-01,4.934000304035057738e-01,5.401362516552965509e-01
4.639432819541911002e-01,4.793870499756600623e-01,4.900549893522576639e-01
5.002596650486303975e-01,5.268057270059930408e-01,5.560565137359719801e-01
4.964260444816762097e-01,4.525946298265456358e-01,5.020739408618668520e-01
4.569030347997017905e-01,5.158141979308066283e-01,4.561788049993591443e-01
4.863132198201505774e-01,4.820783626646611419e-01,5.178257389151410539e-01
5.724689730126817366e-01,4.726449604314948427e-01,5.174489226330323266e-01
5.271073271268408300e-01,5.059327277568415049e-01,4.594773904479310667e-01
4.538240654617394232e-01,4.135185190275798561e-01,4.688308106397600095e-01
4.983782674803634016e-01,4.918240354214530874e-01,5.353305366870074744e-01
4.963169288949502156e-01,5.146673800506139651e-01,4.606197194895986224e-01
4.590893917682510317e-01,4.766773450761581654e-01,5.293920717407785137e-01
4.574330612058770118e-01,6.223104091812877714e-01,4.874711994123117065e-01
4.667924348049723449e-01,5.131207711245433511e-01,4.374064964149173562e-01
5.071711278519188681e-01,4.804288087615775638e-01,5.282830058493739323e-01
