accel_x (m/s^2),accel_y (m/s^2),accel_z (m/s^2)
2.284524980826398415e-03,-2.701972374796382265e-03,-9.790662142296307380e+00
1.950758021804595592e-03,5.149578582976718256e-03,-9.798828642866919125e+00
5.569461995105199140e-03,9.869363615786545807e-03,-9.799870277567025667e+00
-8.058048607596475033e-04,7.058438015223285518e-03,-9.798498327159535393e+00
3.255674387871982213e-04,4.990787660777406534e-04,-9.786337824875309011e+00
-2.938117425751177116e-04,-8.413622589446966005e-03,-9.796800994800697993e+00
3.379571454058581583e-03,1.113042921403711494e-05,-9.794103259346295332e+00
-7.069163636696432608e-04,-8.966878693944094203e-03,-9.802446993863043190e+00
-6.546684427922395098e-03,2.806036446899346989e-03,-9.794211528037280345e+00
-2.549202069411328226e-03,-1.032489470692635539e-02,-9.798705550219560578e+00
-1.749671682345489525e-03,7.099685087458041353e-03,-9.808616962858168975e+00
2.235959073757855329e-03,8.684385863290691732e-03,-9.793550489255288483e+00
1.408682668086683491e-03,-5.557670604428311669e-04,-9.791045236854888145e+00
-1.312523713325465698e-02,-8.438116325702973985e-03,-9.797542235778987418e+00
1.929363591099685820e-03,1.480389552758375454e-03,-9.784686732183216051e+00
-5.765510352264992082e-03,-6.343001272239788026e-03,-9.814363931165095423e+00
-7.831610468114447946e-04,-2.482071548666876445e-03,-9.791683708563830635e+00
-1.740293357775021376e-03,-3.986920355551123833e-03,-9.790410606311617414e+00
-8.021797544814792237e-04,3.827872570658617107e-03,-9.793444127048784864e+00
4.700887683087488431e-03,7.630611295415565092e-03,-9.799041050293954669e+00
2.274809096675524823e-03,3.883302235051935749e-03,-9.796512810018061401e+00
5.379625229951551582e-03,4.213553386429312250e-03,-9.803982385669216981e+00
-5.827228712290022372e-03,-2.197889514249862057e-03,-9.806608871421531148e+00
-3.992545230615754913e-03,-1.681714052313429148e-03,-9.803037622540193397e+00
-4.909035702420867960e-03,3.629821201918951483e-04,-9.800332250118938049e+00
5.815729164450304453e-03,-5.683189010950326532e-03,-9.795686328020124733e+00
-5.170895960526469132e-03,-6.026887949597981714e-03,-9.788355413472658029e+00
5.259534288758629592e-03,-1.236832649880536400e-02,-9.807911193168441955e+00
3.478486736846971711e-03,-1.310698361997329796e-03,-9.787042321124562960e+00
-1.463275533569095323e-02,-7.705450289499222311e-03,-9.793928168704454151e+00
-4.505243781409108347e-03,-3.500733106007883691e-03,-9.807992774032815220e+00
-1.079149756053385430e-03,8.415310516760489065e-03,-9.780085721564015344e+00
4.887023381996232277e-03,1.823582810740326677e-03,-9.813382645612090727e+00
9.056088015393905233e-03,-7.296086104252414231e-03,-9.789817581622815013e+00
-4.372892015591975379e-03,-1.358203119257403099e-03,-9.792037377090473171e+00
-9.727815122381302040e-04,4.511668649531141474e-03,-9.802471536390681806e+00
-5.235262155005977747e-03,-2.835556081627188876e-03,-9.798724440848941342e+00
7.345695890465449816e-03,-4.634689069139587281e-03,-9.805872573813811499e+00
2.771522731999850712e-03,4.266824182805781587e-03,-9.791510231979291490e+00
-6.568500069223924022e-03,-2.282011549532322447e-03,-9.787405030257177785e+00
-1.563267116959201784e-03,-4.459948033710098986e-03,-9.801523539160006848e+00
-2.074679044080508350e-04,-6.256873695436860044e-04,-9.790977837988863897e+00
-2.308584407893632742e-03,-4.670299466092107769e-03,-9.801228437033175922e+00
-4.579153302334250386e-03,-4.988674845567729783e-03,-9.789259785935426450e+00
6.500327741178001106e-03,7.670001076757144987e-03,-9.778889278691453413e+00
-1.268585875668184907e-03,1.989149965961052417e-03,-9.802076183349658578e+00
3.258476735978534794e-03,-4.836183076125872941e-03,-9.787809340569427974e+00
6.599441629949803420e-03,-8.364749317406643602e-04,-9.772745893386554528e+00
6.171215047150768393e-03,3.807651470472025058e-03,-9.797918526714335385e+00
1.366683183285088109e-03,9.238412200446621044e-05,-9.801664414919656565e+00
-2.987167404772225494e-03,2.725589287949064816e-03,-9.800574295133021252e+00
-3.370511501867248794e-03,-2.905617955553321460e-03,-9.792551681189738844e+00
9.595395028143892217e-04,2.546206064262294781e-03,-9.801987912718180596e+00
-9.891287569402493381e-04,1.027053450147647450e-03,-9.785401620461462002e+00
4.016298438075002991e-04,6.800760770435961867e-03,-9.786016884204510546e+00
7.622097964804334935e-03,3.748263238436664018e-03,-9.795334068291960961e+00
5.604164497967729572e-03,1.975831605305313626e-03,-9.794399060515001310e+00
-1.051447833655352274e-03,4.979585276327905784e-03,-9.793878332429374112e+00
-2.400491495708862669e-03,1.481117181739780887e-03,-9.793578225503976498e+00
-1.285234149892216810e-03,-1.371444226197342416e-02,-9.794297339999141983e+00
2.811147853952848056e-03,2.994916073476651223e-03,-9.792906112584558898e+00
7.137062381576608425e-03,2.842566808620177691e-03,-9.788419315763281503e+00
-3.178536178225761875e-03,-1.043410290370762675e-02,-9.799048508999684159e+00
7.678160838929360722e-03,8.872982395365960201e-03,-9.800745366910941669e+00
4.810998783142473971e-03,-8.050023016894850003e-03,-9.793818023412361740e+00
2.491365385788803000e-05,-3.184970811950434914e-03,-9.791724351683546601e+00
1.289061072039297253e-03,-8.404048733645315405e-03,-9.787112463119409966e+00
-2.216318203598713354e-04,-9.903488751976885496e-03,-9.792787222410213488e+00
-4.522098533587395192e-03,-8.189873468571069390e-03,-9.813131320155767057e+00
-9.211256021673287428e-03,-3.653860327867614662e-03,-9.798160574533161693e+00
-2.051446756071825545e-03,4.013517824818841999e-03,-9.800326309915906364e+00
8.002024157418932433e-04,-4.448946583351507029e-04,-9.789195226297668029e+00
2.009873511340016464e-03,-1.204358694673362444e-03,-9.809892518666892158e+00
-6.117801579045578815e-03,-4.904342179112048880e-03,-9.804865498518179123e+00
4.512296840623571462e-03,-1.146731467462299391e-02,-9.788695715710554524e+00
-2.272587790280038850e-03,-5.463976045302376162e-03,-9.796019406335034319e+00
1.705447517643521056e-03,1.357070303791960923e-03,-9.794213144517240011e+00
-2.385579922047874335e-03,6.824390367358015158e-03,-9.788413248696697266e+00
-1.776429299964805975e-03,-1.540913451949573951e-02,-9.791117114580675462e+00
-1.317750849521982077e-04,-6.192639484985231445e-03,-9.809786430854392947e+00
-1.291079714028126220e-03,5.910471014187523159e-03,-9.793126830247414816e+00
-2.329896777637307983e-03,-1.183754250512248328e-02,-9.800277485627240992e+00
1.118129898467094645e-02,-5.332322008388959249e-03,-9.788352783871925311e+00
-1.145778167201523881e-02,3.522647953957662274e-03,-9.794616297116837345e+00
1.947049962336600340e-03,2.663621830369051428e-03,-9.785229480589507034e+00
-1.316499491418960050e-03,2.559684947905814176e-03,-9.801578851659439096e+00
1.553288219012088954e-03,7.009878816182811209e-03,-9.789687479065023012e+00
3.434043939392430501e-03,8.009820785057988630e-04,-9.800121917518294978e+00
-3.822034639304507531e-03,-1.060339001534912895e-02,-9.804539617075839431e+00
1.404105157906653488e-02,2.038496346240432477e-03,-9.786044759086895084e+00
4.711947670679065420e-03,6.327152782830484413e-03,-9.801888123156423660e+00
6.785126906831178556e-03,-5.211136375205558356e-03,-9.801391048314840759e+00
-1.024219340399241604e-03,-1.543121960430424372e-03,-9.790855361238659071e+00
-6.675341502347297224e-04,4.360274473564034262e-03,-9.784412008784590498e+00
-9.613306917293704384e-04,3.842274599238865249e-03,-9.789374346117433845e+00
-1.701921698683994840e-04,5.299859043265540970e-03,-9.791979481449917699e+00
-5.168821927880088395e-03,7.775422977116034501e-03,-9.785452155354384729e+00
6.201050828733259586e-04,-6.414051969138837364e-03,-9.800466269708104861e+00
-4.707387874570502333e-03,-9.717239960409046473e-03,-9.803893048426861156e+00
-2.579225806783942265e-03,1.029500760904399764e-02,-9.814453318883188615e+00
1.018553232049105412e-04,2.364342221606285151e-03,-9.799014215784524140e+00
-1.866461056103190213e-04,3.075535893096963038e-03,-9.773042810633452149e+00
8.528931283964761439e-03,1.314376531450521871e-02,-9.800866393717097225e+00
4.318258209015244514e-03,6.986558285702027492e-03,-9.783594398634351208e+00
-3.855952233623980135e-03,6.179391738779683053e-04,-9.789730161060445468e+00
-2.118288735167381254e-03,-3.228126386229950798e-03,-9.794324465175492378e+00
-2.545173500849632568e-03,-1.828423609572628296e-03,-9.801769188304998437e+00
4.336648783503071689e-03,-4.733792089214100204e-03,-9.802721938045101169e+00
-1.751328596195634224e-03,1.840022248711774234e-03,-9.794162173992116749e+00
7.551635639927552907e-03,-1.627429250492870268e-03,-9.809951129903252465e+00
5.556885784467673018e-04,1.233382931144154197e-02,-9.795856118861429707e+00
1.272990505274468418e-03,-2.109090926934992401e-03,-9.788368495010566050e+00
-7.553101228768979887e-03,4.264288909382183898e-03,-9.798137183993810950e+00
9.198223244471269780e-03,2.353391733000161253e-03,-9.775867020285897269e+00
3.896516078329021263e-03,-4.222615726919390876e-03,-9.782224045664174028e+00
1.313316898201826420e-02,-2.005532421791288503e-03,-9.802292485312396053e+00
3.836411337197489189e-04,-6.203716065272065275e-03,-9.791088661258672943e+00
-2.211667558141402947e-03,-3.685732515103243637e-03,-9.786793390346170796e+00
-4.615226460624964437e-03,-3.456284070192753525e-03,-9.798406402562433115e+00
-6.436485422176969201e-03,1.602994528885608730e-05,-9.798183657624042198e+00
6.769339603300119149e-03,-1.670343430834805463e-03,-9.782181584309139311e+00
-5.574766071877607261e-03,-3.917009013955866786e-03,-9.779287194169038244e+00
-1.234843034860333378e-03,1.816788276766028885e-03,-9.792044311498880660e+00
-5.006404387665762444e-04,-1.153805398110595640e-02,-9.782229082157599009e+00
6.144662776572698895e-03,-4.282987465332823741e-04,-9.796081781509698772e+00
-1.864543187420900821e-03,-9.787163392335792959e-04,-9.796141680369670368e+00
-4.190599310562585778e-03,2.768876782747844382e-03,-9.800439126200817697e+00
2.464965105886793642e-03,3.418257961985090611e-03,-9.782870441084490665e+00
2.488286929871219230e-03,2.488250940526253244e-03,-9.784581893603890634e+00
-4.796647846029530632e-04,1.288330558718317779e-03,-9.800862265482427560e+00
-7.556303463843275529e-04,1.361248663369724748e-02,-9.789814269453083639e+00
5.100334362503873044e-03,-2.887241767142200918e-03,-9.795485415580646560e+00
-9.768133070913033282e-04,1.218422603026538898e-03,-9.806910133247743744e+00
4.537718431069425427e-03,6.613645732164224675e-04,-9.792642684757540295e+00
-4.461956462035369594e-03,6.266221757206828693e-04,-9.805565781182801643e+00
-1.748365064184727617e-03,9.539439289923977439e-03,-9.790436056229554040e+00
-3.550214707646018493e-03,-1.546341935459643680e-03,-9.798353837094719410e+00
-4.728598159275927172e-03,2.660967949309267673e-03,-9.786539915919112431e+00
2.388972212206380563e-03,-5.794418461552911306e-03,-9.786496864102700144e+00
3.373231973766492760e-03,-3.820943948633604217e-03,-9.796621166695411276e+00
5.116953075806540338e-03,4.201449629086397887e-03,-9.793106965519495333e+00
-2.691923755664896688e-03,4.144560737637133924e-03,-9.787201199169254906e+00
3.168411979281310874e-03,4.234692884767739078e-03,-9.804771282351278927e+00
-5.429766822207002068e-03,-4.167392248857166442e-03,-9.800186128998221946e+00
-6.473126947307018472e-03,1.627673269492245847e-03,-9.799976086916410978e+00
9.840763741972614193e-03,-4.561740998277240278e-03,-9.779532468749772889e+00
-4.847728508000234693e-03,-1.735310018288758636e-03,-9.788841829443130749e+00
-2.982619760168487774e-03,3.146193086498245885e-03,-9.796818774965771581e+00
-1.106336192831867959e-03,6.354620947221954579e-03,-9.788464010495731671e+00
2.048160242335232868e-03,2.733740402736579457e-03,-9.792683178333861704e+00
-1.127310184136613800e-03,-2.142536920506296193e-03,-9.797607680330342461e+00
2.594869352099740071e-03,-7.029725655630390813e-03,-9.795379176603479010e+00
-2.253212553445912026e-03,-4.793934028489998250e-03,-9.792214071851466528e+00
7.220753679888510619e-04,-1.776145914124772213e-03,-9.793440897250251354e+00
-4.842062333113188351e-03,-4.714139252810129604e-03,-9.802317444405863611e+00
6.653116391616253032e-03,2.506173844018925925e-03,-9.789015033408983157e+00
-8.630991884807339342e-04,-5.286588265631085755e-03,-9.803242031998671280e+00
-3.596575846742039190e-03,2.039931035578153415e-04,-9.799026628508549663e+00
1.893019826437825851e-03,-4.012361273600578704e-03,-9.796273298090401482e+00
6.637160733115694475e-04,7.350547722347352099e-04,-9.793570043787035218e+00
-1.107537918945669143e-02,1.256173629141065602e-03,-9.785816066908870070e+00
6.404537508191815963e-03,-3.911375863415339146e-03,-9.794770842107144659e+00
2.447574471534742779e-03,-6.294022355955102878e-03,-9.794522438439090095e+00
-6.169169447912608434e-03,2.675154971541465667e-03,-9.794783694290002174e+00
6.301416612167902963e-03,-3.058246457781248814e-03,-9.799615492044008391e+00
3.032333898890899118e-03,-4.119153227329255644e-03,-9.791978969071003291e+00
-7.708044882046552818e-03,-6.006281442570662009e-03,-9.787214218980714975e+00
4.487947692543205885e-04,-1.075257827185977086e-03,-9.798722028712884224e+00
7.548833260580664270e-03,-2.332394709681289650e-03,-9.806845439185485347e+00
2.875261493239215254e-04,-7.751630625628181011e-03,-9.804264695166944321e+00
-2.577084715774526340e-03,-7.370547640743968162e-03,-9.796803984554355083e+00
3.139296536613317770e-03,4.601102679865756500e-04,-9.789872154662049297e+00
3.057995554403050362e-03,-1.241275575816188801e-03,-9.802216703017576194e+00
-2.353886485880599989e-03,1.480957573708961824e-03,-9.783902864008394928e+00
-5.836434944562749784e-03,2.405769547526036539e-03,-9.802656023539013219e+00
-2.380767219636993268e-03,1.434197405414498749e-03,-9.787744275732467969e+00
2.340814737139505775e-03,-2.284113699371041490e-03,-9.802384310496615072e+00
-2.585322107146608133e-03,8.819342881375624374e-04,-9.795453536452567889e+00
-4.133680468391093960e-03,7.090906630731935549e-03,-9.800986226184722483e+00
1.736831195149276391e-03,1.961487510604409921e-03,-9.795477723859660202e+00
-4.938111567493803054e-03,-2.020831743996043869e-03,-9.797481326580333771e+00
6.153648089768393517e-03,-2.410710218778007365e-03,-9.792232782620111209e+00
-5.731616152571466886e-03,-6.704150025382710557e-03,-9.799887945501629005e+00
-9.876579389948557733e-03,-4.653421466278478101e-03,-9.793190729632204494e+00
1.015614953220033475e-03,1.416906251982453244e-03,-9.790381109347062960e+00
-9.451961113786499363e-03,-9.512991718683116646e-03,-9.785680419937598629e+00
-8.216695982594540010e-03,1.048686700453947684e-02,-9.789593355157133914e+00
7.721974241441597556e-04,-6.546729911950238678e-03,-9.801077515892032466e+00
3.586135012589994862e-03,-4.280223288488428993e-03,-9.794078785212528615e+00
-2.884409915061634643e-03,-7.940649538246671770e-04,-9.786733969916062037e+00
-2.369341137867420240e-04,4.859024022127487324e-03,-9.795216660598796921e+00
-2.994079779634562823e-03,1.767947434336676182e-03,-9.791256330457747126e+00
-1.336759667022923218e-02,7.725064983375613814e-03,-9.798498956879502231e+00
-8.536562705167966697e-03,-1.858241876765622186e-03,-9.794517945349742405e+00
6.790148997214750203e-03,5.260984609849074685e-03,-9.793891097944904089e+00
1.290992020673650820e-02,-1.261298912142937677e-03,-9.806656056969559998e+00
1.866758721143277084e-03,-2.005861398532723591e-03,-9.807571144772209593e+00
-6.948396871500773370e-04,3.156472243199888081e-04,-9.785206597407983153e+00
5.852562645370614110e-03,1.802566039763653762e-03,-9.802196033135542663e+00
-4.681171091629603999e-04,2.180123394964927257e-04,-9.807944485931638923e+00
2.485285362150246261e-03,-3.688943439584620090e-03,-9.799121775393951239e+00
2.005871210528495027e-02,-5.174881227407789963e-04,-9.802014044143964711e+00
9.818399919369809672e-03,1.438845289920689463e-03,-9.788000708416614515e+00
2.557464691341318572e-03,3.961613361750075321e-03,-9.785304456565675935e+00
5.039742790459249971e-03,1.744580747861899060e-03,-9.795594055519933008e+00
8.766492816496725127e-03,3.596337761775811933e-03,-9.809934104488016615e+00
1.549880977890098332e-03,-4.616746504848159502e-03,-9.799141662631031480e+00
9.257528573572733691e-03,1.168580263809448037e-03,-9.800381373147969200e+00
-5.804823458637631967e-03,-2.444906940509484691e-03,-9.790430371656970721e+00
-3.131688076967863166e-03,-2.861626301961752621e-04,-9.787818133317934155e+00
2.479835710960888364e-03,-3.245215712359518674e-03,-9.782569070405104483e+00
7.796701215683928682e-03,-6.855348467859914696e-03,-9.788254903331875312e+00
1.950686304025264902e-03,-4.544459215743838418e-03,-9.797925010532376078e+00
-3.789673065671864561e-03,2.186435451092461155e-03,-9.797411925565649327e+00
-6.705907873839228074e-03,7.585106513746546486e-03,-9.789060224727681003e+00
2.636506964432436956e-03,6.705825382188917994e-03,-9.789642605802388431e+00
-1.004014695426183254e-02,1.979579988587039027e-03,-9.790112546326691145e+00
-3.022316235167597353e-03,2.083494172341525136e-03,-9.785351853455791726e+00
8.507299750444943451e-03,-6.051320665254431193e-03,-9.796864470198542563e+00
-1.185385892586618764e-02,6.566725607872011226e-03,-9.789292984715283197e+00
2.179742146945855361e-03,2.843111300804896779e-03,-9.804067990171359881e+00
4.145067240949497876e-03,7.887233754417901851e-03,-9.782054724323533179e+00
-4.086951467770248009e-03,-3.765881494757694018e-03,-9.789497560180066671e+00
1.944476594007651764e-03,6.208625162400192854e-04,-9.801493671736075441e+00
-5.017840494987445971e-03,4.218765609568464470e-03,-9.796819562803088743e+00
-7.051173611219865509e-03,2.441210705165250058e-03,-9.778783856975092448e+00
-3.337666557043012395e-03,8.346718155030631928e-03,-9.804860565404737827e+00
1.737617659753447515e-03,4.264856257311554905e-03,-9.797668554702717358e+00
-5.997622280378404501e-04,-9.603036684521334271e-03,-9.804049977519133208e+00
-8.598341993002078798e-03,4.799411633531903108e-03,-9.799007566642515599e+00
-9.151789829933990256e-04,-7.511581342540482771e-03,-9.800455274393508276e+00
4.718276316217685264e-03,-9.593139873476908518e-04,-9.787553984450390487e+00
-5.012188766356983835e-03,-7.604603567366269128e-03,-9.809454990070245017e+00
-1.353826902699469025e-03,9.967449103134833760e-04,-9.794746293272327264e+00
5.232810740488914175e-03,-6.694373189887429555e-03,-9.795613572739338082e+00
-6.664370623938101895e-03,9.244183217266062347e-03,-9.785301834085421646e+00
1.646665980669641423e-04,1.521539508611642741e-03,-9.804409627168947594e+00
-4.758729628302069831e-03,-5.407656513087477287e-03,-9.780518638107009721e+00
3.305941556599027893e-03,5.038653761307907049e-03,-9.786890427489121080e+00
-3.067045650294324046e-03,3.317529155204210212e-03,-9.801235252321673030e+00
-3.346298131549573038e-03,-1.833607954437063356e-03,-9.816868830857305994e+00
-2.924126489220573973e-04,4.353076644270908319e-03,-9.778085709561896266e+00
-1.083611802417761526e-02,4.759071749568968119e-04,-9.801691499891882486e+00
4.986520306699625260e-03,4.718895391322351120e-03,-9.797332380446363231e+00
-2.882513145917938498e-03,-4.017540715778720149e-03,-9.803588596818805456e+00
3.883685356316043838e-04,-2.473446776514503110e-03,-9.793493729463632391e+00
4.425758707198892668e-04,2.201211033243815913e-03,-9.799380531407095418e+00
2.698025841501210022e-03,-8.760190022708792476e-03,-9.782780176153417884e+00
-3.479335310836623760e-04,-2.519898051136237622e-03,-9.785267672986071474e+00
-1.228189948853713239e-03,1.476915018246758790e-03,-9.793533906982641923e+00
-2.125073683335670493e-03,4.963482580459958925e-04,-9.805108546692210325e+00
-3.958811452965173630e-03,2.370756056266495708e-03,-9.794210075476351918e+00
-4.070921076703385745e-03,-1.028585335044651791e-03,-9.789120557925274468e+00
-3.774516238464209646e-03,3.485161324051636294e-03,-9.800837817419960629e+00
9.215510231736506394e-03,7.225582515251887522e-03,-9.786053526992580132e+00
3.391285266885258210e-03,3.188104232420289810e-04,-9.794885304277363147e+00
-2.855484204367296237e-03,4.318263093055111496e-03,-9.805099792552177007e+00
-6.413783421363869301e-03,2.121554205731426276e-05,-9.796717098776310806e+00
7.745894131670071243e-04,4.772382689117064987e-03,-9.784920346094342136e+00
1.529250233423509048e-03,8.671365829238664169e-04,-9.807924583805133878e+00
6.596855572540250663e-04,3.272853810596707859e-03,-9.798080176572691258e+00
-9.259833950906343767e-04,-1.636283281042277870e-03,-9.806758995482164565e+00
-1.143269580320524850e-03,7.057715797916036191e-03,-9.790878275322732804e+00
2.471372550979272081e-03,-2.351708490067706998e-03,-9.792708986710632502e+00
3.817048087475150356e-03,-7.811457713444303584e-03,-9.797816509379025263e+00
-3.623973501125279679e-03,-5.890249710232586464e-03,-9.797670614803909217e+00
-2.688555279012095137e-03,6.921880642896312621e-03,-9.788155165302812932e+00
-5.302196183151357050e-04,-4.033059712392901910e-03,-9.792832073685984184e+00
1.535305456271397230e-03,-3.461773652722356653e-03,-9.794615014401172104e+00
3.779538213981474722e-03,2.300171909645793312e-04,-9.785419825151304707e+00
-8.129182095294987601e-03,3.024905927251708617e-03,-9.783543752152361606e+00
-1.273806020513169011e-02,-3.122009274967765379e-03,-9.792900969299100922e+00
1.558739871489824924e-03,8.106550663800213274e-03,-9.811608822125908347e+00
8.384700549998467590e-05,5.552684311246516846e-03,-9.807034071429779232e+00
7.983475210827385357e-03,5.086217328242091142e-03,-9.789300668761676150e+00
-4.376204373635948428e-03,1.177208159649680529e-03,-9.784995040822462187e+00
-1.608289854974595621e-03,2.277039095146459521e-03,-9.802350883116455194e+00
1.401734839934498222e-03,-3.362989803922410668e-03,-9.787589162842865065e+00
2.619606015540063178e-03,-4.125648569247951716e-03,-9.792961477923565639e+00
9.994702159872380365e-03,5.892592909971720687e-03,-9.795836538941365745e+00
-2.854743602098520211e-03,-4.727896895583785395e-04,-9.797353840315608409e+00
6.104404060470356060e-03,8.283346838705435422e-03,-9.793723865474786905e+00
2.767585033510261763e-03,1.835647458143678848e-04,-9.794706911827919527e+00
-1.550646704360595816e-03,6.497316379503997180e-04,-9.802036798113515914e+00
2.946871865589137905e-03,-1.245409350547233441e-03,-9.785778213134904036e+00
2.685406684533419089e-03,6.108756162904325354e-03,-9.778709441190283513e+00
1.444297719044938593e-03,3.659032748562920196e-04,-9.795725510140018244e+00
-1.464356659674476927e-03,-9.542616793402812492e-03,-9.810638083227747330e+00
7.212195381556325835e-03,-4.529931340149415640e-03,-9.810798214368732673e+00
5.231073138578999117e-03,3.729021210660058740e-03,-9.795949934368774592e+00
3.126990225013569040e-03,-1.654962181103558205e-03,-9.793337227369102393e+00
-7.000272323703295163e-03,-1.592427230375355936e-03,-9.780517662503628529e+00
1.444485185158660449e-03,5.275776015561385764e-03,-9.800293662970572584e+00
-1.680035513955816569e-03,3.562162279928591494e-04,-9.798739363662386737e+00
-1.904056026664062721e-04,-7.412763448088688714e-04,-9.795421454664674954e+00
-7.706771871096140380e-04,6.429641794537215363e-03,-9.800211382731161436e+00
1.100537312829032860e-02,-4.034704174094313686e-03,-9.793758374993238647e+00
1.008576466089473357e-02,-6.819728116039645502e-03,-9.802251440135952620e+00
-2.170463806109140022e-03,2.772565999070954385e-04,-9.794568857728661371e+00
1.495642954139396008e-04,6.051777143535032322e-03,-9.797606924904966874e+00
3.167709304381746693e-03,5.490515254880707317e-03,-9.787089757403256485e+00
-5.915825628453028756e-03,9.065087203582487124e-03,-9.806502891723754445e+00
-5.535668585694952272e-03,5.482890174684125484e-03,-9.797723900521889462e+00
3.157330331312844206e-03,1.176380339875883127e-02,-9.789129616051701177e+00
6.326611240293513599e-03,-5.930356969080399603e-03,-9.810035190964509155e+00
4.846746674136829559e-03,5.455075936434319178e-03,-9.791829737127340394e+00
9.227315609928687240e-03,-3.732734676053034006e-03,-9.797226456945297812e+00
-8.220494076528698374e-03,-5.656734641312048673e-03,-9.815338774855105086e+00
1.181220479775934662e-03,-3.656376965196206624e-04,-9.802813316908897789e+00
-1.343082722828271196e-03,4.909549261979344499e-03,-9.782510236098307388e+00
-3.226671699450749456e-03,1.821147802805312852e-03,-9.791187550276157836e+00
-6.157476399059598135e-03,2.209754383588877647e-03,-9.795004745045586603e+00
-3.248696228042362473e-03,1.235630037773113778e-03,-9.797457039300514481e+00
2.293794451051993106e-03,-2.720295765081254171e-03,-9.800330094353235211e+00
-2.563166360505599733e-03,8.730993410667683280e-03,-9.787356433450820958e+00
4.275503547733474838e-03,-1.813168435861749455e-03,-9.787055500715982959e+00
4.275919934475974453e-03,-2.308007638534552430e-03,-9.797192084272245083e+00
-2.018720363771740484e-03,-4.837842140095539628e-04,-9.798605280591935696e+00
-2.230427986423286473e-03,1.991519644102688908e-03,-9.795041658649033423e+00
9.599112710453402628e-03,-1.342030008882089207e-03,-9.797320418940245190e+00
-2.015416934824531062e-03,3.866195269294317536e-03,-9.800144649037568101e+00
-2.634408776444791575e-04,2.564426549834119065e-03,-9.788378632765256881e+00
-9.892459056716782027e-04,2.267708269957361810e-03,-9.781211702210624637e+00
2.495571053852492158e-03,-6.939774916802611375e-03,-9.804688081098474228e+00
1.232488000723203775e-02,-3.790776578882238627e-03,-9.792940169532643679e+00
4.462976139121564538e-03,-6.113465943416617615e-03,-9.809192223838692826e+00
-3.003267628399916307e-03,2.971059919632818968e-03,-9.787673405952286743e+00
1.529674587354015649e-03,5.736285823410971173e-03,-9.803570265100958636e+00
-1.396629653529577169e-03,2.741165735803762372e-03,-9.790754136547340281e+00
-6.814115097576879665e-03,9.106298590404285007e-03,-9.803963114967856995e+00
-1.732108916375697978e-03,-5.181872134419563064e-04,-9.800876501868792445e+00
-6.082167634903466041e-03,9.890095224879022311e-04,-9.786420178165357697e+00
-2.161115910458287666e-03,1.413735849550731491e-02,-9.802109128192338261e+00
-5.806132605045004856e-03,-3.375347854397378698e-03,-9.787421761166241296e+00
-2.301600959524981171e-03,1.467677508605501596e-03,-9.799258620920898721e+00
3.081123224477317658e-03,4.307268357677942333e-03,-9.793349262733991978e+00
-3.389162306560442647e-03,2.378312300096309829e-03,-9.801225634310803514e+00
1.079399164933480919e-03,-1.383066660684037497e-03,-9.809520588495114879e+00
-5.796401780174927770e-03,-1.005345715254732375e-02,-9.797944936985945930e+00
3.412007070214801742e-03,-4.461787636035836023e-03,-9.804591248442539708e+00
8.567627958064838803e-03,6.141837998723979203e-03,-9.796669517096805890e+00
-2.542222014601644886e-04,9.953129988557083210e-03,-9.787497770432041833e+00
1.554923502297929534e-03,-8.887927505106123921e-03,-9.790806676858773372e+00
5.484433869483746216e-04,1.676713994077503776e-04,-9.807365363724041885e+00
-2.959109817366668404e-03,-6.402679417954222976e-03,-9.781041941926932992e+00
-2.556026165432458632e-05,3.659240893453616448e-03,-9.800008165438507390e+00
-1.733068950172416897e-02,1.368140116269466779e-02,-9.786017505026425312e+00
3.660332396772235809e-03,-1.012000379185785774e-02,-9.785718697664265164e+00
-3.199016692617050791e-03,-4.813803887970835929e-03,-9.807586080530784400e+00
7.686346773196138342e-03,-2.527445069089459106e-03,-9.803883427457837030e+00
6.617556879643504003e-04,-5.778799056795686688e-04,-9.809624475178047476e+00
5.639334324933655690e-03,5.863263616732712277e-03,-9.783629777815596285e+00
3.284976336628450157e-03,-5.695242542871211192e-03,-9.804111829476832796e+00
9.280177858419363934e-03,-5.507734330591075155e-04,-9.799778289547633747e+00
7.298903407949221961e-03,-9.837086095171428070e-05,-9.798454175928535292e+00
-2.329155621757418842e-03,6.172561194720714399e-03,-9.794612645185713617e+00
3.814115553054586803e-03,3.230086545593975232e-04,-9.789870350000935417e+00
7.419901812841979936e-03,1.139823699586095529e-03,-9.806711009595597162e+00
-1.769985753686699383e-03,-6.424384614444385126e-03,-9.777685571974062739e+00
5.310845477711352916e-03,-3.236348302979300939e-03,-9.801500460184398023e+00
-8.106440970064446652e-03,-3.563955795765180474e-03,-9.796323317323144764e+00
-2.528696699663996426e-03,-1.878512891903809856e-03,-9.790300502138194361e+00
-3.014324083099292721e-03,1.898960993302284492e-04,-9.808898938340165685e+00
2.680108189259301646e-04,-3.631381129456775960e-03,-9.797899403129287421e+00
-9.065172782396798204e-03,2.307953238555965521e-03,-9.801647981332301640e+00
-1.337441543669117081e-03,3.425011058094286267e-03,-9.783171131067241788e+00
-4.480528875396252129e-03,2.045334382538079986e-03,-9.790958109594596337e+00
-2.671327803806290441e-03,3.264217224387722192e-03,-9.795204594353808858e+00
4.429094324251037218e-03,3.742229049009101159e-03,-9.788822500254626746e+00
1.523909900506718179e-03,-3.476354498981347203e-03,-9.790896130473656811e+00
-1.866992647003777855e-03,7.183934422364667005e-03,-9.797423780853559805e+00
-8.359500513084896361e-03,6.065634837767484161e-03,-9.779953731228570035e+00
-1.129819820930572961e-02,2.605561240193236122e-03,-9.800410064741162941e+00
7.002977104151433645e-03,4.860263380500408174e-03,-9.794910220719284411e+00
-2.876178053154174706e-03,-5.915003286002143250e-04,-9.788965968517254979e+00
2.699379337108684732e-03,-1.262332613222262416e-02,-9.798002752348356381e+00
1.589190035898306770e-03,-3.115616674931577946e-03,-9.802397627969211769e+00
-1.022839391863403398e-02,-1.367967013584367886e-03,-9.786165643862002383e+00
3.179276242797017277e-03,1.193822785764211622e-02,-9.795173644209175023e+00
5.022604571668630793e-03,-1.651488322600342437e-04,-9.794094777851952927e+00
8.680000988759269337e-04,-5.564983571142825868e-04,-9.781856014451296488e+00
7.184954623389226865e-03,8.106133795831869980e-04,-9.784404166991407692e+00
-2.907607428558852021e-03,-1.045339041114992651e-03,-9.793554174941126789e+00
5.203907559522088404e-04,-6.107985938016952760e-04,-9.797038633801079754e+00
1.034295615828496016e-03,-6.207082843629516990e-03,-9.774439475928897281e+00
4.127043393909662211e-03,-7.982821422765927488e-03,-9.796055867113411253e+00
-4.657290708681870693e-03,8.522925820957387346e-04,-9.798489929646137853e+00
4.659390744391253732e-03,7.848890315490669040e-03,-9.792120149806326168e+00
-3.794393013650529129e-03,-6.511233129663700301e-04,-9.795503018478390445e+00
1.716121239883560204e-03,1.477279705695379482e-03,-9.792073735388900246e+00
6.469504285640605840e-03,4.598187259625744622e-03,-9.797744533669025202e+00
4.275232809138128365e-03,-1.994109360407434785e-03,-9.788749015310994395e+00
9.440885367340435402e-03,8.219483709385279118e-04,-9.795095267863320743e+00
-1.125329834371183689e-02,7.982457807007344724e-03,-9.790352506687726830e+00
-9.527472993973660695e-03,7.405957231539127619e-04,-9.796499286223863123e+00
-2.547846505821869945e-03,6.560605738508069537e-03,-9.787354365422189062e+00
3.566998540996299451e-03,-2.329225621373949996e-03,-9.797751824109429464e+00
-2.765978754967931153e-03,2.312024746452898821e-03,-9.808335769609058730e+00
-8.027547622747856432e-04,-3.142113660298493164e-03,-9.807586631753896000e+00
2.136720238078815282e-03,3.677358126081382785e-04,-9.788406102591240554e+00
2.225474158946651269e-03,-8.895634343070427455e-03,-9.782892367504826936e+00
-9.829682878072598315e-03,-2.647733404929151612e-03,-9.793996894563070654e+00
1.671721410779251253e-03,3.886448683328566720e-03,-9.800220927086588318e+00
-1.647933798183347925e-02,-2.166889891834038444e-04,-9.787585407525257963e+00
7.318248438970108814e-03,-2.362402766735298507e-03,-9.794312028246295654e+00
-1.263649420465440612e-03,5.564507246665607865e-03,-9.787681779835491369e+00
-8.031363209676455582e-04,-7.481034079073806652e-03,-9.803142456873198185e+00
-1.707030640486885539e-03,-2.353566687929523212e-04,-9.796002324432686592e+00
-5.549399164619325114e-03,-3.361701080466686191e-03,-9.778700620682704070e+00
1.012625128235042707e-02,-5.717926818720519243e-03,-9.786781432438933948e+00
-1.287392394793972911e-02,-7.690692384330348637e-04,-9.803962477441496404e+00
-4.178917312016274671e-03,1.948164688875358508e-03,-9.796662577165754726e+00
4.162157113310097079e-03,9.829116794799102122e-03,-9.805962210178481797e+00
-3.027076135004541039e-03,1.610319925351502268e-03,-9.785992171699167130e+00
2.194661237033150580e-03,4.910081189637970425e-03,-9.801718143357081914e+00
-9.023298915673634915e-03,1.383713869937457097e-03,-9.784544480915059239e+00
9.179700792044080335e-03,1.137536052985124724e-02,-9.802521875069588830e+00
-1.473811902493395339e-03,6.669204317163101529e-04,-9.800475187410979672e+00
1.038313605962693648e-02,3.373142168838009092e-03,-9.797766904154492806e+00
-1.043820435041117921e-03,4.907945976983354823e-03,-9.791765271149381888e+00
3.430180591049550570e-03,-8.981092457532240808e-03,-9.775034787622594479e+00
-1.449336863393260559e-02,-4.280393999829090572e-04,-9.808433863676564002e+00
2.781577424138126451e-03,8.502556155693856768e-03,-9.801184726388550317e+00
5.436925963495015980e-03,5.694706373388577769e-03,-9.786570925667241738e+00
4.981343295067767150e-03,-7.560111304258791990e-04,-9.808089918804748564e+00
7.190198146752488709e-03,8.218413038111883591e-04,-9.790845285633832162e+00
1.041039853664543768e-02,-4.895744351991896184e-03,-9.781796968679719484e+00
-4.563317082973115252e-03,-1.035442299542735541e-02,-9.791343480477808114e+00
-5.752791508964479224e-03,3.195288668574778018e-04,-9.802368508188315843e+00
6.111329835822876602e-03,2.569184117259959085e-03,-9.788097232333806019e+00
7.248208495607660722e-03,-8.869600542180687552e-03,-9.788470767474102274e+00
-1.810880134203643867e-04,1.394350461689575172e-03,-9.814097014224282489e+00
4.626975060392608200e-04,-1.236421350928105069e-03,-9.790106322565280905e+00
4.491931874151559520e-03,-4.634496685569095518e-03,-9.794789884745004116e+00
-2.632197615586486048e-03,3.174626424230800499e-03,-9.790874538250436743e+00
-3.976562473673477503e-03,-5.819531075498075856e-03,-9.803399662397321634e+00
-6.672099598324438517e-03,-3.193859674884989321e-03,-9.807872246858117649e+00
-2.522918046292104127e-03,4.860982351434327622e-03,-9.796953015350794658e+00
-2.627253308890504721e-03,3.316670775386827957e-03,-9.793861499427281458e+00
-5.264163008964341077e-04,1.216984537167894098e-03,-9.795913762987643381e+00
-1.121667867319718018e-03,6.826212668072779944e-04,-9.781949872723181727e+00
-9.258665114836528431e-03,9.382962181359323292e-03,-9.794342862197215283e+00
-6.832490105797577387e-03,-3.924076153962989359e-03,-9.798594697240217144e+00
4.011241484052581463e-03,-4.211127869909161471e-03,-9.810802242974695275e+00
-6.054933444357239562e-03,1.106078847572324227e-02,-9.813480312990222387e+00
7.081584435597116029e-04,-1.123807177935827852e-03,-9.801798336187960814e+00
4.428513200381245692e-03,-2.329478958526883144e-03,-9.785598959388138951e+00
3.497286606700540559e-03,1.583866606963345216e-03,-9.801484177594781855e+00
2.398117687676264848e-03,1.733058689614732284e-03,-9.791786940222220181e+00
5.078086175537730937e-03,1.084773665380652245e-04,-9.796370473628750020e+00
1.025676576403979339e-03,-3.147672637464090425e-03,-9.812805948318782612e+00
1.870479488856268649e-04,-8.544367995254821459e-04,-9.782352374078017831e+00
-9.925503834409104761e-03,3.714704631170466249e-03,-9.801778368676304254e+00
1.593026789886843641e-03,2.803052875408840790e-03,-9.792147415960387846e+00
-6.237628354138661374e-03,-1.318985283793246718e-04,-9.804827536632018337e+00
3.132866212594242767e-03,-8.779884055734892348e-03,-9.799538011899461054e+00
-6.564907778530307096e-03,-2.207122591682356431e-04,-9.803516331311726617e+00
-8.063063358943203807e-03,7.377410235092410860e-03,-9.795126832312421428e+00
-1.279260948204661219e-03,-4.529248106283788669e-03,-9.809751165265666373e+00
1.445967687150903711e-03,4.851759880750999669e-03,-9.796124531707176786e+00
-5.555443202254854544e-03,1.016474692218069607e-03,-9.783175341756733090e+00
3.180598233471182684e-03,7.358588418323269362e-03,-9.802067973105133447e+00
3.333121653136686749e-03,-3.461291708827540954e-03,-9.796508348357461315e+00
-6.241948049747403880e-03,-6.561743093406129275e-03,-9.806561043164061076e+00
-1.979893609263321148e-03,1.075054096233410547e-03,-9.805663236983010123e+00
-6.458563622520309237e-03,1.972214171005465125e-04,-9.795554791384681437e+00
-1.932743000106317086e-03,-6.870193006586196131e-03,-9.795114292984875348e+00
-7.023018978974610374e-03,-5.299247797222403529e-03,-9.808611022739331275e+00
-5.418384242053873520e-03,-9.885286778927696721e-03,-9.807168298791356875e+00
-3.489064007585036386e-03,-5.052330988358482572e-04,-9.793701684610018887e+00
6.091767995671083444e-03,8.377008216202266183e-03,-9.796002793072817738e+00
1.277311398828309295e-03,-3.614446241397953168e-03,-9.796313279569506705e+00
4.241297774682252150e-03,3.203678224859517025e-03,-9.800927777021549048e+00
4.422763968934058550e-03,-3.610503921805894786e-03,-9.793598027989677490e+00
2.753206000714451297e-03,7.879984333901201426e-03,-9.803322467734426837e+00
4.452309276597033252e-03,1.134204168706743872e-03,-9.797187643693439085e+00
-5.244085446807855364e-03,2.573225317342058612e-03,-9.801041656381517697e+00
1.549604344913777009e-03,-1.284809879204876692e-03,-9.801953715930842748e+00
4.638740771920397965e-03,-2.497874299621949835e-05,-9.792298475731463725e+00
-1.945181974425558508e-03,-1.312099280713272496e-02,-9.805665539719591095e+00
-2.457418030811170731e-03,-4.325257071132184800e-05,-9.809244505132507896e+00
7.183724775504267412e-03,8.574996070013303408e-04,-9.794881973726022650e+00
4.801198012048871894e-03,-2.971375982927214505e-03,-9.788976030212889867e+00
2.355169993729422807e-03,5.114010346234060082e-03,-9.819191599739623300e+00
1.445006139410466876e-03,-5.284577195047708391e-03,-9.791097581726983634e+00
-1.241626818749932666e-03,-2.957020327378991412e-03,-9.793450988610974406e+00
-1.153001698853814514e-03,-5.494828431323863990e-03,-9.807429055868871259e+00
-1.428630668135710997e-03,-6.607728303286447167e-04,-9.788706925449869090e+00
-6.039535004264479567e-04,-3.958026931401298874e-03,-9.796331788120465234e+00
2.659553622889438643e-03,-5.769521923056597848e-03,-9.810308727079036117e+00
9.777039999181178290e-04,-7.289092003077812364e-04,-9.802217227060863181e+00
-3.781069275561158710e-03,1.139084035934215429e-02,-9.790413335585114396e+00
7.055660448189350273e-03,1.094190535530150049e-03,-9.792836470476865784e+00
2.811306615848557008e-03,6.731955882926489920e-04,-9.786344106399345932e+00
-1.334960190795381934e-03,4.255445422233966601e-03,-9.804473441705340520e+00
-5.641664726482761329e-03,8.128618289957050339e-03,-9.787467340728314369e+00
-7.785414218575945370e-05,-7.060198899978723658e-03,-9.805564956653201492e+00
-1.625461802713027478e-03,1.798281912736490653e-03,-9.788334955833791540e+00
-4.838688533740143072e-03,-5.873969668355385511e-03,-9.796695793690004095e+00
6.804449625069231358e-03,-1.702721119368206647e-03,-9.784268432792693204e+00
-3.494517581455304413e-03,7.305306448411170138e-05,-9.801549696699446201e+00
-4.155319378819107359e-03,7.871499184787026076e-04,-9.801365930036970653e+00
-5.721896067233138081e-03,-6.861797628810225452e-03,-9.796443951993298427e+00
4.986375900577915549e-03,5.778172192733557397e-05,-9.796813321198165170e+00
-7.777214389184256178e-03,-2.036475419838606419e-03,-9.775447613345255249e+00
-1.979129895157812936e-03,-5.105415995057761315e-03,-9.792212568297779640e+00
-6.224479802172590281e-03,-1.634902516177070631e-03,-9.805420790898409678e+00
2.758210384338584051e-03,2.948088094163321855e-03,-9.794607967550968297e+00
-2.281430762069562058e-03,4.715571049587824297e-03,-9.801503805518997581e+00
-1.325617069236965625e-03,-5.298205576535509713e-03,-9.788993048284961418e+00
7.825026569292486966e-03,-8.713473285782160314e-04,-9.789383077355569895e+00
-3.505812372326663501e-03,5.284765836410209834e-04,-9.803790764653474099e+00
-2.413231811986295532e-03,8.120864096462893870e-04,-9.797747781577136550e+00
-1.711208589964561232e-03,-3.181918823562866067e-03,-9.785958899382222853e+00
-8.887885007961603481e-03,3.095027637249213228e-03,-9.795589915239753864e+00
-1.508553735293150302e-03,-1.785802321814361580e-03,-9.781759073709586971e+00
-4.887166119310911924e-03,-7.336323900354500653e-03,-9.813973964503677649e+00
2.905648521564053489e-03,-5.780953922419996421e-03,-9.796348347813026436e+00
5.097695210222268590e-03,-1.379596210526975140e-02,-9.798680860347682042e+00
-5.779591803113642151e-03,-1.571783936587292088e-04,-9.788887012833155765e+00
-7.644837962834188060e-03,-4.679208095977525211e-03,-9.776688534412430798e+00
7.025469222681480358e-03,2.156290825187518519e-03,-9.786348696140731107e+00
4.435891539273316398e-04,-3.434257491613580161e-03,-9.785112244703341844e+00
-1.357487183637935148e-04,-2.428641332198111080e-03,-9.791255402299622546e+00
-1.046210619650775331e-02,-1.018041151705606842e-02,-9.794355885091148295e+00
-1.265612817269700426e-03,4.088109411692894546e-03,-9.800426447889199366e+00
1.827956892528604890e-04,5.072968231273638660e-04,-9.790680149522357212e+00
-8.498799632486380567e-03,1.147012187425493516e-03,-9.808716823382884087e+00
3.278112465707647052e-03,-7.998995758896669745e-04,-9.789433470281462490e+00
-1.827553941598296502e-03,-3.370088464241443715e-03,-9.784526829254749813e+00
1.281932591771557488e-03,4.438876724046633866e-03,-9.783478920897488607e+00
-1.129469058502387746e-03,-2.011008895289606233e-03,-9.793814861794189142e+00
-1.636063311840401855e-04,1.090888289499735092e-03,-9.781151185672664283e+00
-2.642759688578712879e-03,-7.280709610827353008e-05,-9.792891986308024599e+00
-1.916789152292437031e-03,-7.359129744545547455e-03,-9.786057906879131352e+00
1.184609028076931067e-02,-9.933371619379228763e-04,-9.796643849718043029e+00
-3.597104621297806445e-03,1.130580565003435267e-03,-9.788739010839371701e+00
-1.636440905156978307e-03,-4.947640139799181457e-03,-9.775443343282395503e+00
8.518293730169282374e-03,8.838889348577672750e-03,-9.803712082067061573e+00
1.514947176681431633e-03,4.094331688411230463e-03,-9.803344198367975437e+00
3.850094221036579750e-03,1.398768321054088149e-04,-9.806196602299451115e+00
9.650625349334298816e-03,3.413644004929757849e-04,-9.796174784266344915e+00
-1.918056904303027440e-03,3.207322244188941501e-03,-9.808182418351227838e+00
3.985309591539953553e-03,9.953554051821253759e-03,-9.789536160617149818e+00
5.077584334369167340e-03,-3.847995512655980841e-05,-9.787950713899812527e+00
1.044731181107062638e-02,-1.210540028182129427e-02,-9.792137244772602500e+00
4.058763441299347821e-04,6.795215318433384111e-03,-9.774675078946566842e+00
2.709093665742437398e-03,5.735056713130315745e-03,-9.792570638801427307e+00
1.349687748177831560e-03,-2.551768192459443179e-03,-9.783061613236627707e+00
-2.742652606113562489e-03,7.448643202748508538e-03,-9.799259992196612146e+00
-1.667656538724381294e-03,-4.100919748225993061e-03,-9.803311999772452268e+00
2.705926772596168890e-03,-4.208701732083832379e-03,-9.793712226547702571e+00
1.993151710377813728e-03,1.449983276017777602e-03,-9.796712697938614767e+00
-6.117800345079850606e-03,-3.811883571312514943e-03,-9.787344202101438739e+00
1.305175617594200822e-03,4.073257647507786479e-04,-9.816491423980401976e+00
-1.239423140549764449e-02,-5.744353803448364049e-03,-9.794349800689921892e+00
-3.829337198714046343e-04,-1.810850713831737993e-03,-9.799977734437522514e+00
4.776046296362476164e-03,-5.991528364597653589e-03,-9.812440683102224170e+00
-4.767570273075457700e-03,9.927714510607888246e-03,-9.799850972287174500e+00
-3.817603981445393414e-03,-9.291373359624908318e-03,-9.793223435407163890e+00
6.635776880421093366e-04,2.377414958827350419e-03,-9.790799551563344139e+00
8.745877686672400356e-03,-2.994184158587772249e-03,-9.790318826249016837e+00
-7.390116627953913220e-03,-9.520857994701926053e-04,-9.795029169707847316e+00
-6.079990392248933381e-03,-7.816433854790882626e-04,-9.794565088723324209e+00
4.877251273834035290e-03,5.262166859223982307e-04,-9.779012933894406956e+00
4.789458882691907324e-03,7.002463436744044362e-04,-9.814707902404668616e+00
-3.371066110642362279e-03,-1.481144100825654026e-03,-9.792131639974412494e+00
-2.487475096921587352e-03,3.466120218810042185e-03,-9.812527693189631250e+00
-9.257179926827362182e-03,3.140119895675269873e-04,-9.789674433687224564e+00
-7.240139720674242975e-03,-1.033733427167156729e-02,-9.797477142518451032e+00
1.929068992804233501e-03,1.361111298873746850e-03,-9.806719158785650592e+00
-6.420193448091845133e-03,-7.374422634342682817e-03,-9.789478043195526169e+00
-3.116800940825683285e-03,2.810626841271997908e-03,-9.793164802998141738e+00
-3.596692393081159819e-04,-6.648649177265305481e-04,-9.787656639177475526e+00
-1.611668648182287486e-02,1.132868647138392118e-03,-9.779872554673000096e+00
-4.044158115760508772e-03,1.235687784827707450e-03,-9.802296180447612528e+00
-1.173220106194967525e-03,-8.599484257272336585e-04,-9.794197243764472205e+00
-3.286791102613340412e-04,7.974566010927271881e-03,-9.803875222396497335e+00
-3.514493420847896506e-03,1.410060766103199631e-03,-9.780250235521553037e+00
2.479212650299362272e-03,2.310816399305906741e-03,-9.784244829460261528e+00
7.673876700982767973e-03,-8.986756669339087886e-03,-9.790124713565850456e+00
-1.023066839443880979e-02,-1.575042103724883088e-03,-9.781845133105903756e+00
9.991291476674434534e-04,2.813933221052641702e-03,-9.801903967204664170e+00
-6.871967023321459006e-03,6.628629712832939842e-03,-9.792291197484937371e+00
-3.024665929755485441e-03,-1.600247035524343317e-02,-9.791628899843425771e+00
-2.488590836560310333e-03,-4.327040449030469804e-03,-9.792682611196653397e+00
8.010187186138867333e-04,3.912706073151019266e-03,-9.793163537045682432e+00
5.293975848368729677e-03,-3.700380208017682365e-04,-9.785419864817619384e+00
4.465949985086759000e-03,-3.159203691636284020e-03,-9.790090833594179642e+00
3.571510305698960466e-03,2.081165454919459579e-03,-9.805477093732630323e+00
5.000685039039154227e-03,-1.697152845302184318e-03,-9.789151098758145153e+00
8.261557596914411231e-03,-2.080259200131754531e-04,-9.790811665132151731e+00
-4.849476900935545051e-03,-6.671463799187356790e-03,-9.796712229102389813e+00
6.466123372216274999e-03,-1.598994663209378107e-03,-9.785881633049708483e+00
-4.016844895385576113e-04,2.234347068978658965e-03,-9.794897141264119256e+00
7.230544869568204108e-03,6.786597521376382992e-05,-9.789443744395660119e+00
-3.122088114299553080e-04,7.440566804608674412e-04,-9.804672944935949985e+00
-1.350727865749545538e-03,1.428970378811310988e-03,-9.788658921238468480e+00
-9.273246585219014487e-03,4.690121462655637763e-04,-9.804350713690707764e+00
-6.774598005409947395e-03,1.901038418907517909e-03,-9.806275065883857778e+00
3.500611893502255517e-03,-5.433407588027859385e-03,-9.800226182869970160e+00
-1.044493934494266502e-02,-1.977838798931159502e-03,-9.796871144743196425e+00
-7.752131785890672196e-04,-4.572352548962404085e-04,-9.783479791031135520e+00
3.843634893775391224e-03,-1.298730457278972122e-04,-9.795527967217806165e+00
-1.184696448203343853e-03,-1.808558118036306247e-03,-9.777179863896629186e+00
2.964618859105149027e-03,-4.845792255951198411e-03,-9.800790189582114564e+00
-1.029126377493517000e-02,2.326526815171491708e-03,-9.794835771135243618e+00
4.369348654394292555e-03,5.019058713963933833e-03,-9.790372266741085738e+00
-1.098525475884875799e-02,3.498521808583687082e-03,-9.789153486040374830e+00
9.499023315208676970e-04,-1.480374965362938645e-02,-9.795815435221168599e+00
4.872026493120695106e-03,1.424260281923355213e-03,-9.792022176033807312e+00
-2.161625278719108041e-03,9.402370166229164937e-04,-9.800785183435836601e+00
2.818504733862931683e-03,-3.838617083397474154e-03,-9.803161417365407360e+00
2.785949884620052362e-03,-9.342021142464479932e-04,-9.785914214957871948e+00
8.190015044023120361e-03,9.775891994838140781e-03,-9.781509001664662861e+00
6.651062464093554505e-03,-3.193751345882513918e-03,-9.796166763898623842e+00
-1.127121130373722781e-02,-4.721801858951830966e-03,-9.794948415220174454e+00
2.169134218445085450e-03,1.948817096211373327e-03,-9.803717030535082699e+00
-8.651539924621544017e-03,-6.044463867402169108e-03,-9.797055950507806088e+00
6.047112494710057094e-03,4.401758011865574902e-03,-9.797029182331010944e+00
2.085633464582742000e-03,2.799311145984784231e-03,-9.790314093216416325e+00
-6.763187314313721249e-03,4.654922380057277022e-03,-9.807696762995758988e+00
-1.005198887349740677e-03,6.628409858305452790e-03,-9.806993168649388082e+00
-3.165555490568633043e-03,6.167123315915272290e-03,-9.809053257413447469e+00
-3.005865446786327045e-03,-9.831796385382014780e-03,-9.809004606437088825e+00
1.130863947564673825e-03,-7.988600992581324639e-03,-9.792876575231304059e+00
-1.134266917055390574e-02,-7.747282066746079450e-03,-9.799669691210013411e+00
3.509030034266833516e-03,-8.165600953248931902e-04,-9.802789046172613041e+00
2.869643660790093496e-03,-9.233182727174636683e-05,-9.795194122450753937e+00
-7.606639425896533427e-03,5.281113028907363088e-03,-9.793038066165284050e+00
-8.014533870750390528e-04,-2.582844200529045998e-03,-9.803428531476217955e+00
9.303407863857953569e-03,6.197606107792435169e-03,-9.793963612459684498e+00
-9.544808970030794083e-04,4.840368528699985542e-04,-9.803670035232132207e+00
1.300677231765466277e-04,-2.212613033039213285e-03,-9.811074725924893158e+00
2.149377392297945055e-03,-4.024953177529230416e-03,-9.799528442226591807e+00
-8.474723981737727549e-03,-1.165632788748976675e-02,-9.801806226764632868e+00
8.506393539457181513e-04,-2.127230731839178587e-03,-9.787698797242088133e+00
1.201067980820624912e-03,2.457133342439860556e-03,-9.806051162357448447e+00
-1.785827262144221292e-03,7.818749413438817741e-03,-9.795467557869038444e+00
9.511459991976316730e-04,-2.240326288160304161e-03,-9.800763814552663433e+00
4.547643311572097634e-03,-2.175758790531531588e-03,-9.782034258592641862e+00
-3.280354445535673107e-03,-6.902993856315546746e-03,-9.795908510424981230e+00
1.687039832224197962e-03,6.662246640023588087e-03,-9.790442487965814067e+00
-7.105585997578173912e-03,-2.624850747013407048e-03,-9.798800472444298748e+00
-2.760166720041190829e-03,6.656552930455646166e-03,-9.781025404168207871e+00
1.382955819399273902e-02,-2.350194647268949704e-03,-9.806256771695178287e+00
6.249843659092743208e-04,4.959527176921478368e-03,-9.788221839812953462e+00
-1.133897378236237846e-02,1.509748246908390644e-03,-9.791923759603330168e+00
6.967515435023463296e-04,1.719867347551060988e-03,-9.812628492501122679e+00
-6.110601743836608854e-03,-6.676015504208247841e-04,-9.790344095458873852e+00
-5.663576017098272478e-03,-2.971555056103667141e-03,-9.781509250895092933e+00
-2.276470858493881508e-03,6.744379002839087471e-03,-9.790982263375363814e+00
-6.976821633174348260e-03,4.594697749105904061e-03,-9.790137502728496699e+00
-1.911736345458414730e-03,8.531085054603208340e-04,-9.792605808910535004e+00
1.002267578638864169e-02,-6.866695938498036146e-03,-9.791547623055079086e+00
6.205810751825390978e-03,5.293595923455350063e-04,-9.808005172442246788e+00
1.460357031976008664e-03,-1.807300909330926929e-03,-9.787495744739938885e+00
1.778467184352910046e-03,6.255172376640279544e-03,-9.804679515624128427e+00
7.738573443689116156e-03,3.851776086936019913e-03,-9.787391628143655709e+00
1.794213317734054576e-03,3.393952196173062597e-03,-9.789365720803763438e+00
-7.778848908992753997e-03,-4.454531583803802140e-04,-9.801690664177201029e+00
1.623014348680272903e-03,-1.423225437493541579e-03,-9.789312493542574600e+00
-9.004287704924499990e-04,1.667206751707194174e-03,-9.805392999499574103e+00
-5.647282197439278464e-03,4.707748463946166521e-03,-9.794568148377742034e+00
5.628006337677832378e-03,3.119170496584701413e-04,-9.796748858268077953e+00
6.612587377284605966e-03,-2.661478043537626736e-03,-9.785264852132520730e+00
-4.441844833560916819e-03,1.529565362779762268e-03,-9.796799252803475966e+00
3.433540322514033391e-03,-1.105865970337980685e-03,-9.789842827381619372e+00
-7.258154604711099939e-03,-1.302700848525931761e-03,-9.798338265632930089e+00
-1.063414670844066781e-02,-2.085597624497046321e-03,-9.795917476512155275e+00
4.258844543823278421e-03,-1.254166915824979356e-03,-9.801005423241390346e+00
-2.605761731015058223e-03,-8.308706886801929536e-03,-9.794539998573560169e+00
2.651557402800476700e-03,4.465124641081818710e-03,-9.786253942823876173e+00
-2.022271513642093666e-03,-1.112309492386141796e-02,-9.795631786320397438e+00
3.514660005425719515e-03,3.608995259348070622e-03,-9.805127763734851953e+00
3.748538564450245268e-03,6.394967367158975631e-03,-9.800671234240676100e+00
-5.952566698180648992e-03,-1.260748939777988839e-03,-9.810099416734869848e+00
1.971051534677444820e-03,1.085328816979546501e-03,-9.806134356529453200e+00
8.927848396441374901e-03,2.084466695538369618e-03,-9.788222272127855561e+00
2.350452622120692472e-03,-3.910223881073920417e-03,-9.803733665403695952e+00
-5.470912667384855363e-03,4.497475450731236099e-03,-9.792772606738997965e+00
8.523496604855118446e-04,2.668489649764964940e-03,-9.778818873640732434e+00
2.142658610069350048e-03,6.676685949304763182e-03,-9.799275419311401336e+00
-4.164071804288177817e-03,-5.165778076183789522e-03,-9.790848559220169278e+00
7.563429670755349686e-03,-8.813713902123569352e-04,-9.789022988819619187e+00
-1.533359484585702492e-03,8.357571629669294623e-04,-9.794720044255374347e+00
-8.398430526681373775e-04,-1.153912708689892354e-03,-9.784520636222444168e+00
2.755146367658333449e-03,4.822103228980572677e-03,-9.793611569240866288e+00
3.130460499126140432e-03,4.657166331471767479e-03,-9.799461180342809996e+00
-6.664905105804031817e-03,-5.531750176407743006e-05,-9.783989035618493091e+00
-3.917405728635756437e-03,4.469688111217642716e-04,-9.789631807046504264e+00
2.781095337704854020e-03,6.027663551392611202e-03,-9.781076763326536749e+00
1.716118612413139498e-03,4.379454577786574300e-03,-9.795119281264510036e+00
-1.935051911078602234e-03,-4.844577284752410971e-03,-9.789019507912124496e+00
-1.625852754493303668e-03,8.128844484778345592e-03,-9.802090583777644639e+00
-6.411471644903281135e-03,3.958340782421957381e-03,-9.784938002153481307e+00
1.366448267477865302e-03,-3.643507112380987584e-03,-9.783093121128246139e+00
2.315472486006433725e-03,3.439381904684467458e-04,-9.792394861053859145e+00
2.145760003504154894e-03,-5.225056387421179831e-03,-9.789789700727428823e+00
-3.818205047056364419e-04,-5.075746952349480430e-03,-9.799151312234254618e+00
5.660938661719204512e-03,1.067286901588106358e-02,-9.803922898635292427e+00
-4.409131640199283504e-03,2.427623891646283130e-03,-9.795459001701821933e+00
1.055322652277064684e-02,1.703774852169026230e-03,-9.772979339525003084e+00
-1.595147038116909036e-03,-2.969804696267549192e-03,-9.799648497277857473e+00
-9.156000581832860613e-03,2.275222685047045921e-03,-9.788252463024653238e+00
-6.214187811801308824e-03,-7.360829015202455770e-03,-9.792957168762150388e+00
-9.574530911820387791e-03,1.296136223501380630e-03,-9.803781701260966486e+00
-3.804130255252730596e-03,-2.105736431016259121e-04,-9.804830868266847688e+00
1.195414368507885993e-03,-1.167160893366234490e-03,-9.792626022708693867e+00
6.329708782807421177e-03,6.431695296291986465e-04,-9.796969310073761150e+00
2.014415140731092881e-03,6.672247711536329279e-04,-9.784032759853378280e+00
7.464858730567297193e-03,2.595365412327231905e-03,-9.800838795617934807e+00
-3.825633633925106577e-03,8.179855175048428642e-03,-9.799680755101382701e+00
-8.569840169061832685e-03,1.013689752783668470e-02,-9.794242844337651022e+00
7.370450669084129859e-03,-2.681079842099896166e-03,-9.805841050507858370e+00
9.816013483365667106e-03,-2.787784931642358494e-03,-9.786559274396568142e+00
9.738491870253376467e-03,-7.415633207338727167e-04,-9.789879750427395777e+00
-9.876558272887754619e-03,2.001210420694134203e-05,-9.786320967397921677e+00
8.322988776253611651e-03,-7.750694378394887285e-03,-9.788216983214109490e+00
4.692635247464752371e-03,-8.099049309073228691e-04,-9.803168102552072938e+00
1.990183584734229322e-03,3.698430350308356922e-03,-9.804459335184720459e+00
-9.017983004032613034e-03,-2.793544893089262935e-03,-9.803441871641007666e+00
-9.074118922556460853e-03,8.405310546044887296e-03,-9.797724937410048796e+00
-1.641373013161974989e-03,3.866442337725954723e-03,-9.799838144091982173e+00
1.400830834230278000e-03,-2.376378406764819047e-03,-9.791530806934462206e+00
-2.726763750305212161e-03,2.997567649013140132e-03,-9.791794868645080641e+00
-3.491242970016858373e-03,5.084340683711564488e-03,-9.809340735144354895e+00
6.408685326869670122e-03,1.424758385035433152e-02,-9.792373353972459782e+00
8.513505551430110979e-03,-1.117709940155769618e-02,-9.804691048397490505e+00
-2.798515918998964284e-03,4.066154285624601003e-03,-9.792898096217584225e+00
1.940573495112538766e-03,-4.577098609308828149e-03,-9.800780748348042692e+00
-3.092490265958158964e-03,-1.745666153012611363e-03,-9.795508068115418965e+00
-3.737322460021499145e-03,8.728920220964482210e-03,-9.794528533596405850e+00
-4.566540768558093911e-04,-1.061392923914051406e-02,-9.788659703562812453e+00
2.570854092101372990e-03,-1.957541682515398507e-03,-9.803078799853286895e+00
-3.158228953116360913e-03,-2.111629874799961920e-03,-9.798401200872808303e+00
-7.944947538432865081e-03,-5.252069581505624304e-04,-9.784438976669864729e+00
-4.734284198630981516e-03,-5.340153952903557537e-03,-9.784065134915724826e+00
5.175705203095186347e-04,-4.013651136327471038e-03,-9.797766638019366425e+00
7.301737976383352138e-05,-3.113069656851028422e-03,-9.774969094011225934e+00
-1.423910678235655591e-03,8.946163927644888020e-03,-9.784793176931634306e+00
-3.165861649521920906e-03,4.352010315600841374e-03,-9.795407003703894944e+00
-3.007283260774935851e-03,1.819242003424185192e-03,-9.785026882432598327e+00
7.863864587682976859e-03,-2.324199405709716140e-03,-9.797894781769667105e+00
-1.324357448441491371e-03,-9.033215385445879028e-03,-9.795527863415266268e+00
6.485309511980902851e-03,9.554156855549649418e-04,-9.791353216450325192e+00
-5.560816613696254081e-03,-9.799556599470382254e-03,-9.791061815813618452e+00
-8.632276403409619436e-04,7.302074921833608123e-03,-9.805873643588716604e+00
9.419444152993530729e-04,5.312609455473363274e-03,-9.782350576841455592e+00
4.947156453389556230e-03,4.110115297783356256e-03,-9.787479428241759649e+00
-5.804476760895312289e-03,4.675233966808072829e-03,-9.786222963194342483e+00
2.396113739700729984e-03,-2.319325048569764736e-02,-9.800987018697988162e+00
2.474359359989519724e-03,5.177715798452139310e-04,-9.785621841304180890e+00
-2.386772968596569382e-03,-2.173734905869373086e-03,-9.790144223322529982e+00
8.409510718282071223e-03,4.763617310849145407e-03,-9.791756395719977135e+00
-5.771137683350464724e-03,2.477337248278489810e-03,-9.800635681391055343e+00
5.807112883965744477e-04,-2.900759022707692213e-03,-9.790748431760800230e+00
-8.083835900900934734e-03,1.760338951901170698e-03,-9.794235519984500371e+00
-2.432745077978634013e-03,-3.622124324998258777e-03,-9.780098844159805793e+00
4.385265593097146218e-03,-2.836695462363666639e-03,-9.804570332976636493e+00
4.912234726709773652e-03,1.697454371209713509e-03,-9.795525846427688421e+00
-7.944277307315129530e-03,4.941772591872107406e-03,-9.786053553177138653e+00
3.431028549617942333e-03,1.874081794721173732e-03,-9.815229077283047943e+00
1.848110653884597974e-03,-2.030791641862485578e-03,-9.795424138038521633e+00
8.798383415852465209e-03,2.801727335823774121e-03,-9.781462667219374296e+00
7.969748470808099561e-03,1.353403584467455971e-03,-9.794549894098434351e+00
4.532590885756278623e-03,-5.181818371341423657e-05,-9.779484844412568378e+00
4.060358619854538380e-03,-6.637025725139987509e-03,-9.805374156429058630e+00
6.081597131446590376e-04,7.820475779095273014e-03,-9.801389100513699049e+00
2.819485641443124791e-03,2.259131165295368265e-03,-9.794736125205011135e+00
-5.941110134537025932e-03,2.473659038815293875e-03,-9.791243312768434848e+00
-1.329793162090611887e-04,-5.909325857028523664e-03,-9.802670162952194843e+00
2.396844341844585162e-03,-6.342540636728134437e-04,-9.799848248344011026e+00
-4.616559496931249736e-03,6.800690436054421598e-03,-9.802085111427139452e+00
5.812274457941320367e-03,3.091350296850710767e-03,-9.799203388915527668e+00
-9.305622361146846742e-04,4.093060901011659307e-03,-9.806206267933760046e+00
-7.152072323211184149e-03,1.677993377266688937e-04,-9.796911651455395997e+00
5.220291530786548562e-03,3.427462669655459166e-03,-9.788509689585797702e+00
3.077384804816659779e-03,-3.133407058594987315e-03,-9.803212841393923682e+00
-2.062644986069157079e-03,-2.027604240761547163e-04,-9.790758904493873871e+00
8.238303524734664346e-03,-5.855188186717788469e-04,-9.793379075684033097e+00
-3.394171524041006416e-03,-2.563512810737262042e-03,-9.789860788431763439e+00
-9.276854482682003050e-03,1.352330225032070780e-03,-9.794791563289262371e+00
-3.863475392096328391e-03,-1.257663193338872526e-02,-9.796579415218769071e+00
2.360215944164137641e-03,-6.212598853113206546e-04,-9.785506702571654003e+00
5.601540405152638638e-05,-4.292533492098005860e-03,-9.786454321118835509e+00
1.941047931800933719e-03,-2.533524594736084271e-03,-9.797954122078646577e+00
3.007826310439921068e-03,3.300449671804571179e-03,-9.793599076484081678e+00
-1.227423516330864404e-03,5.386256785285929456e-04,-9.808343721870299348e+00
1.715958293128674178e-03,1.714039749411111610e-03,-9.783258649544128716e+00
-2.370901698695939992e-03,1.148307905849192852e-03,-9.779513758653717304e+00
2.594004774899544394e-04,-1.506231819238400987e-04,-9.800519346465799586e+00
-8.093824558491495569e-03,-9.454166995557077707e-03,-9.795472468118786580e+00
3.984610108671303268e-03,4.141617603954696365e-03,-9.778539371201002695e+00
3.540978280986082673e-03,-1.849473889611143130e-03,-9.811995215952402205e+00
-5.578241137691328233e-03,5.134494586881449552e-03,-9.792800529054503045e+00
5.856728828280484411e-03,1.134693329054662671e-02,-9.796802479422687782e+00
-1.440925351964317085e-02,1.225368725475780207e-04,-9.799199973421222509e+00
-6.453450536632710823e-03,-1.338710828516569487e-03,-9.800404737236840802e+00
-7.334005859757585649e-03,5.155564689330094374e-03,-9.794120634828706429e+00
1.708742311026949278e-04,3.495258770009563275e-03,-9.792440803221975187e+00
-1.753242316857329670e-04,-1.986052154336638391e-03,-9.781490417519036029e+00
1.102695470936686673e-03,-2.801992858374556441e-03,-9.801068047628968216e+00
6.940475558292999274e-03,-2.826973853226005893e-03,-9.794238369321842441e+00
-1.117891167548984259e-02,1.450485042088536054e-03,-9.801248703077950708e+00
-3.895339376092086126e-03,6.730715532427671574e-04,-9.808721619808466130e+00
-6.486706614149852571e-03,2.281554800235784087e-04,-9.781932418963611653e+00
8.823047144494747208e-04,1.877505077034374338e-04,-9.796120565475671782e+00
-9.113713611172876913e-03,-6.056120495761179411e-03,-9.777084153448436510e+00
5.011607737956212151e-03,-6.641251586539349133e-03,-9.786209367113960056e+00
3.670499498898798819e-03,-4.776922624949431900e-03,-9.790633914013250561e+00
-2.250985649827532981e-03,6.177793504116757019e-03,-9.785389998314022009e+00
6.035585489857415477e-03,-8.236425380583769704e-03,-9.786422355215734115e+00
-2.919406544162831806e-03,4.349864410145687539e-03,-9.794390934929976922e+00
4.418762330388873068e-03,4.539209842360262918e-03,-9.786015698134477248e+00
8.306743933919047136e-05,-4.562926006386332570e-03,-9.801509888438209472e+00
-5.380029545208069378e-03,-6.758040622036333780e-03,-9.803383979124513203e+00
4.855662208077161576e-03,3.382911746006275581e-03,-9.805424406640701918e+00
1.703972896860121320e-03,1.894379805852554463e-03,-9.798159428041952168e+00
-1.691582049675305604e-03,-4.433982149148242742e-03,-9.809747854683132928e+00
-1.464658959461737683e-03,-9.537340137499418155e-03,-9.801249759925100946e+00
-2.463382513311967222e-03,4.375266976432398529e-03,-9.788957220878183207e+00
-2.004712022763872892e-03,-3.688255903257097682e-03,-9.800023119640849600e+00
-1.665023260245514659e-03,5.700618646159436032e-03,-9.788072823000330658e+00
7.440363893129821370e-04,1.677014096503658905e-03,-9.794015030995653959e+00
-4.468316553532189657e-03,-5.676293911822204337e-03,-9.790047905820729923e+00
3.774170464128259132e-03,-1.241020461816220478e-03,-9.800089399266244783e+00
-2.951334727664205269e-03,6.497481370521415896e-03,-9.789609504230874393e+00
4.062051886697784324e-03,-9.893233307593388235e-04,-9.794081656376064871e+00
3.927187053951405361e-03,3.141472811792034824e-03,-9.804911614323227553e+00
5.870566326743014395e-03,-3.289641831361517655e-03,-9.805967541756031025e+00
-2.746201116661269384e-03,5.798381719987839335e-03,-9.780521403507158595e+00
1.383651685600876917e-03,4.073402126052649494e-03,-9.786151184078272891e+00
9.845553042490057857e-04,4.004070239773769614e-03,-9.803807380868017063e+00
1.172783323806540334e-03,7.749195639540063657e-03,-9.784534258782121796e+00
1.933415772262741346e-03,-2.850618536439928686e-04,-9.804073657697768951e+00
-4.768594074165168062e-03,-4.563243126374314472e-03,-9.799893427749413632e+00
3.085977971368368718e-03,-3.362465736903893186e-03,-9.790681952533654808e+00
-2.556492881112947414e-03,-3.210225678476130457e-03,-9.804435171908895796e+00
-7.055561621512298131e-04,3.216000226399253186e-03,-9.805322452625837570e+00
3.145259078997509131e-03,7.030571592528752842e-03,-9.795936468542237208e+00
-1.816803310751947259e-03,4.646087942832968082e-03,-9.795061480934645459e+00
-1.531110549499448354e-03,2.078540731175620732e-03,-9.785183638432510378e+00
-6.573295890518020268e-03,-1.807044308457442586e-03,-9.800130941688124153e+00
-6.118654555852162105e-04,-5.604337960303977593e-05,-9.792696448791499364e+00
-2.355749231713045316e-03,-3.326521347349697868e-03,-9.803308043178605047e+00
-3.996224930630988548e-03,-6.083199461119737951e-03,-9.795896418846522735e+00
-1.864423797721846297e-03,3.585196374925047735e-03,-9.783204975911507617e+00
-7.038709764952135253e-03,1.201610215202660281e-04,-9.790138533863522952e+00
-2.874114143234811694e-03,8.070971347286641853e-03,-9.792275279005020039e+00
-4.905442502831740964e-03,1.121926350995557618e-02,-9.778959355302138334e+00
-9.593876689893924420e-04,1.033194133405197952e-02,-9.799786758195777381e+00
-6.509438206582446665e-03,4.414623554393155846e-03,-9.787553923863368865e+00
2.387474770063824012e-03,1.067195599563271593e-03,-9.785042185117122315e+00
1.608148981744223893e-03,-3.210902891047035055e-03,-9.774206617557597454e+00
1.457245101447857951e-03,3.755916894450089284e-03,-9.791877447050250538e+00
-1.316424850699454306e-03,6.321231446522608023e-03,-9.786242744793302251e+00
1.441046167868775384e-03,-4.617344455322762789e-03,-9.797165875383662126e+00
-1.004238429120666264e-02,-2.527300927993127340e-03,-9.792336021412044289e+00
3.149398483269189725e-03,1.539965078254253855e-02,-9.785394226714485555e+00
2.080837701356123663e-03,2.597140080708131970e-03,-9.805452993744539825e+00
-4.324691579043542472e-04,3.908429239690267357e-03,-9.780120073587289298e+00
2.036180887395855430e-03,-7.879768597083494294e-03,-9.791015401528829543e+00
-4.634709966592391074e-03,1.185479190928734848e-02,-9.793689887021303164e+00
5.226021446313709913e-03,-3.387191073752790233e-03,-9.791521883122205949e+00
5.890829256425332561e-03,5.480548892920689662e-03,-9.792005387907799729e+00
-2.748136697640235059e-03,-8.288948898079188032e-04,-9.808589710174040022e+00
-5.174831389394250747e-03,6.478230471515016888e-03,-9.806142116209302984e+00
1.529504952838828128e-04,-5.543584997218203685e-04,-9.794213684448948243e+00
2.948645761222059951e-03,1.883994059159032871e-03,-9.794107302437833340e+00
2.986781154128239670e-03,-9.970413783245181405e-03,-9.797070956149230625e+00
-1.524766586817112200e-04,-1.547824938261572981e-03,-9.786926402315007323e+00
4.288751608541181357e-03,-1.170481137310670121e-03,-9.786137554950995465e+00
3.585363263788384196e-03,5.834535084078222751e-03,-9.799360969814461697e+00
-2.642858842062299762e-03,-6.628321525937831867e-03,-9.799503776138621447e+00
-9.314881849785108716e-04,-6.339875444411583079e-03,-9.793351542554905365e+00
-7.738443842216130618e-04,3.259152093399438326e-03,-9.800984820478541693e+00
5.884804930968884004e-03,-1.096752368087456839e-02,-9.808378653415047665e+00
8.703147132776123049e-03,6.909846581460641658e-03,-9.790863158994705273e+00
1.817281727242843004e-03,7.715308967279508809e-04,-9.789888197127140756e+00
-5.599930367763386076e-03,-1.432459148039886659e-06,-9.785593684871358278e+00
7.501036248858957735e-03,2.926361278748462833e-03,-9.783845971602112002e+00
1.895956414952670605e-03,-5.205383132675140898e-03,-9.791953108063637501e+00
6.078939721586386347e-03,-6.300397647500266193e-03,-9.801738566310540079e+00
-5.099746311985919357e-03,1.590759155904534041e-03,-9.786951345297870475e+00
-3.809668745476140449e-03,-1.979774272714530329e-03,-9.796026916657497807e+00
2.385613486863592814e-03,4.605437628915986549e-03,-9.792032681469825306e+00
-8.479010107496151236e-03,-2.700573198507391897e-03,-9.789487278883207466e+00
3.149730267435372783e-03,1.200573298034738083e-03,-9.800536496931234964e+00
-9.012015725282436496e-03,-2.551114456231357106e-03,-9.795524220106280211e+00
2.089281923406148544e-03,-3.101168874348454382e-03,-9.785329615340664589e+00
-2.921458665365429352e-05,2.976928409600928475e-03,-9.790868349790251557e+00
-1.260617030493527092e-03,8.844296334147861913e-03,-9.801714937659669502e+00
4.801214642660723945e-03,-5.495954361860648160e-03,-9.808137494470832607e+00
-8.338170180966457748e-03,1.509664764676949987e-03,-9.807675943272958108e+00
-1.267070391783897774e-03,-4.894227081590676182e-03,-9.797553859694930978e+00
7.220461597999740938e-03,9.474691992423284539e-03,-9.788167728724735284e+00
1.526774807400505668e-03,-2.857139149681455891e-03,-9.788943730626659345e+00
-2.870445223054473010e-03,5.465308550032696791e-03,-9.787797216690522717e+00
5.513116001781217732e-03,4.381390282087980342e-03,-9.789934245302696070e+00
1.287552917428145790e-03,5.531405542133555802e-04,-9.799855936545588619e+00
1.018690516003491545e-02,3.340888691156477294e-03,-9.798583967237822989e+00
1.450655328069151186e-03,4.460609467034089932e-04,-9.789730894404209849e+00
1.248996781350030080e-03,5.403467824342567637e-03,-9.792131604963357105e+00
5.567838483931011016e-03,5.159762365449843159e-03,-9.796445900239600491e+00
5.301076658787481216e-05,-3.582082904860112507e-03,-9.798929134072015046e+00
8.889513605785321140e-03,-1.472969514517836998e-04,-9.794184640043178902e+00
6.301031513395554708e-03,-7.244212167062046796e-04,-9.806898923003309676e+00
7.348311729933816247e-03,-3.328106527152775804e-03,-9.781969587839629554e+00
-2.297787656666244738e-03,-9.647834706840236613e-03,-9.807683620827537752e+00
-1.098010023611028455e-03,5.169027473139743180e-03,-9.799551556591948653e+00
-2.348025091818257103e-03,-4.329744546831953804e-03,-9.793016897852478309e+00
8.179915691509672771e-05,-4.407207351683882328e-03,-9.795858557014653911e+00
-3.640690415811147912e-03,9.273939633609948070e-04,-9.787419691814029932e+00
2.721304479927444918e-03,-1.044749113046637787e-03,-9.796491987190938389e+00
6.368129204510057477e-03,1.181058861391501335e-03,-9.799458010300616806e+00
4.243232346850174010e-03,1.142038447600579598e-02,-9.788674817238629089e+00
1.176181576590585491e-03,5.290236697146939379e-03,-9.787739415210314320e+00
1.130960148747467767e-03,-5.954938062810907415e-03,-9.790212028266493505e+00
-6.895256749339822612e-03,3.089213516484490968e-03,-9.785100074709337292e+00
4.904684883577096338e-03,-6.102424323471796396e-04,-9.797944397270434536e+00
-7.849733771936158455e-03,3.904322936153910469e-03,-9.778376286975946741e+00
-2.750747072420563037e-03,2.054029524014641759e-03,-9.786832993580546258e+00
7.671287911889968641e-04,-9.432276985911784359e-03,-9.781428036386841995e+00
3.957281176044747349e-03,4.667829434943164026e-03,-9.787516871463447288e+00
5.557543424600287080e-03,1.159519729250159045e-02,-9.797171222118116418e+00
-8.830966460811311841e-03,1.498070934427655533e-04,-9.805515863323361003e+00
-5.187334633826558121e-03,4.178113393972418934e-04,-9.808748487657561910e+00
8.388299729025232646e-03,2.778063134838147912e-03,-9.791072247221292102e+00
9.203187160997015892e-03,-3.236869787541024005e-03,-9.796466691594195808e+00
-2.851167042127565263e-03,-2.663331304829928345e-03,-9.800866551382906522e+00
-5.071471566666984308e-03,-1.480840922623813264e-03,-9.786931952946696711e+00
5.942977413735804626e-03,-7.925531105389682640e-03,-9.790658804295274464e+00
-4.337124443136528701e-03,4.125977955663591087e-03,-9.803851251805328459e+00
4.502530935774411332e-03,-4.439930855834947100e-03,-9.800876203316464697e+00
3.776253117969933550e-03,-1.059850578194184052e-02,-9.802975068824698823e+00
1.395546821384263886e-03,-4.014764156445362400e-03,-9.797474110555587146e+00
6.561462877217220198e-04,9.887298630077022768e-03,-9.806241286849507688e+00
8.650543015767486396e-03,2.179576210550367415e-03,-9.789307940287903520e+00
2.583582330596087898e-03,-7.127925467019138872e-03,-9.809497674907701636e+00
2.445492136968123106e-03,-9.806532121390310747e-03,-9.804706800626393104e+00
3.816015756048182252e-03,1.616444917394003729e-03,-9.784484446378101552e+00
3.540995991841456962e-03,6.679601926844733195e-03,-9.799742081253024040e+00
-1.614643522163564581e-03,-4.503954406638650820e-03,-9.793415299623836390e+00
-4.183507538363251052e-03,-4.697986991754766334e-03,-9.810178425553104375e+00
-3.413939352032149474e-03,1.080496703450226689e-03,-9.792627846898762201e+00
4.257866400883778338e-03,1.638188447778159010e-03,-9.789916551425015712e+00
1.646501298361275440e-03,-2.586866904070032978e-03,-9.785540988894315007e+00
4.965507541789657489e-03,-5.800999362570737582e-04,-9.805905830994404937e+00
1.128612572819466878e-02,3.261520518145253982e-04,-9.796685887899487355e+00
-9.253194971841629049e-03,-2.766345616640253097e-03,-9.800911448262104031e+00
-5.877358668938680551e-03,1.725385346855338575e-03,-9.797507215471178199e+00
-1.740059784002816624e-03,-4.972065443105202175e-03,-9.789406910306306386e+00
-6.528728935530426700e-03,2.438668701238453328e-03,-9.785088588935755283e+00
6.483902741019226604e-03,7.091717068745719173e-03,-9.800689440453469459e+00
-8.461065985957162954e-04,7.450218371133666972e-03,-9.783703321675186970e+00
-1.937394725729552677e-03,4.007791710949931002e-03,-9.797678533508578980e+00
2.404637319785368592e-03,3.215202579001976476e-03,-9.799890277386369419e+00
-1.124996458094652124e-03,5.661034501810937106e-03,-9.794478818905615114e+00
-3.499912593617284656e-03,5.623595450697606302e-03,-9.790208654873589822e+00
-2.400445875091994710e-03,9.721786690919501789e-03,-9.794247069772193726e+00
2.172330550982577366e-03,2.318285594994675715e-03,-9.791831133734344661e+00
4.328271430804068488e-03,-6.357666600519883485e-03,-9.806046871805456533e+00
-4.670435662533482628e-03,7.501590188951357853e-03,-9.797284599738953048e+00
2.876283170662579432e-03,2.000947835077189138e-03,-9.787541769186615781e+00
3.460880094617467886e-03,-1.453664083071574921e-03,-9.789912933396120565e+00
-8.707965137670909198e-03,4.085242533405756410e-03,-9.801830372102495303e+00
3.191559153979971197e-03,-4.365428650936836741e-03,-9.780031122335445914e+00
-1.011663563101421366e-02,-1.307466298999692030e-02,-9.788537724390151240e+00
5.866946594060605015e-03,-1.310002749871251246e-03,-9.778997628699540812e+00
-7.940355399863751121e-03,5.195680376587256434e-03,-9.790701295814187688e+00
-3.868634220328161775e-04,3.316553632378472800e-03,-9.785377721202996426e+00
4.029969151917425253e-03,2.703773246214687988e-03,-9.809501099880847619e+00
-8.663097656639749330e-03,6.577387780141753792e-03,-9.792385753254686520e+00
-2.325216362135131085e-03,6.442625534541517388e-03,-9.801255692182323287e+00
-1.144335220677134132e-03,-3.939552370491631976e-03,-9.799090533144044102e+00
7.883135582456790580e-03,6.303982494240773816e-03,-9.799189255531778997e+00
-4.042307843500564726e-03,-2.030982672734678914e-03,-9.791312710438612399e+00
-6.232554538130895055e-04,2.831681925859918961e-04,-9.800105602226471646e+00
1.057880255004917548e-03,-1.657810395185320895e-03,-9.818694401390535731e+00
5.156161572561521883e-03,-3.630902322572807095e-03,-9.783501861925264720e+00
2.917639877230154485e-03,-4.654016411133456675e-03,-9.802353050623992203e+00
7.247942889580519764e-03,8.059562273837544370e-05,-9.795278537586206369e+00
3.842470449857287879e-03,6.412042136351209145e-04,-9.796120879280408644e+00
-8.244088953681069989e-03,-7.132396398411305731e-03,-9.798017092601071454e+00
9.829704064424210630e-03,-5.957584326188492159e-03,-9.797044115009923004e+00
2.252662590513093612e-03,-6.410923060840761911e-03,-9.793469148780278744e+00
1.690722286162407110e-03,3.605941420870074996e-03,-9.792107130988974006e+00
2.429781968948041375e-03,-9.841162162995782323e-04,-9.790021605648396630e+00
-1.323581501713832912e-03,-1.034174503142384644e-03,-9.786687543453552962e+00
7.214183480021724723e-04,-1.871575144481119285e-04,-9.802292463820313273e+00
2.080897923885169712e-03,5.425264921267685791e-04,-9.794349270240795491e+00
1.944365336028615939e-03,6.239125434110211199e-03,-9.796987939207118856e+00
2.291543023558371885e-03,9.362295934019652932e-03,-9.791067468393588769e+00
4.521514930439833602e-03,1.157819332840948762e-02,-9.791176348917220551e+00
6.567215412192610284e-03,-4.896780397448665875e-04,-9.788793588717759064e+00
-3.028583223962615003e-03,-7.247246047226202272e-04,-9.786267713937229829e+00
9.161507696677015714e-03,-1.088472824688293920e-02,-9.797308393600452803e+00
-3.287312971954826652e-03,-2.274780717502450367e-03,-9.798334611088522550e+00
4.091218930316699092e-04,4.279444611793775449e-04,-9.800104954657777867e+00
9.967634513703367283e-01,-3.047436127323484376e-03,-9.792534704619598074e+00
1.001831182366279105e+00,5.463464822662521779e-03,-9.798079064629323653e+00
9.998134737473772793e-01,-1.497212331228148577e-03,-9.800631633064805115e+00
9.922723567313186388e-01,-7.601826398349736773e-03,-9.764702440011904017e+00
1.000262943450504372e+00,-2.984783050870388598e-03,-9.800802692791815929e+00
1.009148146742394614e+00,8.258838765463349940e-03,-9.799627822418182532e+00
1.001455050601028463e+00,-4.341501054817471957e-03,-9.785120549178710547e+00
1.002153403445961821e+00,3.288099979487625965e-05,-9.793467663271298917e+00
1.006342023547968312e+00,-6.742544890987535108e-03,-9.795372793401655898e+00
9.986675941173522864e-01,1.894041012390501339e-03,-9.798912208420734515e+00
9.916717788248631260e-01,-1.928359321119549720e-03,-9.793035039193568991e+00
9.979516140174921057e-01,-2.140422505098460351e-03,-9.785579039598788498e+00
9.965129899134018698e-01,2.248876060190922038e-03,-9.784612352652372280e+00
1.005350611286635498e+00,-2.224219632148607267e-03,-9.785571517368094163e+00
1.003158022176150466e+00,-2.057356761357510876e-04,-9.807979026415862833e+00
9.962907371488197716e-01,-5.920312916715684323e-04,-9.795561529053879113e+00
9.995616316569877480e-01,-6.070685804570332376e-04,-9.790125525086576630e+00
1.006385882459504222e+00,6.039241156100370357e-03,-9.791521945117608539e+00
1.014172110382871583e+00,-4.837094713634513578e-03,-9.786359364495844204e+00
9.950774862567145496e-01,-7.724136910112792791e-03,-9.798549160812731529e+00
9.985839739654632785e-01,-2.479267989281240103e-03,-9.789690196576822601e+00
9.958151767434703094e-01,7.370549742355933347e-03,-9.793548488589065570e+00
9.998256250867109118e-01,-4.043185179204759894e-03,-9.799362579206988499e+00
9.980789184313137996e-01,-5.179864926882633315e-03,-9.793834073850662847e+00
9.950755535351119008e-01,4.255712493440871533e-03,-9.815141656884939891e+00
9.999545174838007089e-01,-6.017027100658697836e-03,-9.792953379733408070e+00
9.991338807381616727e-01,1.974488651727261072e-03,-9.801861014031299391e+00
1.004753328863798867e+00,1.999244705205780771e-03,-9.790888728116867057e+00
9.887614305496428280e-01,-4.743367539075526475e-03,-9.807078721798797361e+00
9.999220835927932205e-01,2.624596874922374874e-03,-9.803323883207939460e+00
9.973304792553371323e-01,5.220600710958721302e-03,-9.791957816367416356e+00
9.913091850202808697e-01,2.797939934110555121e-03,-9.779211995169349692e+00
9.995334456851258098e-01,-4.396537070586833094e-03,-9.792809849369708886e+00
9.961300188777025832e-01,-1.338964573654101604e-02,-9.795258802224687145e+00
9.995298497502858037e-01,6.302167413858867327e-03,-9.777942937416312930e+00
9.934705594523277616e-01,-1.066498063883408471e-03,-9.795341816890621445e+00
1.013258257976894283e+00,-2.361817612618543998e-03,-9.802346522916984384e+00
9.994695484571430866e-01,-4.212253205518793828e-03,-9.792466105995732306e+00
1.001182528594440901e+00,-2.517697806758033372e-03,-9.786484936345432928e+00
9.937987033770609990e-01,-3.369376126134136437e-03,-9.783234056827859959e+00
1.002966768919779428e+00,-6.826505586149443291e-03,-9.801771921635440421e+00
1.010073270143774016e+00,-4.616899735421134410e-03,-9.798870425483952928e+00
9.930013985430540258e-01,-7.616670717301449872e-04,-9.793180779814496972e+00
9.941123798598689998e-01,4.504222057695718429e-03,-9.787016617610355240e+00
9.986075345034649553e-01,-3.807990063639916500e-03,-9.802573229632328022e+00
9.944785453940123698e-01,-6.877230188914484118e-04,-9.802607178730935900e+00
1.005524963998262633e+00,-4.533108809060898241e-03,-9.788775548469152099e+00
1.001197165638293640e+00,5.491903104469521811e-03,-9.794997054504282374e+00
9.957883025468031724e-01,-9.083848211148929123e-04,-9.775751976672765409e+00
9.960705115978792934e-01,-4.635748363536388791e-03,-9.801811422825272402e+00
9.957208151692061859e-01,1.407314733474853124e-03,-9.792612541708626495e+00
1.001044237840502227e+00,4.803913124840403573e-03,-9.799208690969432922e+00
1.005458149220246344e+00,-1.236900484874795675e-03,-9.784123428148566504e+00
9.944583223624107182e-01,6.336585914652072661e-04,-9.796837074129692624e+00
1.004671558341697191e+00,-1.916933600428105027e-03,-9.786093441184709363e+00
9.961572434835546108e-01,1.410986393322556307e-02,-9.801505833757433450e+00
9.976466978625762039e-01,5.824314962128904032e-03,-9.792344999916959836e+00
1.002943736306110223e+00,1.085286815498013793e-04,-9.789398672275989810e+00
9.835241720437252200e-01,-3.044737419775856487e-03,-9.790442562451294961e+00
9.977547808869109414e-01,-1.528248096485254962e-04,-9.792664482984699603e+00
9.944531496552623251e-01,-8.598425822241391112e-04,-9.782458300978394306e+00
9.897399712449066467e-01,-5.489563913507764480e-03,-9.796197784932022756e+00
1.003272145511826530e+00,-2.548429828501999053e-04,-9.796427504774049666e+00
9.998749602873390208e-01,7.233020176407770063e-03,-9.786663848999424431e+00
1.000408523168150099e+00,1.642790240161416887e-03,-9.800043252669901506e+00
1.003142390456670308e+00,-1.531811534686241399e-02,-9.812393336002637412e+00
1.006543879208977144e+00,-2.241864710495628139e-03,-9.808855756518441993e+00
9.951360946308484001e-01,4.298413240393243566e-03,-9.801241747198512044e+00
1.008429501379968896e+00,-2.833042537102105005e-03,-9.802187481999251162e+00
9.954268340405275639e-01,9.980852120909874687e-04,-9.812611851488929560e+00
1.001431920330409620e+00,4.606928274759620155e-03,-9.798333891713987498e+00
1.000467938131561318e+00,5.444420592428160998e-05,-9.809847060825491738e+00
9.948961354956407099e-01,8.927593784751580719e-03,-9.790062473554685951e+00
9.929605135003845007e-01,3.924087025711023302e-03,-9.801706187074929133e+00
1.004635501578474033e+00,-4.933781078263544881e-03,-9.796756642107636637e+00
1.005743642434335561e+00,-2.304534620880960370e-03,-9.783301281429208629e+00
1.002457108456866752e+00,-9.284216847134642249e-04,-9.796002014161016902e+00
1.005491986110949476e+00,-8.563635345628725507e-04,-9.802314339537467447e+00
9.941395463223898776e-01,-4.920006130694380871e-03,-9.792085651916451638e+00
9.922909577306134876e-01,1.819024552006898393e-04,-9.783047183175282768e+00
9.976515467224663647e-01,4.370238848795501146e-03,-9.798283705902095519e+00
1.007308407435006048e+00,7.771541100921788153e-03,-9.785071107381861921e+00
9.996362785575453325e-01,-3.947315617418198884e-03,-9.803131598377497369e+00
9.978739258931529355e-01,-1.288053101223103191e-03,-9.792839617846187394e+00
1.003124145612919405e+00,4.369865777587911282e-03,-9.790243259070594561e+00
9.994595116153607295e-01,-2.201797394578594753e-03,-9.811725098540735601e+00
9.948628061617050822e-01,-2.565726853969142306e-03,-9.777664028605872915e+00
1.002604554965630612e+00,-1.065444647699844306e-03,-9.800836019927492870e+00
9.975611912393417269e-01,-2.927631040569823526e-03,-9.797196652512800696e+00
1.015010208895773980e+00,3.611117931129462222e-03,-9.800885742043986326e+00
1.000093185427221032e+00,3.039571555275444575e-03,-9.792114282258520319e+00
9.950033495815314710e-01,-2.087686947600019775e-03,-9.792255424108969208e+00
9.946175278331620406e-01,3.756279822128687131e-03,-9.809541723509903832e+00
9.983981997362397776e-01,1.402920879716765788e-03,-9.796888116684144165e+00
1.007428933701686846e+00,-3.047303112866491231e-03,-9.800041717226745774e+00
9.959752422146149753e-01,-2.495664130700954377e-04,-9.803995391535696768e+00
1.000279581009290375e+00,3.407229787380976020e-05,-9.786497346420306442e+00
9.975664974513588357e-01,-3.563786301361192722e-03,-9.805389392303476725e+00
9.964012849565647700e-01,1.283507124841123687e-03,-9.794914839358376923e+00
1.001420613445200170e+00,-1.899244107682320762e-03,-9.783610634227429159e+00
1.007058788695224250e+00,5.300067198379289878e-03,-9.807217766331310926e+00
9.963094299583425961e-01,1.536244321133433191e-03,-9.802036164022778664e+00
1.010868752873879117e+00,6.702628427831838070e-03,-9.794943130411990495e+00
1.001132894248095484e+00,-1.398462143407691377e-03,-9.803265736646439521e+00
9.940033475892142700e-01,-4.872055666204001172e-05,-9.795286062165299512e+00
1.009513941390832059e+00,-5.599629073500313539e-03,-9.793468104763791260e+00
1.002923911337388452e+00,-4.624368961903406114e-03,-9.794865409359585939e+00
9.944638125550605556e-01,3.613103419465204212e-03,-9.793974723752659983e+00
1.004250299539116487e+00,-2.872562744192978020e-03,-9.789025330523292823e+00
9.985342707486077884e-01,3.891206862708603692e-03,-9.795109080616075659e+00
9.991661974195039653e-01,-1.226153607043988653e-03,-9.803382502157203859e+00
1.001874882840085856e+00,-3.130257580354237762e-03,-9.792267059883895897e+00
9.959974219462280898e-01,-8.428847603934882735e-03,-9.806587528966032252e+00
9.956624844336606772e-01,6.282421145925062671e-04,-9.805467590174496095e+00
1.000113290093250340e+00,-1.509418097049440967e-03,-9.781213159394440027e+00
9.979182554496984769e-01,-4.752115327278101653e-03,-9.798599903057192861e+00
1.002005779225874749e+00,7.199812011844953716e-03,-9.799051020999451467e+00
9.934343863458129364e-01,9.521308797862223150e-04,-9.797893051987959012e+00
1.001476294497099184e+00,1.004186722527128026e-02,-9.787663312463756426e+00
1.008309861099689231e+00,-1.225248460421876281e-02,-9.796134643196360514e+00
1.004007415090198307e+00,9.224028902373003361e-04,-9.792702786323191688e+00
9.966416211892717980e-01,3.996466750943670695e-03,-9.784847736083015945e+00
9.910269053422299246e-01,-6.956144538032338343e-03,-9.789957124690007007e+00
1.005851444918123727e+00,7.110259667984471406e-03,-9.798283089101918364e+00
9.928339709911123689e-01,-2.464620836417890509e-03,-9.789556387749291488e+00
9.990188874475982583e-01,-3.584661946493570856e-03,-9.803030736930423927e+00
1.002837252224637821e+00,-1.071941851493186807e-03,-9.801436937610601419e+00
1.000117581131178213e+00,-3.813334726082240594e-03,-9.783891180388598841e+00
9.992100214972197136e-01,-4.862367830967124355e-03,-9.795313696672820925e+00
1.002220109260038461e+00,-2.387145208754366896e-03,-9.793532060420581331e+00
9.975790129927863958e-01,-1.071507490694520795e-02,-9.790218673507386171e+00
9.984154342408770866e-01,-6.949401011469135553e-03,-9.796263284498031965e+00
1.003873872595642203e+00,1.156929489841227376e-03,-9.806820248033954357e+00
1.010073744890151559e+00,-5.390053369122797984e-03,-9.798522452347022238e+00
1.006106458485587662e+00,-4.505117609106225850e-03,-9.798623937504252979e+00
9.976074860906049002e-01,-4.768326237482392073e-03,-9.793349620318920756e+00
9.995977094160094500e-01,-6.632613058619928233e-03,-9.795718360945778969e+00
9.968524904776935314e-01,4.383492053475336256e-03,-9.798808100202327509e+00
9.919777582571077668e-01,-7.836175325550163778e-04,-9.785294169111431017e+00
1.003374193189565666e+00,-3.152533071505562220e-04,-9.788274285859873913e+00
9.955875841959601624e-01,-5.902466248997931524e-04,-9.800371481436952692e+00
1.004665359445396700e+00,3.642084031408734848e-03,-9.794666758441600507e+00
9.919137245844789064e-01,-5.024644532341487717e-03,-9.793978764497431655e+00
9.953505357870955361e-01,-7.897044837621896088e-03,-9.796427358954650444e+00
9.923491547740216356e-01,6.232174956445601585e-03,-9.801741035677226321e+00
1.006443232788343245e+00,6.573723006580155757e-03,-9.806678435240460345e+00
9.969677557312320859e-01,-7.213469133043629196e-03,-9.790711781678819392e+00
1.002501804964113896e+00,-1.063487394136489357e-02,-9.798307695739117307e+00
1.001210561375901031e+00,-1.692289536930401865e-03,-9.785368790410991835e+00
9.990124239930487926e-01,-3.115676376762226835e-03,-9.792187339973470017e+00
1.003949978935206433e+00,2.637880054488986672e-03,-9.794322194224152511e+00
1.004499497935436692e+00,1.340688044677072061e-02,-9.796712921371995009e+00
9.999134348736687938e-01,-3.690585036039370839e-03,-9.791009449385352781e+00
9.996020457778310719e-01,1.695371512697648212e-03,-9.792673274697127894e+00
1.013075799216155870e+00,3.877665517522632145e-03,-9.778288395156119250e+00
1.007518597952845374e+00,8.077263982134996051e-03,-9.804200279678420671e+00
9.987696735973955464e-01,-3.548026043568870431e-03,-9.788488759140934192e+00
1.008082915351960818e+00,4.805942561009708203e-04,-9.793973867652590926e+00
1.013199140258312481e+00,-1.885120298298180539e-03,-9.788958997781993077e+00
1.002307993518070317e+00,1.889116503900990958e-03,-9.793002195618573325e+00
9.958250293471261338e-01,-1.409584637032222513e-03,-9.789774141204404145e+00
1.001404819680844271e+00,6.295606376360662719e-03,-9.803999791309886191e+00
9.921384715844843161e-01,6.095320560023933035e-03,-9.795721904790067214e+00
1.001280379784861729e+00,2.119316383157964553e-03,-9.800618983882262825e+00
1.003511096835203675e+00,2.799861167994977147e-03,-9.787093698144840204e+00
1.014998898673840078e+00,8.016996784719683522e-03,-9.792997917380336759e+00
1.004660687233983385e+00,-2.879605591443472681e-03,-9.780980181037801202e+00
9.965852153415949433e-01,5.430029160269846285e-03,-9.799166382199524961e+00
1.002747793800727427e+00,5.547036808310344853e-03,-9.795163865610469145e+00
1.003206935240528175e+00,-3.432505873250597892e-03,-9.796495864868690617e+00
9.999462109082275507e-01,1.000906012676508992e-02,-9.791516493061822146e+00
1.002447132633004445e+00,1.257475340215083622e-03,-9.785837248953999534e+00
9.974811727412294937e-01,-6.155684684524416993e-03,-9.794751982476430641e+00
1.001600987697384371e+00,-2.254177453889061756e-03,-9.802399869961458734e+00
9.997965538226949445e-01,-1.342256639216686531e-03,-9.786186396605637938e+00
1.003571096772275295e+00,6.299796837440333960e-03,-9.784284384186012318e+00
9.988495096524784289e-01,-2.226710448324906513e-03,-9.787701713218577737e+00
9.954835082446734651e-01,-7.353680262560712347e-03,-9.786576644888517862e+00
1.005254166522842496e+00,2.481452548860753164e-03,-9.797782614813966617e+00
9.938911565138063287e-01,4.385311480836024019e-03,-9.802475580826556012e+00
1.004638174568377673e+00,-1.686957382398470090e-03,-9.788769031472323690e+00
1.006063737878607256e+00,-2.969669666202132390e-03,-9.805716459829593390e+00
9.972009036244053881e-01,4.281654215306184529e-03,-9.794226592508097795e+00
1.005876932477051566e+00,-4.316022342457234533e-03,-9.781780698970115040e+00
9.969380274184370672e-01,9.944130572173948655e-04,-9.789196767748258310e+00
9.947581910083548307e-01,-2.445094311276771373e-03,-9.788666115517242972e+00
9.925004444350471466e-01,3.023055610142588549e-03,-9.785086769778221338e+00
9.992856233603167881e-01,-3.075582693324280248e-03,-9.799225662201239473e+00
9.947247190604451283e-01,7.408862404618681442e-04,-9.790788246413820062e+00
1.001974306777761559e+00,1.104716068723976194e-02,-9.793529781818335778e+00
1.001927997625545519e+00,-3.906416133831662994e-03,-9.808142715958545921e+00
9.958934940607800934e-01,1.168045434746591178e-02,-9.800660081949132518e+00
9.995957091641346492e-01,1.250168247303276668e-03,-9.790408731622976646e+00
9.972559758617128844e-01,-1.116465821807048923e-03,-9.783824930872473402e+00
1.009584514547368306e+00,5.041509745734968143e-03,-9.791996501085069582e+00
9.970059321631506988e-01,5.342266773273074941e-03,-9.799439964165911121e+00
1.001016387448095069e+00,6.441559069540108394e-03,-9.803012240175904779e+00
9.899862444850622278e-01,1.036086949293226790e-02,-9.812113374441411295e+00
9.973950748246223075e-01,-5.720081388684890820e-03,-9.790693973876669176e+00
1.005976191636146488e+00,4.117830934879150931e-03,-9.799630140672659806e+00
9.986655885142626810e-01,-1.438752159132227534e-03,-9.795152782945754311e+00
9.968928366284547371e-01,5.478915323847413296e-03,-9.794386637714524113e+00
1.002256898077881431e+00,-7.250510013091980240e-05,-9.797713500758552740e+00
9.971835381229997575e-01,1.956176800995275324e-03,-9.799291534744734022e+00
1.002651600919855834e+00,4.009093164096522860e-03,-9.797044215760244867e+00
1.001564022351478345e+00,1.698338348062124886e-03,-9.807978088548169993e+00
1.003395388847307057e+00,-1.816787402053840136e-03,-9.796055902259784176e+00
1.002244644477373381e+00,4.683563498290986560e-03,-9.789208793705872935e+00
9.989761087269458661e-01,1.004331368445726853e-02,-9.786373253077945478e+00
1.002689876145849590e+00,-4.049183959089047149e-04,-9.788244257914421098e+00
1.001174261759453232e+00,1.007335068305243884e-03,-9.792252777923897256e+00
1.000293692482358887e+00,-4.024963656571035713e-03,-9.790270903666383973e+00
9.968976551683524923e-01,1.477992999401831495e-03,-9.800168773200971017e+00
1.006859066068377384e+00,-4.979004374306034500e-03,-9.794606751744948880e+00
9.999112964275652660e-01,-1.085625695777192373e-03,-9.791571436207542334e+00
9.997217868016767817e-01,3.083358579104741285e-04,-9.789969408221267599e+00
9.984035359578363744e-01,4.028638252905785908e-03,-9.802339348988937218e+00
1.005258372969749736e+00,-1.077802898207064035e-02,-9.797628017216007734e+00
1.000150215427618949e+00,-1.756415618387683827e-03,-9.792493039699365909e+00
9.942274881986843393e-01,-3.618014226142576145e-03,-9.779145026237840099e+00
1.005639362906456391e+00,-3.924404548448903740e-03,-9.796924392068241616e+00
9.988487041280591505e-01,8.947711741053973513e-04,-9.806243923261558137e+00
9.944724365340763539e-01,-3.683913633120182180e-03,-9.798030393132956206e+00
9.994244398441295418e-01,9.371675620964818945e-03,-9.794347586891312574e+00
9.992297159844631960e-01,1.618950112464056590e-03,-9.791851819312277883e+00
9.980585869954570200e-01,-5.287492920388181007e-03,-9.779171816779589577e+00
1.006408208507938662e+00,-5.666084626340020698e-03,-9.794797540427436999e+00
9.981659848046279260e-01,3.028805777434708923e-03,-9.791370272093359972e+00
9.978835874478370060e-01,2.444273650359508714e-03,-9.801990850908815389e+00
1.005046328182210624e+00,3.402979703328670898e-03,-9.796875071327271201e+00
1.003260640741627796e+00,-3.866760549078737674e-03,-9.795799554770495021e+00
9.935965017826412504e-01,4.584039683892982865e-03,-9.778384402595547087e+00
9.962650218306856598e-01,1.039293755686044284e-02,-9.783971206593568226e+00
9.948469591937674217e-01,1.645871285291386574e-03,-9.794705574549118055e+00
9.943827253041519487e-01,2.918907006585632312e-03,-9.804288593122191031e+00
9.967351354263371821e-01,-3.686940539791079986e-03,-9.778761104792540237e+00
9.991904272867677683e-01,-1.142845358280945509e-02,-9.797857788121575595e+00
9.993922327975954811e-01,-3.650508570832272301e-03,-9.801509011821950779e+00
9.980688893190826638e-01,1.399089376003361147e-02,-9.791464230369950172e+00
9.958210965956536542e-01,-3.940780623332470339e-03,-9.775715590821082657e+00
1.001648816917082074e+00,-3.096190072625633772e-03,-9.792730280782814489e+00
9.913333280263704195e-01,4.967654150986097056e-03,-9.778736200064948036e+00
9.983344178168590544e-01,-2.300443092455351207e-03,-9.783754451220483261e+00
9.979279251856686406e-01,2.045408530893246327e-03,-9.799281736173714563e+00
1.000935646262881118e+00,-8.136034187240785698e-03,-9.780033598528897087e+00
1.004247918237153758e+00,-7.510498502872497116e-03,-9.804580108272725525e+00
9.926672881481886090e-01,-5.511122466268293316e-03,-9.791344487725110568e+00
9.937307532756356476e-01,7.679592762362567882e-03,-9.792845992675818678e+00
1.007261996944489146e+00,-1.527883234343974410e-03,-9.802747232457129201e+00
9.997098076099257824e-01,-9.802956897949285930e-04,-9.791185466245561742e+00
1.008331403874792809e+00,8.422885759829841371e-05,-9.795219300150352026e+00
1.001673290475304068e+00,2.450102716155582328e-03,-9.780555520660660918e+00
9.958958001677149507e-01,-8.968844759723702473e-03,-9.794649179978074827e+00
1.000515390241245361e+00,1.700870002677761818e-03,-9.803509915398107566e+00
1.000814508956066717e+00,1.444398069790248963e-02,-9.799664867050335459e+00
1.001123630932430064e+00,-1.276980453937887538e-03,-9.781383089351074034e+00
1.003005625236098153e+00,-5.788971734604981189e-04,-9.789412426898746133e+00
1.009242308305087210e+00,-2.182036876848589117e-04,-9.795742117966129925e+00
9.995654810117011735e-01,-1.766314284615182065e-03,-9.791567912731515833e+00
1.000311013870491150e+00,2.242821224234387012e-03,-9.785570243624917453e+00
1.000930854887887911e+00,-1.438297090311109342e-03,-9.782506400748106401e+00
9.978917067332111479e-01,-1.204238769635288279e-03,-9.786536012098050463e+00
9.960439725766687680e-01,5.687338811120875443e-03,-9.800328709259007454e+00
9.994988671881095410e-01,-2.610436826391931715e-03,-9.799158966257653702e+00
9.960116494430704126e-01,7.121139772265244229e-04,-9.800661994996552551e+00
9.982165336545616441e-01,2.219859439768420272e-03,-9.802169035541915321e+00
1.000497626007543106e+00,-1.059512548477132502e-03,-9.790880355167713489e+00
1.005494771833832512e+00,-1.630153616034219584e-03,-9.792515644271052366e+00
9.925470074391873343e-01,4.899941427140504929e-03,-9.798096418470601421e+00
9.960175708893136415e-01,2.271044476940306967e-03,-9.807758010060888765e+00
1.009242270270690245e+00,-6.354081386672394763e-03,-9.791399361902598741e+00
1.003835424848180002e+00,-2.897927158196009472e-03,-9.782290498060518757e+00
9.959876585249716197e-01,-1.255738608841239744e-02,-9.779315147946675779e+00
9.955961906141091999e-01,-4.137653778972212940e-03,-9.790375233489902129e+00
9.985941900043875386e-01,-5.221536823329314160e-03,-9.798021312733867560e+00
1.007738407914224865e+00,-5.970376711072310737e-03,-9.793271945763450503e+00
1.005497370209595953e+00,1.152645697459883309e-02,-9.800074757977759177e+00
1.002822594571844972e+00,5.240798937356072607e-03,-9.793496919311843740e+00
1.007730294956641126e+00,-1.390818219746981638e-02,-9.796615992108867133e+00
1.001977016017508548e+00,1.045850540163088989e-02,-9.797792921779027608e+00
1.001162794873793116e+00,-6.552071471618270068e-03,-9.807085583259864237e+00
1.002881424794117349e+00,6.907786874535840407e-03,-9.795616492378272255e+00
1.004246625701200379e+00,-4.565213959623366270e-03,-9.791706622380999647e+00
1.005633270033601478e+00,2.041196054003175959e-03,-9.781634292668243802e+00
9.914070626724418300e-01,3.365703965432750074e-03,-9.799098236270832984e+00
1.002387736678042929e+00,-3.000182862991235006e-03,-9.801868368703846812e+00
1.005915676014956572e+00,3.891002268603299067e-03,-9.787059289762042980e+00
9.963189006337438425e-01,2.001194386435166395e-03,-9.787793968572009007e+00
1.001387329260102765e+00,-3.794276760663162738e-03,-9.795848847532278469e+00
1.000438446033730333e+00,-3.702766961555726665e-03,-9.805627236961026227e+00
1.002026244973386326e+00,-3.467194568699694265e-04,-9.795659044694964734e+00
1.003230069291846105e+00,2.960696470009302819e-03,-9.806220060482392142e+00
9.959829721138387937e-01,-2.086379012849255265e-03,-9.796654586989824054e+00
9.990672087076944985e-01,1.005163657219459647e-02,-9.796567808807415290e+00
1.000531834815008292e+00,-1.704836323703041957e-03,-9.805035292704378236e+00
9.928433629538928606e-01,-3.735932872327726081e-03,-9.785654845986705652e+00
1.003252458363008692e+00,-3.196847690008766760e-03,-9.787978849016241156e+00
1.002755606116663589e+00,-1.037444884711520923e-02,-9.795245227561037993e+00
1.000128705923618577e+00,-3.622425950182132817e-04,-9.786518106775414338e+00
9.995417208801608000e-01,2.986775585257179198e-03,-9.785217697572516471e+00
1.003867521592529233e+00,-8.243744307828928695e-04,-9.810026729633987586e+00
1.003679054356561684e+00,-7.845164169884743383e-03,-9.794858977653872145e+00
1.010802013638143038e+00,-2.891305739995718178e-03,-9.795181832365940977e+00
9.932746233577384176e-01,6.170114665830186322e-04,-9.792511566273752521e+00
1.008655159358466502e+00,1.582757680821630421e-04,-9.806572013671328136e+00
9.964854074169432474e-01,-2.772744715993407955e-03,-9.793623529248712600e+00
1.004414998409927318e+00,5.132911374692693089e-03,-9.790783540620006775e+00
1.003469453038731141e+00,7.392493460441064597e-03,-9.789990032205317050e+00
9.992365923604421551e-01,-7.199710951739265313e-03,-9.809085813262987230e+00
1.000704973150726484e+00,-3.697670691152450499e-03,-9.795310754171573819e+00
1.008725425801072939e+00,1.586796554478899120e-03,-9.777593207430417266e+00
9.988438371092848156e-01,1.385546258581834850e-03,-9.789450103958046157e+00
1.003679200457163523e+00,1.796683664475992549e-03,-9.794914396475855156e+00
1.000564512178129473e+00,5.690714408365268179e-03,-9.795021373390103037e+00
1.005736067789166466e+00,2.729598679478767377e-04,-9.794115640376363174e+00
9.993552344645554308e-01,-5.273109733354168407e-04,-9.778687237316219694e+00
1.003656453101167356e+00,-1.038172222823206684e-04,-9.796187416693353356e+00
1.008014791307703106e+00,7.494142343632689655e-03,-9.800238251776887566e+00
9.969095946488538695e-01,1.783565148795101000e-03,-9.787122579337617978e+00
9.961254295134267522e-01,8.416306813048142726e-05,-9.795034968106133277e+00
1.002169978108166104e+00,1.285709143315175336e-02,-9.795499719464299204e+00
9.999710751689927513e-01,3.229769040090015898e-03,-9.785255262836720647e+00
1.011048359122721951e+00,1.631436346220899820e-03,-9.783742165615736397e+00
9.843197528511650196e-01,1.900100491075759970e-03,-9.804679913701182414e+00
9.956165335856532739e-01,-2.382731211875064822e-04,-9.782727564509965390e+00
1.003750205233515436e+00,-1.116548940971829815e-02,-9.806419499146405983e+00
9.946506662977437907e-01,2.319841261269790962e-03,-9.807837383587164837e+00
9.958780246936070890e-01,-8.667779444713556150e-04,-9.806600471818036624e+00
1.001056545342962956e+00,1.291240713136709503e-02,-9.784337653569084026e+00
1.002990332388571826e+00,3.795596067618985537e-03,-9.798315321646178688e+00
1.001190496950838726e+00,-1.069912191601231875e-02,-9.792261749771801860e+00
9.976968758516452374e-01,-3.161053070707037541e-05,-9.795984509500584636e+00
9.891552168135422374e-01,1.200686432106815677e-03,-9.801655873381243111e+00
1.003331601282470675e+00,1.908861424831715303e-04,-9.795052214764224274e+00
1.002252854310513142e+00,-3.479332809361464912e-03,-9.807905274771055559e+00
9.961291840678715426e-01,6.716859201795424708e-04,-9.788464830886232093e+00
9.978869456869506882e-01,-2.490672206981602195e-03,-9.803157300160771470e+00
9.971193195610905669e-01,6.972359900510649577e-03,-9.790499430556096172e+00
1.002080902763455850e+00,1.234620192343188327e-03,-9.806602140515352062e+00
1.008896806984065364e+00,1.423099059461786775e-03,-9.793123208328289309e+00
1.000425039485471235e+00,-2.742887474894664668e-03,-9.788086682633993618e+00
1.006073103600400920e+00,-4.082929299355731075e-03,-9.803467298393867324e+00
1.000831663727365539e+00,-3.504318292314742480e-03,-9.798718301530088937e+00
9.979420974063784033e-01,-7.439992290257044401e-03,-9.790511351029893561e+00
1.001168340665635093e+00,1.020484229852217876e-03,-9.807858692101966369e+00
9.998259803519421451e-01,8.424150050943834695e-04,-9.779688224767562943e+00
9.994933864995388939e-01,6.471178371147424382e-04,-9.797002774415769721e+00
1.001235070511865111e+00,-1.190235729588100429e-02,-9.790599056625936214e+00
1.006209378742370042e+00,3.745306343445826362e-03,-9.799628990464940514e+00
9.864901508078068870e-01,2.122334996621525784e-03,-9.800280676389826695e+00
9.994403499005927172e-01,-7.292598375710117493e-03,-9.797930429715428602e+00
1.003878162117862072e+00,6.281358175173840618e-03,-9.799146844992634442e+00
1.005789281031421734e+00,5.976506832097837167e-03,-9.783022467568859071e+00
1.008824723865056727e+00,1.430516392911152304e-02,-9.802901169957491945e+00
1.001622483942874009e+00,-4.464826477656854038e-03,-9.787654346457143717e+00
9.985953709415174018e-01,-4.143478104832097782e-03,-9.788941130377102340e+00
1.002356809897401169e+00,3.498281166971825909e-03,-9.806312102595649449e+00
1.002637394053499609e+00,2.660458061829854589e-04,-9.792088018850863662e+00
9.996131768332832124e-01,-1.208914708083509530e-03,-9.801405136761298209e+00
1.000111960886667317e+00,-1.265524925003446962e-03,-9.786846857580895787e+00
1.006657591790323769e+00,2.035044575584268791e-03,-9.797351177059340444e+00
1.011948598163251667e+00,-1.163918557331085259e-03,-9.793956460891182658e+00
1.002161229470047044e+00,5.780743835291592050e-04,-9.806876278463001029e+00
9.938075298199974261e-01,2.204697054869060504e-03,-9.799424132510605290e+00
9.937455108072791310e-01,6.287328420706768915e-03,-9.795719705225854668e+00
9.966567758042682579e-01,-5.287261791771222935e-03,-9.800214883722878412e+00
9.879897603331641021e-01,1.040917569308351907e-02,-9.791595343044747324e+00
9.935433129706413569e-01,-3.282326693480031119e-03,-9.803254893570647610e+00
9.970572717600664214e-01,2.259445763330736844e-03,-9.794430588305068852e+00
1.001635082462817072e+00,-9.602598156117154093e-04,-9.800057886637135951e+00
9.961921975650174232e-01,1.589338629385362005e-03,-9.783306028505922569e+00
9.983568143434258246e-01,6.519558768123294955e-03,-9.782778568100559013e+00
9.955099250977067493e-01,6.943852502705767996e-03,-9.784622917815863019e+00
9.995384916364706829e-01,-3.225475648552024368e-03,-9.781904364366821980e+00
9.921907630777132558e-01,2.958233347635500030e-03,-9.779120809915115231e+00
1.001744480927020176e+00,6.744039480620553622e-04,-9.789061342173361879e+00
1.004153940403659462e+00,-4.708281090513318987e-03,-9.803047833321446802e+00
9.993637374842947452e-01,-3.097246195602840462e-03,-9.807803539407556670e+00
9.947479714012441576e-01,2.302850336054128050e-03,-9.805854471270148309e+00
1.003037895802691537e+00,-4.407894720930897320e-03,-9.799356698600755422e+00
1.007104634937932897e+00,4.417148248430926953e-03,-9.797903044911254966e+00
9.992612952626729328e-01,4.573689199790048794e-03,-9.795901019660455233e+00
1.001266373724996050e+00,-3.805897963593494852e-03,-9.786163871229836886e+00
1.001170175099158399e+00,-3.084612442701822280e-03,-9.797466622892487820e+00
9.881706740741972306e-01,3.941071173123539793e-03,-9.798926974330592898e+00
1.004140004641327355e+00,7.565203411977357122e-03,-9.800842871528370637e+00
9.948424974283633926e-01,6.485678577191580051e-03,-9.783337019951481750e+00
9.894589942695730667e-01,-4.829922466005647647e-03,-9.790914100600266678e+00
9.974080164707004315e-01,1.223967120324390059e-03,-9.804000778487907297e+00
1.001321352478875326e+00,5.267283123313709061e-04,-9.807952403339506020e+00
1.005704504077765460e+00,2.977501172581165090e-03,-9.780576647543806956e+00
9.965570786283768356e-01,5.678975565553461870e-03,-9.790064859063420499e+00
9.956088280467826346e-01,4.959824837855914687e-03,-9.785543170590747408e+00
9.997116870998095095e-01,1.502597976969252778e-04,-9.791527780516775081e+00
1.004715663474698095e+00,1.117839362648036195e-03,-9.791939567599744265e+00
1.004891280226563488e+00,1.891005862056289923e-03,-9.789317825766326919e+00
1.010036716870008622e+00,-2.247061514939623344e-03,-9.786132395425648056e+00
9.981180110546226114e-01,-4.369979538419517702e-03,-9.801478244093338787e+00
1.004761436020984888e+00,7.352084407669824814e-04,-9.792416129985369366e+00
9.994036138193388430e-01,6.061516775656728383e-03,-9.798214184129776072e+00
1.004718955919197798e+00,5.235825165218801688e-03,-9.781834680453847852e+00
1.000657416256067966e+00,1.049299093734309008e-03,-9.786906234231226520e+00
1.005838911381133904e+00,-9.637531058464881770e-04,-9.797941325424639913e+00
1.006635870138863353e+00,-1.721688596805060747e-03,-9.790306532199332779e+00
9.959515148285935648e-01,5.675270049012067896e-04,-9.790073429524140280e+00
1.000146688278398255e+00,2.994676420369899415e-03,-9.798383945101358350e+00
9.953554079183952741e-01,-2.877640398863407357e-04,-9.796734231108921165e+00
9.981133273317184251e-01,1.058026340026840470e-02,-9.796020795636225742e+00
9.871959841641709810e-01,-4.194303442142098895e-03,-9.806927381902475815e+00
1.003593513296150208e+00,-1.985650927308570471e-03,-9.791111784148517572e+00
9.952520403275980643e-01,-2.141342410954576864e-03,-9.792452041481254810e+00
1.000582806636761024e+00,-2.397332279910800116e-03,-9.797910737603464426e+00
1.006937466902924960e+00,1.486863333180889505e-03,-9.799057699067233784e+00
9.971689127977209077e-01,1.949600878586866788e-03,-9.798530978147663717e+00
9.950870489079435277e-01,-2.568551601377548101e-03,-9.789425687162211176e+00
9.992809423900769206e-01,3.820489181324558930e-03,-9.802555901485032308e+00
9.974639625488874728e-01,7.149356638795277899e-03,-9.785408185501490053e+00
9.976235303320595271e-01,-1.042132966183047932e-02,-9.803016056909445552e+00
1.003103576159574795e+00,7.937155214755488991e-03,-9.800873913257650116e+00
9.955338702616788327e-01,7.522039539656607057e-04,-9.801438358571052945e+00
1.010632634080308012e+00,5.413966262774480218e-03,-9.792919487457714567e+00
9.995585821794267245e-01,3.640384440245139804e-03,-9.787172278675416948e+00
9.900885533006938966e-01,-2.584460548460147753e-03,-9.793961314895270220e+00
1.004707083332983863e+00,-3.777224240235803939e-03,-9.797503777524715574e+00
9.969675175039476311e-01,-7.740854864474096611e-03,-9.793177684076519895e+00
9.999298032479030374e-01,8.578157304675780581e-03,-9.792019800208088043e+00
1.009247067490482097e+00,6.353418565428200354e-03,-9.793944829527720941e+00
9.988267736703100308e-01,-4.068049826958303715e-03,-9.801319830764841257e+00
1.000573749427539738e+00,2.173419525808254361e-03,-9.790172281563641832e+00
1.000604446579584250e+00,-5.856305052915056035e-03,-9.801939591863432000e+00
1.000962396520236775e+00,1.338665812722605528e-03,-9.793459471232754510e+00
1.008969503185867422e+00,-2.738621736453023241e-03,-9.806608856562489152e+00
9.987552185422753359e-01,-4.163246862069934322e-03,-9.794635569832747635e+00
9.997597490932749187e-01,2.685636509744591515e-03,-9.797663816545915338e+00
9.950685064398882007e-01,-5.401531770612604325e-03,-9.798953845323723044e+00
9.944288194449490970e-01,-5.804621295806739606e-03,-9.804978664318852566e+00
1.012407941428671521e+00,1.534303264335707068e-03,-9.797630887106448583e+00
1.001072264367573350e+00,-3.652986016773195239e-03,-9.775911882357027238e+00
9.985381272150434251e-01,-2.959264687712149025e-03,-9.773902054112012294e+00
9.948788493233109431e-01,4.501504469368552736e-04,-9.807888344635468769e+00
1.008340695207913917e+00,6.723549436306667767e-04,-9.787745715462927265e+00
1.004163817174687834e+00,-4.340712897280096620e-03,-9.800447486874423575e+00
1.006816946169962979e+00,1.636440260823936036e-04,-9.790716315006724457e+00
9.900191799274253857e-01,-5.331482980345204556e-03,-9.794129134027615535e+00
1.010990934599907964e+00,-7.193926506948737122e-03,-9.792155780894512773e+00
9.981233295425794294e-01,1.591632067288659396e-03,-9.804713334171996308e+00
9.945020427471038538e-01,4.339056579088115990e-03,-9.799496973343327255e+00
1.000322169764837232e+00,-6.792256747972278503e-04,-9.799726927377292895e+00
1.005504701859960770e+00,-1.020604346212509441e-03,-9.800955046459044695e+00
9.964720334833716553e-01,2.100210732541028195e-03,-9.792479057378503882e+00
1.004570204652438292e+00,-9.949932713779047460e-04,-9.802937333442489631e+00
1.005921801408726557e+00,-8.480786627884252110e-04,-9.796130970230924717e+00
9.926675225508772016e-01,6.140302204082488148e-03,-9.803403755669638286e+00
1.004125730239230352e+00,3.054836905579387096e-03,-9.802046901581931593e+00
9.988268195749420153e-01,-7.243921637279300031e-03,-9.805759426151910318e+00
9.945941343934603385e-01,-1.746297395264949414e-03,-9.801791936521892623e+00
1.007568378504505979e+00,2.082421393458718396e-04,-9.776488174083221239e+00
9.971422927645436918e-01,9.715511362935320278e-03,-9.796796223901450773e+00
1.002135967150301621e+00,1.692763344861324517e-03,-9.794164982428767985e+00
1.006698148535950965e+00,-4.984261967151589097e-03,-9.793917192682833672e+00
9.994483510801003279e-01,-5.042619684226495695e-03,-9.794424805840789006e+00
9.902658005126480090e-01,2.001251413171285711e-03,-9.799260205581584060e+00
9.978524198316016669e-01,1.178868812024246732e-02,-9.803737748659431261e+00
9.971895483132365845e-01,-5.196060436489739927e-03,-9.788039560796125471e+00
1.001156678818673429e+00,2.484822396823501496e-04,-9.792053261044367574e+00
9.962554810188302135e-01,9.998453466423904302e-04,-9.792798979300432194e+00
1.000399276845386209e+00,8.924976819482896302e-04,-9.782329149830138348e+00
9.944613398921712255e-01,2.196726851215197261e-03,-9.800689934969238237e+00
1.003100246100431692e+00,2.861320029037607050e-03,-9.782772316387600142e+00
1.002407995924202488e+00,-5.305450501471157751e-03,-9.801638361113091946e+00
1.005000214145617798e+00,-9.544607476363702048e-04,-9.793831505447908370e+00
1.004927554307815774e+00,-3.099314720699635102e-03,-9.792278181554509686e+00
9.973586193686402313e-01,-4.483099354030212202e-03,-9.802705144310333907e+00
1.000810781979101671e+00,-2.931670358433201892e-03,-9.793346118813564871e+00
9.992417095867126564e-01,2.048978129046104062e-04,-9.800073237460116715e+00
1.000048807827729203e+00,5.244601885507791002e-03,-9.790009265850084574e+00
9.999232044487994520e-01,4.397562100588317015e-03,-9.796136875181861825e+00
1.004142437592129289e+00,-1.816430039018616200e-03,-9.798441240860508827e+00
9.938739041694418797e-01,-1.175476615548048682e-03,-9.795989831359966260e+00
1.000642352163087390e+00,2.429958716341178940e-03,-9.784962672437405473e+00
1.007814171856866947e+00,1.357231898068796388e-03,-9.800292209645775188e+00
1.001345292504020490e+00,1.969594439500276417e-04,-9.798551655363620938e+00
9.958907410674510130e-01,-2.736777921057312150e-04,-9.794045078731173248e+00
1.007260641553699987e+00,-7.499169332606752010e-03,-9.788997234377125878e+00
9.893729266434508896e-01,1.092102065576647067e-02,-9.796614690799621883e+00
9.956097178921116120e-01,1.235459218142907940e-02,-9.813933574912326208e+00
9.989465484333635015e-01,6.786633534689431001e-03,-9.791018799890135682e+00
9.947401765201674406e-01,-3.747418293419388369e-03,-9.796417297722218365e+00
1.002529050790334164e+00,-7.961831387215165907e-04,-9.804708852822816567e+00
1.003335079075682978e+00,9.705418415754833716e-03,-9.788148825059277414e+00
9.946040107226755689e-01,-9.514115314048403674e-04,-9.790541691275343794e+00
1.001751190298236560e+00,-1.903527251940523692e-03,-9.793997190658224383e+00
9.986284742321023256e-01,3.484472671500535908e-03,-9.799263036222567891e+00
1.001632686808831441e+00,-9.084454503340727224e-03,-9.791341944956844401e+00
1.008008717384124786e+00,2.468044723890625361e-04,-9.789043752426282552e+00
1.005710612212687316e+00,-3.142742148258172575e-04,-9.783007203096198978e+00
9.927416464743578084e-01,-1.163851169362286816e-03,-9.799207950190016447e+00
1.000272790271512058e+00,-2.558293748102436014e-03,-9.795415832505019793e+00
9.966528022218082983e-01,4.058836260573764516e-03,-9.790315024516170084e+00
9.934771749224572401e-01,-3.890684483845496187e-05,-9.795184281406031701e+00
9.967624514937261093e-01,-5.001980788775240057e-03,-9.778803798816067427e+00
9.916075643150954466e-01,-1.563153504805086472e-03,-9.798371415591768496e+00
1.000977974938766391e+00,-6.787768582204574928e-03,-9.798960357621597339e+00
1.001859456394929238e+00,1.035495258069254977e-03,-9.791014333694443295e+00
1.002356662957629263e+00,-8.903257344128175099e-03,-9.793955788767233273e+00
1.002244862834943628e+00,-9.308585051966144358e-03,-9.792822656857616437e+00
1.003876501116525377e+00,6.987504252213417102e-03,-9.789309758459566524e+00
9.959502870449337131e-01,-8.888595015681580169e-03,-9.793245354783365997e+00
1.000175140315482381e+00,3.204545470387927444e-03,-9.784963193590781927e+00
9.906600130192803055e-01,3.296007579228641066e-05,-9.783575155189373262e+00
1.004797368215609499e+00,3.973619266014524060e-03,-9.790638285901540172e+00
1.002895291599610106e+00,-4.991876971282596144e-03,-9.787570696573249407e+00
9.972297949952393381e-01,-2.903943249261011980e-03,-9.799758950922386802e+00
9.992197134146865167e-01,-1.167136311405592977e-03,-9.786404581985511442e+00
1.005648386333709121e+00,8.020073293035581002e-03,-9.804390942235867712e+00
1.003905944063578470e+00,3.346130548076204757e-03,-9.806680494430308315e+00
9.980168518438298220e-01,-5.947782832586832359e-04,-9.793101758178840655e+00
1.000761024079266370e+00,-2.506668524572226893e-03,-9.792032871551311857e+00
1.005408821137753650e+00,4.339364692679177106e-03,-9.800269750205821140e+00
9.948557195925497032e-01,-3.666511481440943871e-03,-9.782749677047590353e+00
9.970813510140252856e-01,-9.559626396155091908e-04,-9.810560255937573970e+00
1.005153564530434140e+00,-7.679778783697874776e-04,-9.782797247885600456e+00
9.904325500886065337e-01,-7.155508177282894622e-03,-9.804211148947823418e+00
1.000121572969860928e+00,-3.380624654888047045e-03,-9.797407212334363180e+00
9.946563283813871781e-01,1.045787964045625292e-03,-9.802581329055302106e+00
1.004878527036402458e+00,-7.621399993307131264e-04,-9.787212287785429510e+00
1.005990822460798517e+00,-4.378406280051712340e-03,-9.789928793098352955e+00
1.000186215103865850e+00,4.075849956806852810e-03,-9.787017021250639104e+00
9.952612418597390764e-01,2.640690059759696982e-03,-9.809897722322807212e+00
9.924729748543353880e-01,6.746605441532510343e-03,-9.788994456700896407e+00
9.952223590843001233e-01,5.173634924360504678e-03,-9.806355298210595706e+00
9.981482746640933934e-01,-1.253292477539890912e-03,-9.796068327735079961e+00
1.001379486480302949e+00,-5.656532891222592827e-03,-9.797013434288617262e+00
9.965624368040432168e-01,-1.194894311488572947e-02,-9.779078231145737377e+00
9.934190193519315537e-01,-2.557555614414369952e-04,-9.799037481072947031e+00
9.889518065189850660e-01,8.284838911299156894e-03,-9.794022641266545648e+00
1.003069140187835329e+00,-5.244944146335640302e-03,-9.792220420826094340e+00
9.961222308341051157e-01,-3.476138307664709826e-03,-9.795696501672448875e+00
9.958106893691306416e-01,-8.619692133671289294e-03,-9.823618325243071325e+00
1.005651682935542413e+00,-3.786154593478317505e-05,-9.795184743250114678e+00
1.003682013842501553e+00,-1.513840955464145757e-03,-9.803646644840346980e+00
1.003976236583369319e+00,-4.793001595602598350e-03,-9.804684256780385354e+00
1.001250123282383830e+00,-1.150189075012083813e-03,-9.803970033440991827e+00
9.969700359001938406e-01,-7.974732691176025920e-04,-9.780617192856006170e+00
9.973374712045141033e-01,-3.548122578430141366e-03,-9.803674477921155983e+00
1.005653718580227451e+00,-5.124900927396692368e-03,-9.793954953332614011e+00
9.991053694965360554e-01,-2.572273000253269114e-04,-9.796451396953747448e+00
9.995346076032251004e-01,-5.295838263409678379e-03,-9.793222604411806032e+00
9.977292711432983463e-01,-1.632421779139344733e-04,-9.795395440268450216e+00
9.986730124741333148e-01,-4.981471837905962832e-03,-9.810073965141036467e+00
9.973832955092146735e-01,-9.360020871083061514e-04,-9.805463162037424851e+00
9.993654918219271321e-01,2.931153673689627936e-05,-9.796336269876407599e+00
1.004225297750973134e+00,-2.502322077003108283e-03,-9.795420770393294063e+00
1.003037071279762937e+00,6.855401328170999606e-03,-9.774786213449461414e+00
9.932091876164488298e-01,8.519765347823422732e-04,-9.801723550216575376e+00
9.955510537415511729e-01,-1.273094551960878527e-02,-9.800542699430836890e+00
9.953385208201328549e-01,-5.918990407017372772e-03,-9.810763740757321827e+00
1.001978974292726088e+00,6.407812295191541926e-03,-9.787952843734172959e+00
9.973164392446893789e-01,1.277378650267933921e-03,-9.793108850004596633e+00
1.005402895393471718e+00,2.679686249808889420e-03,-9.789407341863533674e+00
9.918515527845678248e-01,-3.883304435976469085e-03,-9.789481767488377173e+00
