gyro_x (deg/s),gyro_y (deg/s),gyro_z (deg/s)
5.036214637536756689e-03,7.721582561268737488e-02,-2.585458613151882939e-02
1.814494406905482228e-03,-1.110608342429805599e-02,-9.828599803972680460e-03
-7.781238619827370029e-02,2.945116597704817638e-02,3.131720733178729697e-03
-4.100620241756423173e-02,1.445324770455233554e-02,4.469144183410569959e-02
-1.433073690871236767e-02,5.754459264295296028e-02,-5.901117274207252905e-02
-4.595024475710159095e-02,-4.384376856031649977e-02,-2.068470852913888158e-02
-8.387133040498070957e-02,-7.684936013432205719e-03,9.201542343403069923e-02
2.805907943194166712e-02,-2.622420173105128195e-03,7.345058766009575357e-02
-7.064476035540503962e-02,-2.205966670545782965e-02,3.774708591439051436e-02
-2.528451570562353229e-02,1.991872214259526527e-02,-2.788256413120941690e-02
2.452228847483388374e-02,-8.003171882479677771e-03,-1.218306130755970745e-01
3.759999557288298822e-02,5.715967177101609342e-02,4.455694766073688140e-02
-4.032126472580210667e-03,-6.206474801916397020e-03,1.168973169660285534e-02
-2.350267480491095157e-02,-3.669808424254061147e-02,1.028056130898968856e-01
-3.351121519237548058e-02,1.479394367208605211e-02,5.093441649402555282e-02
1.512099274055345513e-02,1.807249429587089173e-02,3.114292575298504076e-02
4.208329657142999974e-02,-1.661764067586084248e-02,3.739036649864872081e-02
-1.452288760478687678e-02,-1.920732533031910272e-02,5.214142573474188358e-02
1.197045037439515430e-02,-5.850223943457170256e-02,-5.669316565419752624e-02
-4.158030870942613227e-02,-3.671024584046678196e-02,3.591178677789808038e-02
7.074927092414207142e-02,-1.183842317747380544e-02,7.413733380221655678e-02
2.743272498787363567e-02,-8.089212962180512487e-03,1.960297861711294068e-02
2.037140326747178404e-02,5.167680418037867013e-02,1.207832500846775341e-02
-8.012106127893747418e-03,3.633941748409678929e-02,-7.305505459929438616e-02
5.893304053642422352e-02,1.609667762124271026e-02,-5.614796687004255243e-02
-1.511870813820786856e-02,-2.002666418187730099e-02,7.004643285992130652e-02
-6.871269513030782428e-02,-1.944993058501680305e-02,-4.474421404277054148e-02
-1.146574548455637776e-01,1.507102195989182616e-02,-1.002308433649824575e-02
1.981150491673510858e-02,1.952324840664570321e-02,6.964115988495322984e-02
2.738057217647337643e-02,-1.881052315222068658e-02,6.956235797891339653e-03
1.990001557065469023e-02,-2.783690927348016556e-02,-5.071390465181956769e-02
7.446579988248933253e-03,3.816932137604114872e-02,-9.860222686537988002e-03
-8.358857094934936394e-02,2.537899596339928537e-02,-1.650492981877364762e-02
-3.213570472467145583e-02,-3.247071115511027811e-02,5.409059902268124886e-02
-4.535089058223507746e-02,-4.881935158214199127e-03,2.225912416206600117e-02
1.966223172468548747e-02,1.639742515803255599e-02,5.942365898379192712e-02
2.583390172612184173e-03,3.482529263033748435e-02,6.370525022176670151e-04
-8.201239778298911876e-02,7.613190550771475884e-02,1.580474298500273919e-02
-1.418533477261529549e-02,-5.585108135368573729e-02,-8.023191311334317011e-02
-4.217335047737532511e-02,-2.840623729358792565e-02,-1.525285708326711530e-02
5.291786307862223621e-02,-2.103977181890498427e-02,1.139759773523686508e-02
-2.425784163768452415e-04,4.936295509783601709e-02,3.158292992172542779e-02
-5.445641834920112584e-02,-4.884315535213152454e-02,-4.383858373132130948e-02
9.832333302802599706e-02,-3.465885705924520721e-02,2.978187593206461231e-02
3.763536183532169288e-02,-2.834210775994082387e-02,8.971570880918454394e-03
-3.636504667450987660e-02,2.216312733042893890e-02,-7.468930571825652120e-02
-5.414577917785973193e-02,-7.019681040788628389e-03,4.681604308779357786e-03
4.539447156792904975e-02,-5.039991597068758543e-04,5.875080702244310504e-02
-7.554259586787476048e-03,1.988507979714546417e-02,2.447885531557113248e-02
-3.398322293282794726e-02,-3.629771459037525738e-02,-2.103102349892865819e-02
-2.363334756149836416e-02,-4.186585981997062444e-02,3.528860840052971265e-02
2.476038183098626042e-02,-1.118892346340282298e-02,-8.301431703935530104e-05
4.221975013770102453e-02,-1.133527385451066870e-02,2.670721987078693120e-03
7.402658660182377670e-02,4.488545421921119605e-02,-2.351103275538548101e-02
8.389523095144588161e-02,-7.461266196972567155e-02,1.389250423109386623e-02
6.647862570380352887e-02,9.268711236071720816e-02,2.999790909203259651e-02
3.047141178148840036e-03,5.739545949793192769e-02,4.222226829102790346e-02
3.549087740462373436e-02,-2.709607697325196879e-02,-6.817475897290149744e-02
2.313434059057027301e-02,-6.461884674224331604e-02,-2.028007968264869398e-03
6.688289622901914810e-02,-5.026525002307984102e-03,5.381799104300605090e-03
4.871454963224232382e-02,2.435210437567027555e-02,-1.225246316758443338e-01
2.455045737216212873e-02,-3.543006386522200551e-03,-3.008838531882705204e-03
1.099408078089554180e-01,1.285372405362250094e-02,-3.208238708393677894e-03
4.819473072319759716e-02,-1.181923731240890584e-02,2.356410717242670913e-02
-4.317370777157313044e-02,4.558465986290378275e-02,-4.357279976521714199e-02
3.099087339656542497e-02,-4.492723288679838223e-02,3.380341530129448574e-02
5.340635335004808443e-03,-3.410345396322692502e-03,-3.850044111079270470e-02
2.335659991145894523e-02,1.403969486358857578e-02,-3.129957064691732405e-02
-2.815164483999690881e-02,-1.095304524412191866e-02,5.224070119196130846e-02
5.237243372259141327e-02,3.264474660741047835e-02,1.221574792869608156e-01
3.602701017040409182e-02,1.291162769182015342e-02,-1.474176275876762539e-02
-2.206747488494851129e-03,6.553022790292281630e-02,-5.350376048540928658e-03
-4.943853071987688169e-02,-3.783066406841270601e-02,5.047533549021408772e-02
-2.335737789188335745e-02,-6.537305554690474307e-02,-3.322836954447369595e-02
2.475765979758966229e-03,6.343658923150266582e-02,-2.941424008151720393e-02
1.928190417498101480e-02,8.027426072791008296e-03,5.466409311847005882e-03
4.176906549848874439e-02,6.635352895004963114e-02,-8.961636007560043124e-03
2.164575065553180078e-02,1.128875044228323105e-01,1.020145791664075693e-02
5.257459280661204437e-02,-8.337416333291321202e-02,1.296208028144389679e-01
2.056555789154201896e-02,7.234205044111367833e-02,-4.582581620554676549e-02
-3.885475861368195560e-02,6.130097403822502150e-02,-1.764277821571452048e-02
1.271002529304668567e-02,-5.874228035231313609e-05,-6.981289161730210718e-03
3.198867010653045490e-02,5.516744936839298313e-02,-5.602552896167145580e-02
7.826612659607570105e-03,-3.720076158607688727e-02,7.038396331951886353e-02
5.488411705123711487e-02,-5.994670082168857689e-02,-5.247647978857684914e-02
-1.719002713620448528e-02,-6.993660395216926527e-03,1.006662081737898402e-02
6.192694777904948766e-02,-6.488364912206460999e-02,4.719098615936972302e-02
2.024740216704796602e-03,1.866234758240050860e-03,-8.198127534329524568e-02
2.821266414652550542e-02,2.820933246637060549e-02,-1.099627120010111597e-03
-1.626691077273023645e-02,-6.897369672894550219e-02,3.381063575852646247e-02
-7.925504407869253878e-03,9.264978967285337000e-03,-1.767437187520152705e-02
2.411392876362332212e-05,-1.902683045301954007e-02,2.033283075974449267e-02
-2.703715633830505033e-02,2.266176658816412143e-02,1.566616846898629886e-02
-3.038449610972741508e-02,6.237196711248696630e-03,4.337855759189509358e-02
2.873662898920257072e-02,-2.279146578067116000e-02,9.211152821625871734e-03
-5.230679856496998903e-02,3.034456138919221918e-02,-5.457674104558237621e-02
2.814912628022395516e-02,-9.969413605246998933e-02,-5.443146470645191665e-02
7.377879254149927180e-02,2.169679914112585678e-02,2.199635501586915190e-02
-1.442669380056144264e-02,-6.391746794431400758e-02,2.138961326673472635e-02
-1.637872816824354621e-02,1.394029306310630434e-02,4.665600407891412615e-02
2.488869220654505842e-03,7.353810937707975191e-03,-2.250165598864296151e-02
-6.364946503701536529e-02,-5.597838848753401014e-02,-6.268848112946209805e-02
-6.518027186192142108e-02,5.666813239637621263e-02,6.052295403272541299e-03
-8.396536212124048812e-03,1.188382634944700963e-02,1.046557010840559188e-01
2.690260522243078951e-03,-1.780663776870973838e-02,1.567711907272860070e-02
-2.647794549792809732e-02,-8.786503069750935258e-02,-4.088486769266515969e-02
-4.260829923133285096e-02,-2.956912994178078138e-02,1.965296170349031812e-02
-1.106000064201168726e-01,-7.034587944729488174e-02,8.346394379504848806e-04
4.535703399150383536e-02,-4.253031873311320286e-04,-3.940001543922336258e-03
4.943062356035227145e-04,1.460341649155404500e-02,5.904675933860158848e-02
2.897263282712010321e-02,4.969612293039805950e-02,1.765033064898447260e-02
-4.356041734891819700e-02,-1.056505952800001862e-02,-2.851526644237809341e-02
-4.725797871985418924e-02,2.852535457616315467e-02,-2.289200363486308329e-02
2.445722984170177125e-02,-1.505498625807808605e-02,1.794597509869532911e-02
-2.367059031892091228e-02,3.776585851746535466e-02,5.717808823321088307e-02
9.098377337607792270e-02,-1.025420564245290572e-02,1.143244247621292252e-02
-2.365460945493291431e-02,3.617826226681458007e-02,-7.495930786696194947e-02
4.112211696262572241e-02,-3.220429689762514119e-02,-1.346532380557407746e-03
1.609650366456051238e-02,-6.921284580080709625e-02,-5.282177313708326383e-02
5.711214519658201934e-04,-2.454248726166637432e-02,-5.630609450255882886e-02
-3.493573066804826766e-02,6.791214895081389494e-03,3.489913634294367073e-02
-2.172109568942090507e-02,2.019361205499182327e-02,6.267033601141890065e-02
-8.962575071897309342e-02,-3.591761893214977241e-02,-4.214674987345692035e-03
5.006649213803591320e-02,6.693067763711393892e-02,7.965662440962938129e-02
3.226918573872103457e-02,-4.755388401094207129e-02,2.729918155452060093e-03
1.616956105633225163e-03,-5.056538034993134090e-02,-2.410072177966761202e-03
-4.674895979441606904e-03,4.596261345243981417e-02,-1.818657537243155778e-02
-1.038548358268518573e-01,-9.792442687783802294e-03,5.628581245824818523e-03
5.942116623636660433e-02,-6.551934070580781380e-03,9.951012338840301702e-03
-7.358543975753311858e-03,-1.359139171360953732e-02,-1.679454673387135652e-02
2.451988152009188654e-02,8.212900088973264928e-03,7.215711278370025294e-02
1.953737616308858296e-02,-5.200907240506059265e-02,9.993580658971308248e-03
-2.415291797779244715e-02,-1.865669500106330184e-03,-5.858396991006475756e-03
3.682101073600482170e-03,1.205853119127914819e-01,3.826325624839250344e-02
3.122298914262567129e-02,-5.769398529166242656e-02,-1.149151626896617422e-02
2.696429204442716068e-02,3.906112901696584538e-02,-9.028430679015993221e-02
-1.609194227106947733e-02,-1.518631626863806193e-03,-2.450623281123124816e-02
2.420282893621847689e-02,-1.013329612405679675e-01,1.192426972103422661e-02
-1.008109151870892903e-03,3.038867579241138345e-03,3.864668567047017944e-02
1.755500582549758895e-02,3.534921512195549759e-03,-2.688933279560317205e-02
2.992797172229540170e-02,-4.121534801011764171e-02,4.022500953512028049e-02
3.704995765118201945e-02,-1.750418770213651651e-02,3.350102729035678295e-02
1.659731033340628575e-02,-3.778630392023742124e-02,1.054158245948047523e-02
9.158582364247866425e-02,-2.971017713933030505e-02,4.205062418941364101e-03
-6.279658501724985631e-02,1.638365112110281782e-02,1.047145638204394213e-01
-3.146341357435436525e-02,9.972001925942897138e-02,1.912560606829564330e-02
1.071596806020575464e-02,-2.458082412360589400e-02,3.830526335993435921e-02
-2.417235271234871585e-02,-1.349471798819413572e-02,-4.005844774313806374e-03
3.233614610708165134e-03,-3.086472780452580167e-02,7.514924781689400791e-03
1.803650354965096597e-02,6.060400644446367439e-03,3.596331168955914370e-02
-4.923306979017822577e-02,1.436108690911574873e-03,-8.173133657587316374e-04
9.221356822875856341e-02,3.604805594493831061e-02,5.905298448231147829e-02
-5.511596470220484628e-02,-1.463404838716665830e-02,1.845195781195675330e-02
1.076901394413009964e-02,5.357780725188935472e-02,8.798255545028863672e-03
-2.401235564285173624e-02,1.937040513096418334e-03,2.623372260894726513e-02
1.462283642982319283e-03,-6.392077442691304623e-02,2.865336702543525016e-02
-2.093563477765299219e-02,7.272033043605032054e-02,1.246607361154333966e-02
-8.651390945799896856e-03,1.588413271712718622e-02,-4.953383023902040855e-02
9.300502409482814398e-03,-2.960585493809377369e-02,3.631044959365808955e-02
-1.289084346204562477e-02,-1.175483401292125481e-02,-4.468908631339282150e-02
-3.018424810104584563e-02,4.130609723380482962e-02,-4.123619790733574347e-02
-8.618167606181090235e-02,-1.526644593753951826e-02,3.098514989274990875e-02
-2.738534347041227807e-02,5.314059574346092357e-02,6.447073174218037779e-03
2.981048533149814606e-02,-1.300337437068193290e-02,2.294275261967669913e-02
1.626473922132726582e-02,1.415661652044200667e-03,-2.379272954767310769e-03
2.232839657407723749e-02,4.676060537533460043e-02,2.511236245606018186e-02
-1.312530655062409124e-02,2.769029690454116082e-04,-5.661239422142344546e-02
4.053817047976159688e-02,-9.686893644624137295e-03,-4.954735487862195475e-02
-6.619957943888689356e-02,-8.488905719724357257e-02,-1.165115432720720962e-02
-3.544155503806163676e-02,-7.212260794215182014e-02,3.503007627513264610e-02
1.295950545461976681e-02,-2.887210762242736414e-02,5.423226039243019686e-02
2.485670196540624641e-02,-1.356733192731714860e-02,5.433531085317084251e-03
2.863062346227710636e-02,-1.533739271679029209e-02,7.483730737302567160e-02
-4.509646450368294535e-02,-3.802315887556891733e-02,1.423175691442642513e-02
6.537613082855118878e-03,6.494071551836948231e-02,5.134989395267314238e-02
1.898323226344695441e-02,2.471470882790654036e-02,3.518127215956554782e-02
3.431090117565983866e-02,-1.824902451412497434e-02,2.419344702023860233e-02
-2.896185089262401716e-02,1.001641791907512125e-02,-3.004263474005025233e-02
7.345027594806126381e-02,-3.947614050589407647e-02,-2.709272429090613457e-02
1.436056902874446352e-02,-3.317704499572241006e-02,-4.754083706103484630e-02
3.052327519299273366e-03,-3.078742963294473639e-02,-1.586932758903520854e-02
3.058137370463792637e-02,-2.352011956165245277e-02,-3.439528107948566088e-02
2.138903642861285370e-02,-9.841430250222778231e-03,-2.085471828112302455e-03
-4.323865721760587755e-02,2.555603749474114061e-02,2.912246851657234945e-02
4.813827863582723077e-02,-2.766179109431213951e-02,-5.137896611184959716e-02
-1.443609901940642350e-02,-2.574733904319210370e-02,1.110683536589850556e-01
-5.075186722373874887e-02,-2.853093681041129689e-02,4.530394345059444300e-02
3.423754813868979535e-02,1.991111889248800212e-02,-2.380118700540503549e-02
-1.816503309171123640e-02,5.133686663479528414e-03,1.016241314219456515e-01
-2.181490413112483276e-02,-5.144789860725332287e-02,7.315345972786686281e-03
3.755268933665607822e-02,4.820624096899712129e-03,1.919065588262301898e-03
-4.311344508526759184e-02,1.050361359806658516e-03,-1.095290425048437224e-02
-1.965872061269558282e-02,1.963903417665835861e-03,4.955640009955056963e-02
2.064729457965035209e-03,-2.772795747860668653e-02,-3.304378925077863793e-02
2.149693254486466712e-02,1.725540037555190961e-02,-4.682727610602787326e-03
-7.278564608973330484e-03,-5.462067566254580689e-03,3.187680723786850967e-02
-1.340001254115500730e-02,-1.238339479623330741e-02,3.085938417438429185e-02
6.483905228173492130e-02,2.796930892110176259e-02,-8.419061433120631627e-03
1.812138473668486668e-02,3.923919898777583279e-03,3.666141043499943769e-02
3.279916499209497432e-02,-5.796642655960027729e-02,-6.449691515970422222e-03
-8.179128390842704474e-03,2.226695666517726751e-03,-8.663571321101836212e-03
8.558669474122699086e-03,-1.491284344204180275e-02,-2.251092693374554324e-02
-2.416660954005408687e-03,3.487718688095605563e-02,2.798792888784158283e-03
1.980760666650818735e-02,4.022620813560666420e-02,-2.619718781262760435e-02
-5.204007509063310680e-03,5.123713640617312548e-02,-1.027188457474177176e-02
5.891123303382251458e-02,-3.058070058678737796e-02,7.808142489666521080e-02
-8.126079648606199246e-02,-2.436383850311625229e-02,-4.954072475652337298e-02
-1.194997808517656891e-02,-3.883559918145488427e-02,2.529434367397342606e-02
1.737873086402499934e-02,-6.426461595970289764e-02,-4.707092360215501398e-02
-5.155339865401328131e-02,-3.927586559327110594e-02,-4.288749504851944311e-02
-4.318864305435914791e-02,7.109192842532800760e-02,4.309388587274685239e-02
-2.264379665839495390e-02,-2.110258330699414306e-02,6.204155945036220893e-02
2.948388068108862003e-02,3.656613668550161289e-02,-1.630966865194697323e-03
3.254845493408792950e-02,3.276945364018538781e-02,2.088278815528374268e-03
-7.600197731806865309e-02,4.303380066304240276e-02,-1.102355758190115380e-02
-5.489707609886190082e-02,6.746168456334952768e-02,-6.851495416902135191e-03
5.173650435790998203e-02,-1.706878755528300901e-02,4.215564774506307122e-02
-2.023366361163562652e-02,3.727226382119512571e-02,7.305705377376211021e-03
-5.258706133024101947e-02,-5.108664140183992453e-02,8.367986846319584726e-02
6.077781745467140950e-02,-2.719576333204769963e-02,-7.518074055629715702e-02
4.826803367632567787e-02,-3.291499976070611649e-02,2.102983336135508946e-02
-5.335491673557522796e-02,-6.345271200639643339e-02,3.627301577039940966e-02
1.367876399229444803e-02,-2.902279122655419819e-02,-1.430109593307665565e-02
-1.150910424060130714e-02,2.324814478529489345e-02,-1.083285676135749796e-02
1.154781606345111344e-01,2.869870568178847781e-02,4.027494650349451588e-02
-2.964283885063135129e-02,7.909423906657933254e-03,-3.126739846893247105e-02
1.738156913714558952e-02,4.079397783319817228e-03,3.867792826558510977e-02
4.324990300136257598e-02,-2.318565099729257353e-02,3.299468958540945074e-02
2.072298429263272693e-02,-7.239204653729885974e-02,-3.227351706857800595e-02
-1.604577435398748045e-02,-2.232230981589249097e-02,-4.907235215087187019e-02
4.901245323791086211e-03,7.583838941945957035e-02,2.664863798148402532e-02
-2.746741166997775097e-02,5.283211360563358494e-02,-3.169251617042192354e-02
-1.099321483689628780e-02,-2.944534232195694656e-02,2.766940590660374802e-02
-2.000779758082516652e-02,-3.782382386353162762e-02,1.648848662628302555e-02
2.153915583102107914e-02,1.209102844312568217e-02,-3.187180007247322495e-03
2.191609520944893738e-03,3.906218944391862125e-02,-2.778828982681922841e-02
-4.561129374217776783e-02,2.061631099426328162e-02,3.859336276985341624e-02
3.402319892741405283e-02,-4.148902312535010344e-03,2.645224752187752028e-03
-3.997885409342439786e-03,6.785788196923533099e-03,3.981693903274687377e-03
6.001036443852078572e-02,-3.945610015627518813e-02,4.156770159640142681e-02
5.116478224225239069e-02,2.491518438452822518e-02,2.300642424976939021e-02
8.024515627244639335e-03,-7.857522305404179841e-03,1.921029995912527022e-03
5.546341166201353666e-03,1.922564624197920305e-02,2.969031005779906168e-02
-1.362331631759413665e-02,2.711896651315522447e-02,-6.135622145395264876e-02
-1.274364199608827020e-01,6.463196964687313584e-02,6.301916111903151964e-03
4.130154683759102753e-03,4.829603355994555730e-02,-1.886808066401966105e-02
5.034982714965040296e-02,-8.385689901221939080e-03,-1.709154966488039828e-02
1.474507208009758971e-02,-5.982741010062089804e-02,1.447347415840478761e-02
2.253437869256423587e-02,-2.183677979364347099e-02,-1.925708762713933828e-03
-1.748167888107047749e-02,6.326005758129084333e-02,-4.791749252980635754e-02
-4.373115931695104736e-02,-3.368004336706355989e-02,4.786800569894086865e-02
4.775945555414658900e-02,-2.439972628311714610e-03,-2.576604033123223655e-02
-1.877516283665879582e-02,-7.864946876019072650e-03,-2.320733023798002628e-02
8.950130901687429474e-02,1.208837259344423256e-03,2.727864231700279779e-02
8.622920693893212918e-02,3.072863559791965543e-02,2.881952172906983994e-02
-1.846993440873334613e-02,1.602676267909787164e-02,3.818876083838733393e-02
8.148235482859894196e-04,-1.396347657556810604e-02,1.557336494533202026e-03
5.908791289088781429e-02,-3.316751566918546557e-02,-3.435357419888082631e-02
3.326373855898043241e-02,1.649062798312440903e-02,-4.439494125079424675e-02
-7.625276762905795237e-03,-3.991591380397213618e-02,1.263821327767248315e-01
-7.525410970532409038e-02,3.843149927924687653e-02,-5.039247426662820523e-02
-1.730954142960467596e-02,-7.227437944081209660e-03,7.869151539036638165e-02
-3.636001347643309789e-03,1.033624465928128892e-02,1.553756883110894195e-02
6.996712171697219360e-03,5.697340333845580390e-02,7.990063296842948165e-03
-2.006477990726132643e-02,-6.900070310964617759e-02,-4.483001578761553613e-02
-3.696499079853102221e-02,6.270188133295331694e-03,4.360698640382228153e-02
-4.140522862078018992e-03,8.637865564652128653e-03,4.299898084418541516e-02
7.621175802584249925e-02,-4.390355238569840224e-02,-5.491188278014065560e-02
2.922929734219898573e-02,-1.956886713688080204e-02,6.386038751870305730e-03
1.540267042925074631e-02,-1.282585557204314053e-01,-4.848536164193305992e-02
2.012894480236331052e-02,6.054056513688231556e-02,-8.772974861086062226e-02
3.639393752026106525e-04,2.901182441707339174e-02,3.347485525489149460e-02
-5.464361227669859572e-02,-1.167469488174559672e-01,7.913359869361018262e-02
1.541428992375808681e-02,6.051223741291961861e-02,6.202226053934029038e-02
-9.395286781326282408e-03,-4.694772515515881900e-02,-1.291168003559959448e-02
-1.626389255682923751e-02,5.458117981668505342e-02,-1.005487031003049741e-03
3.797596226385215046e-02,5.942534500002853021e-02,-4.273953452385196444e-02
-9.282300362834837101e-03,5.633505024915698434e-02,9.606904170122165798e-02
-5.500733122274623771e-02,-3.011622435145785547e-03,1.425241973038373147e-02
-1.709487330904189278e-02,1.112092982477720345e-03,3.697850239668577788e-02
1.233664811791592049e-02,6.810313683122077265e-03,-4.878713125072225813e-03
4.911615231169885049e-02,6.076954472036933536e-02,-3.948264460570162504e-02
-3.945452526616057519e-03,-1.004735001960340574e-01,5.561219964739037847e-02
2.946417774875706094e-02,5.943062633262698874e-02,1.039563980428009383e-02
8.248586076874868389e-02,-4.005564388134994630e-02,-1.964944696584302545e-03
-6.190094322661921639e-02,1.448974929634067911e-02,1.663427396321947097e-02
-1.460682014556541168e-02,2.277432679413689959e-02,1.705713281340063767e-02
-3.343094322589099804e-02,-3.226607626672923362e-02,1.404184769306477364e-02
-4.791475178837621696e-02,3.847314524508545219e-02,3.260227685564349737e-03
1.126450530062746667e-02,-3.132750253429195109e-02,2.632121943707249959e-02
-2.739122490606976656e-02,2.154436107490685301e-02,1.630854428058239533e-02
-4.425566121916350154e-02,4.110921849209833029e-02,4.097690590306556080e-02
-4.527038768001413922e-03,3.960365004852102466e-02,3.387459176319532889e-02
-1.546559487571401957e-02,-7.540489240270405180e-03,1.287135988031104170e-02
-6.742802464113509253e-02,-5.205619853972312657e-04,-3.542991818661726192e-03
-3.307471416626620551e-03,-7.426884445285503178e-02,-1.954001398505536644e-03
-2.363459674588665876e-02,9.244537747321202037e-03,1.996797055979670360e-02
2.812667760380388460e-02,-8.052773955715462548e-03,-5.686736970457628021e-02
-5.513755268872507637e-02,2.833235739217039584e-02,-6.533320478059041758e-02
-2.967954446948002558e-03,1.228081855587067478e-02,-7.287105200463665777e-02
3.790180279917226835e-02,-4.279348353222022644e-02,-8.211692870762359042e-02
2.090196400590720646e-03,-2.207129444034445706e-02,3.089618355051300044e-02
4.016924614518471021e-02,-8.871356942082690711e-02,-3.777562008039461044e-02
2.202692012033913987e-02,-2.315643887171383447e-02,-6.555689344288755105e-02
-1.314885441747484437e-02,-2.209981915412524006e-02,5.570763416928183054e-02
1.858229965311699455e-02,-6.482518955378664682e-02,4.101447280765094239e-02
2.007975651978901460e-02,-3.039436795160415858e-02,6.161246898253047895e-03
-3.551720423963069390e-02,5.731222192185988704e-03,-1.441987866430170101e-02
1.936596718273906476e-02,2.032022306015724561e-02,3.146888326958104110e-02
-2.624398260005210079e-03,-1.376822866936224833e-03,-7.144088688597258208e-02
3.028418731816251777e-02,4.865913573836477130e-02,-2.434145161114668193e-02
3.431073876830673108e-02,1.687547744116554144e-02,8.581539274865927769e-03
1.120215244971348306e-01,8.127019466491941513e-02,1.041514099298840035e-01
-6.974096969499879450e-02,7.398411886378988833e-02,-5.987448646747756814e-02
4.095865181104413333e-02,6.947984331662189483e-02,3.125260713309058191e-02
-2.898304786560914129e-02,2.546686754473658637e-02,8.227029520662212936e-02
8.581140652082139275e-02,4.179706179906090419e-02,-1.557650158430320259e-02
2.621394998710423543e-02,-2.072699191696231874e-02,5.033524446623873459e-03
1.836836026199109920e-02,6.425494451248144230e-03,-1.326215087267891730e-02
-8.354074400598454977e-03,2.048751275512361580e-02,1.816882927618602983e-02
-4.092318053219050344e-02,5.653879258754766074e-02,5.738944195094661076e-03
-2.836117431398115993e-03,-7.512458269290121782e-02,-1.339590273299967257e-02
1.211186229011626363e-02,-4.146573755100032427e-02,1.889455294552496237e-02
-4.696506788982248576e-02,4.528403039098365113e-02,1.024054298201875629e-02
4.352717931438747356e-02,8.550571361378142554e-02,-1.937462252621704323e-02
-1.083739958509368356e-01,1.744617247272447352e-02,5.901089758673584013e-02
-6.250726632614148071e-02,-4.240892373857981651e-02,6.554332111294129681e-02
7.999947706198776154e-02,-2.513909742048809487e-02,1.037506941230435277e-02
2.190399013302711875e-02,3.826975815020368377e-02,6.266538070929388547e-03
2.275277355325280783e-04,2.763967298770798886e-03,3.153430342872858699e-02
-7.698495149183869068e-02,3.859612355283783408e-02,-1.584467743972606387e-03
4.499265423410835768e-02,-2.636349514601561955e-03,4.124903272783379121e-02
-3.540392225761719060e-03,5.244338572640599300e-02,2.998561090883675867e-02
-5.153507498946707094e-02,-1.329265815820167805e-02,5.626602269904860260e-02
-1.157589788918624241e-04,-3.631148921394097145e-02,-2.628704095470810534e-02
-6.187719834691070113e-03,4.071729240409256018e-02,-1.958805758532805585e-02
2.498280538322980929e-02,-6.779787868157860498e-02,-7.806780208067537474e-02
-5.521565429662828733e-02,-4.691022830627953472e-02,-4.244014010307554235e-02
8.905411323838620385e-02,-6.665731313788258658e-03,-3.053224043298964283e-02
-7.017583244899285727e-03,-7.311721917808315652e-02,-5.949220164496277219e-02
1.098165110447925363e-02,-8.600403310252401415e-03,2.383930878722888107e-03
4.352232084195310075e-02,-2.363747663720850573e-02,2.593336587548969452e-02
1.594112430990846097e-02,6.048412606575675338e-02,-6.111571748187543708e-03
8.677846011591114697e-03,6.085249656302867821e-02,-2.473993078191324621e-02
-3.304516329671717406e-02,-5.974351583703933766e-02,3.893397103016532634e-02
-1.812732059274494920e-02,5.424674220178270223e-02,2.683919886811365202e-02
-2.065124115177658509e-02,4.212222493103352783e-02,-4.929721685085219213e-02
1.822629682806463716e-02,-2.776264430609865982e-02,-5.261217019740537654e-02
-2.949006157164555525e-02,-2.394765029580044058e-02,-9.818698887720660184e-02
7.860098983622208768e-02,-6.308487958296078724e-02,9.086213617216265829e-04
-5.024978563593195807e-02,2.216338556318784084e-02,-4.693917861906370809e-02
-1.342893758158574154e-02,-2.436479683500961460e-02,7.424827884356554296e-03
-1.564907564371795234e-02,1.213587656841082218e-02,-1.702099146468469618e-02
-1.420168953034867468e-02,4.126170472890718088e-02,6.997912736603494055e-02
2.055240738882824561e-02,2.204026770110213695e-02,1.049392349382427189e-02
-3.174214499887301200e-02,1.799236137212635242e-02,-5.761021411370666895e-02
-1.025587986618309022e-01,6.891663834513363229e-02,1.224757387013340401e-02
-7.795367476257722590e-03,-4.369916389414921221e-02,7.598267734118524519e-02
2.792547790337476452e-02,7.564024812766711710e-04,-2.688561565515354412e-02
-2.868445879100228052e-02,-2.298649473127179280e-02,5.942944027923206113e-02
1.917202391365415565e-02,6.087615327559668665e-02,3.078946035688892233e-02
-2.139358023128652350e-02,-3.152959034886123474e-02,1.307966369302513733e-02
-6.192162778425783914e-02,1.299349757007681530e-02,9.654195631181866286e-03
6.982945613190538747e-02,2.319873280530639070e-02,5.956915152549572406e-02
-4.586769826167323011e-02,-2.293384089683492624e-02,8.394519750486401782e-03
-8.729220110567599555e-03,-6.237548047183025940e-02,1.260012402615937922e-02
-4.010965679642441301e-02,2.625537190356962494e-02,4.348467062647979470e-02
1.640897247168118800e-02,-1.340426903657581520e-02,-2.578699146790687166e-02
-6.981249711568426886e-02,-1.245911077470705786e-02,1.868507908605153423e-02
1.646487900062694812e-02,-6.331140996010201256e-03,2.862861488357623663e-02
-3.566554424417128603e-03,-1.854310298247040245e-02,5.386056182426537942e-02
5.531838158018852203e-02,6.581711322381110507e-02,-9.440497836193180621e-05
-3.733103925620778751e-02,-2.586635601570430945e-02,-7.429865016244865950e-02
2.190512219498955485e-02,-2.123704391702081751e-02,-4.316360777725594677e-02
2.170405560339404641e-02,5.053706177691066892e-02,-1.553697345522888837e-02
2.088809730963885405e-02,-1.033442185135655111e-02,-3.742012700943555398e-02
-2.183337167917214286e-02,1.848739838002807709e-02,-2.433828343029286259e-02
3.203429631399618699e-02,-3.457279732551053059e-02,2.468311928029710139e-02
4.239065721036308111e-03,-1.347120564881860083e-03,7.595702484923780133e-03
1.025880080722910495e-02,-1.756557005857237522e-02,-3.307409453513314446e-02
1.829616007344023881e-02,-2.231937015575996205e-02,1.953032540976881075e-03
-1.542363061922392801e-02,6.003123061451141190e-02,-9.124642691520357118e-03
-2.370423854099993830e-02,4.495555490435010348e-02,1.122232494221649980e-02
-8.496477437701615079e-03,9.744763221662519626e-02,1.266794120987057085e-02
-8.636708475116748607e-02,1.373292574544529403e-02,6.773552369838549067e-03
9.097480861475796751e-03,-3.849128157919502833e-03,-7.013443268579884309e-03
3.378535443902567267e-03,9.715887825573563813e-03,2.653303624431581006e-02
-9.713792007963382297e-03,7.748055281721589853e-03,-2.705078629685451867e-03
5.850860228733665083e-03,-1.391360671834915019e-01,3.665174587949521223e-02
8.675848371080224601e-05,1.757471676867937600e-03,-3.628340317341990917e-02
1.515825008934879904e-02,4.390441966469009472e-02,1.417446183761871537e-01
1.098992908989018108e-02,-2.243764698880586564e-02,-3.622432305099022865e-02
-9.116546448363413435e-02,-4.579602230735668050e-02,-2.665187126046932725e-02
-1.079949479202366690e-02,4.062405493315340843e-02,7.907661113909271455e-02
9.348987278546739069e-03,1.187370393560102308e-02,8.123513184640430290e-03
5.594368895984867113e-02,-2.729631644670863638e-02,6.441328333073953472e-02
-5.032183757751415576e-02,-2.336579508252691485e-04,1.983032774538754164e-02
-3.441961664350011441e-02,-2.193274745922198579e-02,-2.439409180951581171e-02
-2.829595302584915310e-03,1.279026435522696327e-02,-1.398742716441662808e-02
-1.540527141236725482e-02,-1.782732148810206238e-02,3.845123415478488189e-03
4.733301509144499652e-02,-4.067121764033795883e-02,3.666364011152512675e-02
-2.719567333435716095e-03,-4.054247498342689743e-02,3.994311432465228601e-02
1.179210388634753352e-02,5.166698639129063686e-02,5.121806559363226846e-02
-4.699068844560569391e-02,3.641466319442226290e-02,8.646561508280048783e-03
8.638237099212563511e-03,5.793864304485811523e-02,3.294803601567781320e-02
1.080241158386395159e-03,2.693637242356556813e-02,-1.529727845449803392e-02
5.876907289757594272e-02,1.768005866620929803e-02,8.537387014393320317e-03
3.402352506588968845e-02,-4.298716514542049762e-03,1.266728014525560220e-02
4.260272246952195863e-02,-4.719747515538113766e-03,2.088667754995744003e-02
4.813031033144374998e-02,-7.810016866539153113e-02,1.147881815728565499e-02
8.598099151998217504e-02,6.127530239447273597e-03,2.034224938242747485e-02
-2.855183332761362935e-02,1.702931870949502002e-04,2.089393050553914680e-02
2.249129951419628209e-02,-3.869225174068897238e-02,5.175796956981549429e-03
1.667245990560223962e-02,-7.394567319269715333e-02,-2.550475216023614326e-03
3.794333339911160757e-02,-6.974733244873603487e-03,2.407072070112068612e-02
-5.097025708540323108e-02,-7.552127321669986626e-02,3.129897146256684082e-02
5.932731587771433723e-02,-1.994195818762461644e-02,2.370114044002645179e-02
1.403053888248507672e-02,-6.035567461306332732e-02,3.311387924967905405e-02
2.549232648760862280e-02,4.938343441188196986e-02,6.000348277735139541e-02
-3.875831882464716993e-02,-3.666939961110655261e-02,3.552583842646948875e-02
-9.372798237267893073e-02,1.013865392031464141e-01,4.168591380435122257e-02
-7.085419267094004991e-02,1.314871621607985840e-02,-7.125430705753202365e-02
1.258978491122719930e-02,2.071126092115065445e-02,3.504519924674722592e-02
-3.958722287057892669e-02,-2.110722338814271723e-02,8.430452979561618709e-02
-6.665391113702390236e-02,-2.005070590968534988e-02,-1.884344522700122371e-02
2.943141283017148072e-02,2.496721564854560357e-02,7.726086330186381079e-02
2.230747116587872628e-02,-2.095777933188489733e-02,3.070654415404129936e-02
2.474114593350179928e-02,-1.201817459267086677e-02,-1.134927867966153796e-02
-2.362973273984543543e-02,2.105470494411598031e-02,1.108865158308491687e-02
-2.238418758688406549e-02,-5.105897242248669948e-02,5.576271042751280993e-02
3.593252023613782709e-02,5.211598604025752951e-02,-1.404574354322625854e-02
-9.794796596146142578e-03,4.782033073308337295e-02,-2.589183709049034873e-02
-1.597912834143670399e-02,3.001853590526754392e-02,-3.076950786703097629e-02
-2.153584271348532933e-02,4.442093432323877583e-04,1.507193063910434137e-02
-3.619779416657631626e-03,2.889142288402287914e-02,9.135269546229869697e-02
-5.548300642501584855e-03,-2.927393863096392629e-02,7.365575683849498803e-03
-7.204365960412138607e-03,7.885132376896424045e-02,-5.567606215863628999e-02
-1.614137082573425044e-02,9.898919270390665534e-03,-9.825020788923756465e-02
3.000640634420904951e-02,2.565616614611245308e-02,-2.064203130719743581e-02
-3.614946808334314199e-02,4.785050931944276331e-02,5.004796846359745900e-03
-2.513437217342285104e-02,-2.645659331568411821e-02,3.543958993501520466e-02
-6.895141991394623804e-02,3.943244214706332490e-02,3.451916657629134494e-02
-9.194326696982651342e-03,-3.319419219702007817e-02,-3.370790728561535998e-02
-7.272421108292562685e-03,-1.158039239105544509e-02,2.776157444187660542e-02
7.939190727884565604e-03,4.375748890266096397e-02,3.159333124198208248e-02
-4.358896478447006617e-02,-2.221281643768714328e-02,3.050853300613268204e-02
3.142464672789321411e-03,-3.699163482378353685e-02,-2.260180202831211030e-02
6.616567925084233803e-02,-1.883631701020871754e-02,-2.844154997085652364e-02
-8.284422931948157154e-02,-2.265013260413931487e-02,2.738500886456040131e-02
1.408379980134672263e-02,1.334234804659697494e-02,2.695541329121260016e-02
-7.483254592037082500e-03,-3.868240906584195088e-02,9.910909298869291159e-03
3.229763713924097002e-02,-6.891524675965666688e-03,-1.542807778303238384e-02
-4.120926776572653855e-02,1.077175276542592089e-03,-4.216705690698406561e-02
-4.879924245237200753e-02,-8.513453552530218793e-02,7.097918736396154060e-02
-4.136462570888181645e-02,1.532065642697182789e-02,5.013440898987595387e-03
-2.677856500336153051e-02,1.349426912065837710e-02,4.889602348694699688e-03
-1.151255616636237544e-02,4.326305567540139618e-02,-2.264868940476475259e-02
-9.383534030010949600e-02,3.354067716846038938e-02,-2.020558199473676889e-02
5.775245069869056752e-02,-1.587864826336713581e-02,-5.236120841874477606e-03
1.016414056096267421e-02,4.701498611677430717e-02,-4.256914713044870902e-02
-1.781158774106451556e-02,-3.313079832401374849e-03,-3.737565649858540229e-02
-4.601724364147377622e-02,-1.290292579565862664e-02,6.033061246307837300e-02
2.560798759898380225e-02,-5.622437121853549741e-02,-5.566571546553489291e-03
3.141015829826635658e-02,-5.323579593487777310e-03,5.915867042774347433e-03
-4.830361519038293278e-02,3.818836321528038674e-02,2.402030842437925806e-02
-2.650453939709617943e-02,-3.749920677077649839e-02,7.071769346059442185e-02
6.171728522875934847e-02,2.056177698098447717e-03,-1.068920951633056844e-02
1.495563025152009569e-02,-9.399012064168918434e-02,-1.024351436347728794e-01
1.901343637636901829e-03,-6.772827798888364503e-02,-1.983408947276227990e-02
-2.648760478559318565e-02,-8.189133971187878558e-02,6.852834937921566116e-02
-6.900040342817477523e-02,2.470230947061432744e-02,-5.489644170748061297e-02
-3.409615526397271473e-02,5.744187857318915069e-03,-7.158705271298151929e-02
-2.586484757640676591e-02,4.318947586043522108e-02,1.377403317883835882e-02
6.125642776336402001e-02,4.925537270791668226e-02,-1.584250449173543393e-02
-6.395697563757174464e-02,-5.997446549971071489e-02,-3.266979659921009221e-02
-3.095691732482386271e-02,6.333890650741648420e-02,-2.848566590022591147e-02
7.509882868441158932e-02,3.980675431336853920e-02,3.650458634764569554e-02
1.345438126985327720e-01,-9.131735908426343029e-03,1.286031193481072116e-02
-4.581336778383363756e-02,-5.323266204098301563e-02,1.281636037960946425e-02
3.930450462206734608e-02,7.356759150798998503e-02,-2.202494787866768333e-02
3.158397768028942815e-02,5.166282247904910307e-02,1.354790834786856468e-01
1.895765811428459444e-02,-1.046500508601107410e-01,-1.736416949651884908e-02
-1.049402218594470138e-01,5.288830506611591660e-03,-2.979912339062686707e-03
3.898853116168420237e-03,-9.742753170512473762e-03,4.682666417503757194e-04
-3.012689636950619324e-02,5.890711194773427806e-02,-3.909601700911013306e-02
3.770814629881123065e-02,-5.936530787382971602e-02,3.771350342114346971e-02
-4.172598184307289848e-02,2.627962266945068140e-02,1.183737523572059476e-02
-4.409354768430685106e-02,7.687450320348923789e-03,6.972871178880055143e-03
-1.271822659714223237e-02,2.328550538098017944e-02,-6.696631384130051490e-02
1.321394823799687708e-02,2.476206286982692364e-02,7.891675197374457829e-02
-3.812063850726676861e-02,-5.072353551296476110e-02,1.707576717289117571e-02
-4.245286513371707149e-02,2.348600182261876418e-02,-3.859174618202400320e-02
2.974352637314348069e-02,-4.551994286103271115e-02,-3.304118538774928476e-02
-1.291071117148666608e-03,9.460252797534629207e-03,-4.815014756789778860e-02
3.032326438907596497e-02,-6.324912249919284468e-02,4.499509067031720599e-02
-3.699731349580237527e-02,-2.374386176956225919e-02,-2.094002824531169399e-02
-1.657270877186017496e-02,3.689032633479125828e-02,6.294776788496007913e-02
5.522586757068236041e-02,-6.081260864012746556e-03,1.409362623095755706e-04
6.987890705279904691e-02,4.798155024111944167e-02,-2.878768206561310716e-02
6.302888781379059092e-03,-5.322996253288028549e-03,-7.274799088974413103e-03
-6.161661696384581471e-02,8.239920288663165823e-03,1.373221798578245362e-02
1.563434108914561749e-02,-3.110527155740796731e-02,-5.354115680840481652e-03
-5.232384376809563059e-02,4.773672219862178795e-02,1.843135958003528155e-02
-6.514098573767745405e-03,2.066512867440861712e-02,-2.517266101265534795e-02
2.875932773162644118e-02,-6.473649475430208466e-02,-4.921984295166172141e-02
5.357662488037886334e-02,-2.182894935761640204e-02,4.024831049371335040e-02
-1.621802799446039195e-02,-5.584490083834123958e-02,4.684280641107906040e-02
-2.860948731776160117e-02,-1.113664063063823928e-02,3.262201857626699508e-02
7.447226064599259121e-02,-4.544568584839105835e-02,6.778283793611372676e-02
3.832401130855120353e-02,6.869529444122471351e-02,6.396709025685370920e-02
-4.611474462664340301e-02,3.008998846886399431e-02,-2.943989546320814263e-02
5.110465166845824803e-02,4.422263728055740584e-02,-1.491361087214200173e-02
-3.314385625008122588e-02,1.016483085083802820e-02,1.321853873329939255e-01
5.066736946497230054e-02,6.309593421950711626e-04,-3.797044125117018942e-02
2.444206191412309076e-02,-1.148645763818676030e-01,-7.502177548808141791e-03
-5.357849515737380525e-02,-2.750182796870647046e-03,5.275249087081391314e-02
-2.220823186527401405e-02,-4.934497427915904982e-02,1.523203957355839452e-02
1.556723505935827742e-02,3.321694039303517421e-02,7.782877996669477529e-03
4.391967394832788779e-02,-5.096891382032444837e-03,5.923440681273257208e-02
1.074462072403056800e-02,-4.086677969862727994e-02,1.426519029850452369e-01
-1.156878018940121419e-02,2.509089557797259881e-02,-5.390298571007092615e-02
3.723958418342750154e-02,3.736699872935930061e-02,-9.976804891895212773e-04
4.092661168137224671e-03,3.092604986020393298e-02,8.186575673723195390e-02
-2.680888695099257688e-02,-1.157059648991003512e-02,6.524393412177972168e-03
-4.101171873322915357e-02,7.330508426793240495e-02,-6.417540240256985537e-03
2.428648316198010401e-02,2.818592006226799604e-02,-4.765923937918016551e-02
4.351961077776488745e-02,-1.549279364318376876e-04,-7.168401429364883301e-04
-4.050721671077057821e-03,5.923115663970403288e-02,-6.914612244133834518e-02
-1.856926664842753396e-03,5.091725370547324492e-02,-1.095171244721980693e-02
-8.679811340775302198e-02,-7.024989421719357585e-02,2.364459151276379623e-02
6.878289015137656337e-02,2.974538544553080588e-02,2.412228113224298975e-02
7.983096374097130299e-03,-1.913559844349930475e-03,7.914575263474551287e-03
-3.066336367500832258e-02,-9.766787470922332071e-02,-6.377561663964605165e-02
2.872119800379926199e-03,4.454796303340782110e-02,-2.242605780199498702e-02
-3.263119287840985511e-02,-4.470884789151841066e-02,6.472715500324658852e-03
-4.298430127806129181e-03,2.175111818653560278e-02,-2.138517556972039171e-03
-3.647831091721978353e-03,-5.404777669976340397e-03,1.137148424224039729e-02
9.234088121555114603e-02,7.501278799049043190e-04,-2.738705231857516131e-02
-4.538123950059836514e-02,-3.576981196661158102e-02,-3.194612023027929015e-02
-9.765033423873347232e-03,2.765772675813861145e-02,3.288296710854728133e-02
3.852392846104610302e-02,3.542935392315782472e-02,2.716904471724920778e-02
-1.807911951983772608e-02,-2.740532400740728486e-02,-2.065769054077461198e-02
-2.315231472351117915e-03,-1.338048562789208307e-02,1.981737640248416865e-02
4.759002876839279333e-02,-2.318274735490514701e-02,-3.838923957432958251e-02
-2.702884518696231295e-02,2.044350348233723788e-02,-2.503107887094955034e-02
6.607710398117877526e-02,-1.592536166887676069e-03,-7.124909466931067525e-02
-2.396000806780160600e-02,-3.503757728515711350e-02,2.926602183010835675e-02
-4.821384109192630718e-02,-6.156612828725275578e-03,6.645998120270423144e-03
-4.455187955223322525e-03,-5.092720818619794060e-02,-5.245426832981728814e-03
1.983226021663741026e-02,-3.999822901939373981e-02,1.362169828147415281e-02
7.963608711790902406e-02,7.095233326771043653e-03,1.381511858418288559e-02
1.715739156133190557e-02,-6.437336833241456835e-02,1.066339642396703508e-01
3.161429036221058420e-02,-2.447784426672240318e-02,-1.960816120068576557e-02
8.044084457886134347e-04,6.699295911086387834e-02,-1.031862272727957809e-02
-6.560624323819112813e-02,2.575116462541631596e-02,-5.062262844552469637e-02
-1.113727969304538316e-02,-4.759901603495916150e-02,-4.678038622768053434e-02
2.491030644854174900e-02,5.547587980094048632e-02,-1.376012561728453751e-02
8.430567466733767876e-03,1.177440244313484631e-02,4.519490053706572315e-03
1.879456425678789275e-02,-5.132817432286325421e-02,3.651806729857576955e-02
5.271902173837905714e-02,4.641017253589894281e-02,-4.282417321296660973e-02
-2.265593949749215158e-02,-1.284307130005997791e-02,2.200310044778752000e-02
4.422521287787884586e-02,2.900144209920556618e-02,9.694681342603794424e-03
2.888923771784558323e-02,-7.983709044312592082e-03,7.030504743448957872e-02
-6.071752913316023903e-02,-8.382356758889074333e-02,8.029145516697889021e-03
4.283145473964281719e-02,4.289424931618066733e-02,-4.960779695648403348e-02
8.341625875950750557e-02,-2.369991646334681634e-03,1.648242316238753002e-02
3.879315597620200395e-02,3.769166233598505306e-02,6.770809785045368845e-02
5.035118922113930584e-02,3.022194877968382640e-03,-8.925669684293982553e-02
1.735643937217808824e-02,2.186503187580842583e-02,4.634560847672069411e-02
-9.720318481215006745e-02,3.013707269441798751e-03,-2.098310423155733476e-02
9.530928050226412929e-02,2.833747295600920479e-02,2.524509218785947126e-02
-6.255591561328797956e-02,1.280209527276902209e-02,1.789125862820950888e-02
5.337982510325746388e-02,3.438049970953781925e-02,-5.625710719569398249e-02
-3.156538313995808920e-02,1.437764343781249357e-02,2.663322205650445543e-02
-4.359250517351942467e-02,2.514986941021175870e-02,4.954642564047203462e-02
-3.799502548122458273e-02,6.974552376964628098e-02,4.027535620697157009e-02
6.471212050714818254e-02,1.651349723728597757e-02,5.425647579714921315e-02
7.180315159649135193e-02,-3.791901467084982211e-04,1.741176389504758490e-02
5.940530544417267633e-02,3.361022873387858184e-02,9.884296077958276434e-04
1.253551718415435445e-02,7.440385211048542238e-03,1.516869977675570913e-02
-1.423572848692089901e-02,-1.380098227470801311e-02,2.716777975759046213e-02
7.049387499219986371e-03,-3.158202618639156974e-03,-4.226745558768744970e-02
2.672942375177364202e-03,9.102911219975243218e-02,-4.127876311475354304e-02
-4.729015778591067615e-02,-5.299855902425760351e-02,-4.861005642696043794e-02
6.227434437510172976e-02,9.094786307280491519e-03,2.833988368230340796e-02
-5.065609259655873969e-02,-1.391770648402441794e-02,1.039592964710620293e-01
-3.763954638652377421e-02,3.738402221257005470e-02,4.589978900212834251e-02
3.184661875881904247e-02,2.923060277979736346e-02,-1.545582413556689574e-05
6.434432360185773046e-03,-1.551944968522967795e-02,-4.313878504353359580e-03
-2.379212243562684598e-02,-2.532059615343516812e-02,-1.889684429766167514e-03
-4.244895483461162689e-02,-1.700305137413474568e-02,-9.158114593991791702e-03
1.106875199543434947e-02,7.566685967164347992e-02,-1.028265231071913699e-01
-5.657960076966686569e-02,-4.222681651538229969e-02,-2.246814757730654019e-02
1.728617929854551691e-02,5.453128731569266982e-04,-6.762139174646834838e-02
2.000078190768259014e-03,-3.440937292386328505e-02,5.740157477828787547e-02
5.714795721575238741e-02,-9.845230737791199182e-04,2.839006930137271886e-02
7.261866979512955622e-02,-3.087877627119882049e-02,3.928310447160326263e-02
2.129794213998025681e-02,1.262226191465443646e-02,-2.220604324559205187e-02
3.686335370887395407e-02,2.777666365556189995e-02,3.429083713875366243e-03
-6.962270319028633636e-02,-8.518556416635723882e-02,-6.455345560396932858e-02
-4.849625639155705562e-03,-7.696728016856953236e-03,-4.251207959769900957e-02
1.270654600949029482e-02,9.053340158608707763e-03,-2.839651554191512887e-03
-3.610771609685171218e-02,-5.024385410929755637e-03,-5.906588533681960546e-02
4.636998638118758342e-02,-2.427915494181902972e-02,-3.115422955800542515e-03
-1.049805391265313154e-04,-2.833518790598808790e-02,-3.822903413072160222e-02
-9.781721229670423904e-04,6.762151757520488971e-02,2.219184393956100121e-02
4.722755821255099871e-03,-4.331408308420181888e-03,-7.108414994531563058e-02
-3.070434616946965400e-02,5.620611890662682159e-02,-4.000666746238478594e-02
-5.178936016202234649e-02,9.643237653481287475e-02,-6.858455054494407011e-02
3.429162844269990212e-02,-5.595108082294426161e-02,3.244522825196113208e-02
-1.080801904403660627e-02,-4.992687195351260682e-02,1.245273762683189907e-02
-3.012582963189934515e-02,1.224473828075070721e-02,1.502644032345983906e-02
1.865050257122310984e-02,-6.426860506007075168e-03,6.180303655088208994e-04
4.982782780466680356e-02,-5.722737721873383428e-03,-3.811683370148799543e-02
1.397301584842618443e-03,-7.534465786308133795e-02,7.417740288614942112e-02
7.905996226044707462e-03,1.418505052059324326e-02,-3.401331872420566838e-02
-2.770421578447903460e-02,-9.489666088197803995e-02,-3.962049028961796976e-03
3.156666970754700569e-02,-1.460416822393089016e-02,2.985402080496468713e-02
-5.346840124880560680e-02,3.643541633496781562e-02,-7.335904880225775811e-03
1.766489418015919702e-02,-7.583969503715175774e-03,5.512019317020020598e-02
4.755473394515700135e-03,3.416509439194674591e-02,7.619483064573499831e-02
-7.037734600608815116e-02,-1.714681595689589860e-02,-5.190867489401418400e-02
-4.378046362223175954e-03,-1.450642508127488080e-02,-4.321953262075568097e-02
-3.781852895637394935e-02,-7.302392545197640937e-03,2.245302640992562215e-02
-3.643785055845511628e-02,-2.524294509428726477e-03,-2.716682530553590422e-02
4.317093593663657441e-02,-4.141138857866701745e-02,5.685966180930056985e-02
-2.598352602240759646e-02,-3.987418548151347832e-04,-9.327754536614747682e-02
1.222081970760997144e-01,-5.340463695582828296e-02,-5.351947240885350510e-02
5.297413531282975027e-03,9.872407532811058872e-03,-5.176895275099493467e-03
-4.000883337074830071e-02,2.037220876008239215e-02,-6.584697795801093025e-03
1.635901928435373742e-02,1.493467075389384897e-03,1.242372598206433094e-02
1.867771190460204957e-03,-9.283320391291935121e-04,-4.784788731955252200e-02
-1.389270422494941659e-04,5.608804913815396143e-02,9.892375357831841107e-04
-2.788488640288382808e-02,-5.189612544457793131e-02,-2.661862643115209259e-02
2.189339656020566557e-02,2.775173476021031843e-02,-2.931346549034967441e-02
-1.438082323849472488e-02,-1.472905165005158022e-02,-2.769834266972381540e-02
1.400273547885667047e-01,2.353849494074073539e-02,5.674662705500553572e-02
-6.427929220674176436e-02,3.698543521301927983e-02,2.789821632552809405e-02
-4.084797899893388706e-02,-1.346231513940501778e-02,4.685313833739996464e-02
8.458544976427093826e-03,-7.913637022797305465e-02,5.009970322448097091e-02
2.180143000178386831e-02,1.161427940525253631e-02,1.204892561675665339e-03
2.015484304237356167e-02,-2.448530430233027827e-02,4.968574720564926384e-02
9.932392004013220269e-03,1.532128675898025531e-02,5.694743322217635240e-02
-5.155711569625422153e-02,-1.304813933741619941e-02,-4.037023018443010314e-02
-3.581591109121898958e-02,3.568090628114328755e-02,-6.209871937661230745e-02
-2.597097229203987681e-02,4.035249753839832004e-02,-5.220124323244331593e-02
3.764469191963331404e-03,-3.493261036331531816e-02,9.706386208154754724e-03
-2.714393744365367796e-03,2.451879162596279360e-02,3.622934892934427664e-02
-1.217297515941416323e-02,-2.093810038806661125e-02,-6.057040417933386156e-02
-5.906357706670322533e-02,1.259294701682918925e-02,-2.046217413717227318e-02
1.465901147793060861e-04,4.487141765265512811e-02,-1.708761766780223651e-02
4.562238925916309307e-02,-9.109133933141379258e-02,-4.295006005331374749e-02
-1.044339323183843607e-02,4.399628347710339560e-02,-4.613049611476874312e-02
5.896497010479710699e-02,-1.284415520025613752e-02,5.483773295354346655e-02
2.729262470883786918e-03,-1.201857790221754450e-02,1.074178421643798287e-01
3.283198765069519215e-02,-7.133943003134221583e-02,-1.514685650916825811e-02
3.824336527610554259e-02,-3.767360018357839707e-02,-2.446370994644566851e-02
-1.734009059064663127e-02,5.585992327253850448e-02,4.639613976004859641e-02
-1.746578040620569558e-03,-6.048290663050855803e-02,-2.182051301274148120e-02
1.283161432231587221e-03,8.105057126220244906e-03,-2.216742239362078787e-02
-1.867246840581249581e-02,-2.174548238666593886e-02,-2.578253887319035750e-02
9.031817343666036224e-02,3.089970870491662303e-02,1.001746387363370780e-02
1.748748422046065426e-02,1.483041886725467579e-02,-4.037534708734420719e-02
2.998834757603873000e-03,-4.052489097150797220e-02,1.438356177825079671e-02
-8.334556243609086978e-02,-3.341233330899337495e-02,-9.733783203274183268e-03
-3.542045194305067785e-02,-5.020227343668444420e-02,-1.969554359564419568e-03
-2.601836986503481761e-02,2.223727859465815179e-02,2.511032547219854780e-03
1.928392532123305789e-02,-2.726516613918101781e-02,3.849269319609726486e-02
2.741203771386862414e-02,-5.602185732067955365e-02,-1.687998843628175233e-02
-2.226298782714528079e-02,-8.499131673806940845e-03,-1.328582450949765230e-02
1.101483927399291018e-02,4.699677731994247182e-02,-3.602461044254386818e-02
-7.188674469726359650e-02,-2.319177331013076715e-02,5.263435383351451613e-02
-2.409333617837795122e-02,-4.352271440148255087e-03,6.323799605766036031e-03
-2.666893862044040359e-02,-4.027905515858093421e-02,-2.246807214932277502e-02
-3.999510937327712540e-02,-8.940738917974994093e-02,7.125100733453010315e-02
4.316284633340121413e-02,8.740211259741349423e-03,-2.557828085470514531e-02
1.989396395792341135e-02,-8.170967159081228559e-02,7.385369954769906934e-04
-2.610873596518132125e-02,-6.900079428796901393e-02,4.926453658970786700e-03
-6.224260923976591107e-04,1.441829613930213465e-02,7.027092591632122173e-03
-9.000608554676471640e-03,7.015245427084715324e-02,-2.433256898916272976e-02
1.404011821025549084e-02,-2.566748178001912462e-02,1.045960888569778986e-02
3.622040381451960972e-02,5.516041847720676988e-02,2.064491194133484878e-02
-6.093376510501225668e-03,5.124608722430144120e-02,-1.181031296875982269e-03
-6.677354915232315558e-02,-1.652679144873077724e-02,-1.222952824551879272e-02
4.026496967928423071e-02,-7.925276450382941207e-03,2.628154680028375878e-02
-1.465056815131170545e-02,1.507267371705024554e-02,4.341255743149597334e-04
-3.165739092698144179e-03,1.350430109745526241e-02,-1.922933992233111233e-02
7.178317623906403655e-02,3.613611210575179422e-02,-1.584824434894393022e-02
-5.150520329621462862e-02,1.998282998911254937e-02,2.678340725290097313e-02
8.290015793063137961e-02,-3.038507049202042801e-02,8.754755616345954658e-03
-4.374601980529110694e-03,-3.067038311074161278e-02,-4.079970278793616269e-03
1.842487647380511642e-02,5.203744620610485649e-02,-8.868514816414158064e-02
-8.870477495107977062e-03,-5.908750215456217564e-02,-1.372412296497773493e-02
3.459278959971347212e-02,6.022985188106509680e-02,-5.141649470435215828e-03
-3.245882886040246662e-02,-5.995204060978574258e-03,1.741686819907118863e-02
4.736769375003562627e-02,3.195167683883198134e-02,-1.908973415025323056e-02
5.199386519701556381e-02,1.184791336026538508e-02,3.892952791133025281e-02
2.215833681409992706e-02,9.937876780718779557e-03,2.728156351758606601e-02
-8.521707803185797625e-02,-2.820924991426941239e-02,1.783531002388386022e-02
-1.124696844530302317e-02,3.369613109736156742e-02,-2.356154868823609819e-02
-1.854418897243835171e-02,7.333418027837533028e-03,5.383878129593506340e-02
-3.424123216171275075e-02,-4.379806865036753359e-04,8.414897636703581874e-02
-1.330257972597258861e-03,4.401868158184987778e-02,8.738574225960651920e-03
5.322372267307073218e-02,-2.157078612329268313e-02,-5.336829567500783744e-03
1.352918290770729025e-02,4.630936522020274310e-02,4.794040338339708440e-02
1.750239591764077285e-02,-2.031673466463758751e-02,-2.476203600125756986e-03
-4.500355648418153526e-02,-4.521413465082451538e-02,1.417543563938284366e-02
-5.419664280111095855e-02,-7.146106556719811209e-02,-2.404827895044312977e-02
-1.616064046596988593e-03,-1.680114262582853638e-02,1.321202017667607587e-01
4.493760963863365626e-02,5.351878409506101442e-02,7.034409646614246669e-02
2.214150456729601854e-02,-5.911665987200543509e-03,2.262176802710135978e-02
7.547043399078573163e-04,1.722220072929202261e-02,-2.750447610905495596e-02
1.551435870850228875e-02,-5.503037939463623074e-02,1.053602253764226483e-02
3.120936107074948410e-02,-6.113710891527177060e-02,1.361563311684876702e-02
1.843311367016199284e-02,-5.675995610261669322e-02,-3.214652417484946401e-02
-6.252582660210288801e-02,-2.506089472834616139e-02,2.675168382695304256e-02
4.894228583814208382e-03,1.113565270464306894e-02,-2.543506117954270201e-02
1.703922710338076976e-02,2.992642415088111671e-02,-4.848363052315807220e-02
-6.556664860103108769e-03,-3.121795726052568540e-02,-1.409744021263662113e-02
1.963015905065630326e-02,2.611698434297204247e-02,-2.230206510018885313e-02
-6.485796866729310120e-04,-3.941941365896970556e-02,3.423842846103381660e-02
2.568773117544797895e-04,2.699201664514247478e-02,1.250777886367615728e-02
-2.920956152582994750e-02,-4.500425324355206147e-02,-1.932324672149559469e-02
3.773590165538691366e-02,-7.028704471555226492e-03,4.070547715183547854e-02
5.632170608760848733e-03,-1.796617521449422883e-02,5.646806181258944707e-02
7.883955267389759769e-02,2.834571687889191755e-02,3.930083933484852105e-02
8.526033281969224581e-03,5.805066832099188383e-03,2.366351436289157104e-02
4.027134986926184795e-02,3.875977262114255889e-02,1.167847308238420187e-02
4.719223186099534562e-02,2.653207935607795193e-02,-1.160336096789947764e-02
-4.357971215551844496e-02,-6.055933663007097983e-02,-1.419440123271456522e-03
-3.987005102898732133e-03,-1.166793060539348531e-02,-1.773636613633412795e-02
3.903947737340676682e-02,-5.841060571961784187e-02,-5.805175120088063717e-02
2.342003920572541947e-02,2.242329745259273935e-02,-8.259007978461990751e-02
-8.767308818606989185e-03,-1.577480309509867590e-02,-2.189770719314369091e-02
3.018177654813701191e-02,2.594059773947787750e-02,-6.767580020395284890e-02
1.022518551417183896e-01,3.788122346934125195e-02,-1.509260907940084689e-02
5.241857450887496550e-02,-5.599172113027742030e-03,1.991151836674778797e-02
1.211698760390787256e-02,6.405481568521328994e-02,1.733488656791312005e-02
-1.167461920865118657e-01,-5.584052384558186449e-02,-3.066370934023527825e-02
1.968073866719925735e-02,-9.877873101822734481e-02,-8.206163546156013122e-02
3.454273559200990440e-02,-4.636484249585375028e-02,-1.027038946812143701e-02
2.526404657272613222e-02,6.300886603271718504e-03,4.776420542925528118e-02
-4.379074241706971266e-02,3.809708427105464035e-02,2.184331651095666391e-02
-3.734122433859352053e-02,-1.352927674343853276e-02,-5.116855478806121155e-02
1.951996801983408789e-02,-4.276762073112104490e-02,-8.916022913761187385e-03
-9.255338857900294314e-02,3.851173683162557176e-02,4.804319528778014251e-05
-7.645889902375146985e-02,2.995701553347957999e-02,4.339664936626250191e-02
-1.271154259736235505e-02,7.408670211448650789e-02,2.589402487295785343e-02
-6.294534922261213472e-02,-7.569222110107630928e-03,1.306114918630183613e-02
-6.807168866688222131e-02,9.295401904555437508e-03,1.057567432886433699e-02
3.293589774670228898e-02,2.949689777999982970e-02,-6.142128742988003237e-02
3.784171351350434920e-02,-2.100814233997647454e-02,-1.887819189443312035e-02
5.675431890943216651e-02,-5.616404896730668034e-02,-1.309520494348454661e-02
6.500981948809203548e-02,2.603505303654294820e-02,-1.792818215829704992e-02
5.009942793327547272e-02,-8.292439138610352770e-03,-3.106546978711952761e-02
5.779808934949092619e-02,-4.727941063925347742e-02,-1.204513435038358574e-02
-5.266004044318557675e-02,4.490142622708821751e-02,-1.092149319514071348e-02
2.500452182071687124e-02,-4.861150440503166884e-04,-4.492084781858319414e-02
7.104972908280815513e-02,1.924962562987540815e-02,7.974413300547238126e-02
-4.249099035255946011e-02,1.472049351127947651e-02,-7.544039044891835688e-02
-3.529656675035987984e-02,-2.235378076069505573e-02,-1.546995329301521088e-02
-9.144814258278250590e-03,-3.825246739721903377e-02,-5.282356509700782653e-03
-1.660354046064712111e-02,-3.608916975976909913e-02,6.377903676545801370e-02
3.729022203539061886e-02,3.694839978145560838e-02,1.658053744346860148e-02
1.259108323636271357e-02,1.966589300273103441e-02,-5.209765556717783214e-02
3.890532650251914831e-02,-6.280419654352631387e-02,-1.978032757104844497e-02
-3.083251840376209640e-02,4.515536554701680971e-02,4.794095018095934774e-02
-3.737977483788924860e-02,9.540421790555386750e-02,-5.339418171547025138e-02
3.049134033928308299e-02,-4.879526733382353459e-02,5.886779960280529717e-02
2.112095944140673226e-02,-4.635462827584133777e-02,2.481278168699438402e-02
2.217355752462646726e-03,6.919241645513517225e-02,5.383420924403438217e-03
-1.001151433631097681e-01,-1.400637513856704992e-02,5.272816957943885635e-02
-8.779957182779353844e-03,-8.151032159974658242e-02,5.725213252883542929e-03
-2.138285785694740357e-02,-3.853904677373690135e-02,-2.295587483111752661e-02
-3.429069189732488615e-02,-1.354050216686485640e-02,9.028174504516541313e-03
5.600935813022026727e-02,3.628014036922215524e-02,-5.497662910509219097e-02
4.180594274139605264e-03,2.434193890407691449e-02,-3.326909050097221626e-02
5.358631497850206010e-02,7.050574732973945158e-02,-8.005756441700295767e-02
2.312245372528744930e-02,7.370355382722068582e-02,-4.302619197678301394e-02
-1.818628628960792734e-02,6.326753500582674161e-02,-5.612963957841079349e-02
3.604507201684111622e-02,-4.132390269790495868e-02,-3.965110284221760872e-02
8.168382697255002767e-02,-5.742108480068086607e-02,1.094808340179928780e-03
1.827807095150916702e-02,-4.540377310042748374e-03,-3.531184107874793532e-02
-3.266132045051540339e-02,-4.823007236333238384e-02,6.324233674424113716e-02
2.553373339144999685e-03,-6.548745040348494251e-02,4.808879182330867003e-02
-5.454740503863915457e-03,-2.214567245776614610e-02,2.979442274575106256e-02
-6.614944460683687584e-03,4.083495253449337392e-02,-1.919055868126402775e-02
2.181173763867394477e-02,-1.298553319656116888e-02,8.539173292259409631e-02
6.657691333229985575e-02,-5.863300762013849698e-02,-4.369949396664898900e-02
1.307689787251830119e-02,5.750734533707456408e-02,7.329473591094851082e-02
-2.458457926398721280e-02,4.493326156365995416e-02,-1.257091686035279390e-02
-6.251541848553124336e-02,1.488361920239075244e-02,1.071409389686588630e-02
-4.472237977592709302e-02,-3.244278650867266772e-02,7.627946723078303515e-02
-1.415117068390127526e-02,3.118015992388340624e-02,2.671614894938670326e-02
-4.840768085004267147e-03,-2.180727511493587081e-02,-1.958554647610910582e-02
-8.870161622010311331e-02,5.095276019863773966e-03,-1.204493405176177562e-02
2.676135929598116858e-02,-2.908024437628294045e-02,2.792867582889739173e-02
8.597132543685609418e-02,-6.598639444261500744e-03,4.914528788275183968e-02
-3.050677846897585296e-02,-4.911717749549856377e-02,-4.461259398752166760e-02
1.573212202714111690e-02,2.095674244539386111e-02,2.221605993616283803e-02
-4.880212807132080881e-03,4.539697507133223786e-02,2.466935622514079829e-02
-6.318041203123923866e-02,1.756489184408109583e-02,6.996229451776495023e-02
-1.450139435733275662e-03,6.742999096767610112e-02,-3.535732627380658993e-02
4.988204587081054332e-03,6.033420196587555712e-02,1.466231245483781524e-02
-5.311469211216372777e-02,6.750077466088709455e-02,-1.742436551644614695e-02
-6.311859532301046516e-02,-1.219865850888717483e-02,-4.869080125459989555e-02
-8.483994273960886873e-03,-3.950270898844234629e-02,-1.217779212739973985e-02
-1.653309880018410732e-03,-7.649798291084065460e-04,-3.486401111442455347e-02
6.406883061008275537e-02,-3.377188774219070516e-02,-3.778410510681450701e-02
7.963246351580523588e-03,-9.948128047381710193e-03,7.855598739033473402e-03
-2.634193011324883257e-03,-6.324624169504552973e-02,5.589198413796224799e-03
2.495785621263178072e-02,4.432206761301610981e-02,-2.785363522311019510e-02
9.082716347011599370e-03,-6.234740542989061773e-02,-1.789924698772817849e-03
-5.185369319396131854e-02,-5.087298099981260591e-02,-5.101753604158208028e-02
1.237514154978016853e-02,-2.015389690786929117e-02,-4.753213717518190579e-02
-5.530842428992495396e-03,1.831773200924221440e-02,-8.934183905784509605e-02
-2.862229672927614835e-02,7.043892806682897079e-02,-1.196274693405363111e-02
3.887070153420826846e-02,-2.674201700613209123e-02,-4.400828286795711863e-02
-1.497161905417049299e-02,-4.685304538795920931e-02,3.861598737483436239e-02
-6.396340479843641569e-02,-1.983390469931967798e-02,3.023157383138113524e-02
1.589682563255652437e-02,-7.935609432164203447e-04,2.048313379128155476e-02
2.685865167335900819e-02,3.341154593991120525e-02,2.746262770174202894e-02
-3.121634908432474945e-02,2.267943636704727872e-02,-3.845119242828529127e-02
2.393100943656930810e-02,9.361811074903812757e-02,-6.436330287221632418e-02
4.153173115215806621e-02,6.247636117536934514e-02,7.414818571581830581e-03
-9.702177017957031024e-03,-2.465542337509272347e-02,-2.191743599214424423e-02
2.433590413325084287e-02,-7.975922908344357937e-03,-1.320667954795661479e-02
3.200103201131026393e-02,-3.252126703482775133e-02,6.757019744119091564e-02
4.138781260261614747e-02,2.911844654981333991e-02,-1.869440369177570796e-02
-7.456650443254785043e-02,1.421054000404010087e-01,7.932122534169402939e-02
-6.184264861685249276e-03,-6.992264736988847325e-03,-3.189273785111176179e-02
4.624899304057047467e-04,3.554534191752255906e-02,-4.561038839139130302e-02
1.865287478577418515e-02,7.306164241469886855e-02,-2.814875183250337490e-02
3.307398437467001795e-02,-2.441900419143348822e-02,-5.851847560035571688e-02
5.112291550154145214e-02,3.106860628965373017e-02,7.946288783702779024e-02
-3.199215053787427682e-02,-5.925404672520979965e-02,2.198977684672469724e-03
-6.833958701059745199e-03,1.146248484078193214e-02,-6.622709924381339763e-02
-2.849183491104798419e-02,7.398675763852899379e-02,-9.037774723256633558e-03
3.779366907520694679e-02,1.396264961451700211e-02,2.144269751943020039e-02
-2.291827080400127281e-03,8.573022406240585896e-03,5.915711993637858337e-03
6.599698339508380807e-02,2.426849552370308367e-03,-9.488134189616474756e-02
5.631917188797054552e-03,-6.138716848171397490e-03,-1.377953917000546424e-01
4.853148838628658368e-02,5.987002733221257617e-02,1.659561282696626200e-02
5.087436081943207816e-02,-1.299213431971349333e-03,1.791095023253472598e-02
1.025642516597927503e-02,4.089297267826376425e-02,-7.447259746837953109e-02
3.830092083510665962e-02,2.965666880127908103e-03,-3.024479539824227042e-02
-1.358817341414207680e-02,-3.156540467920284504e-02,-1.813631227842714411e-02
-2.219357360952120550e-02,-3.644861964657496872e-02,3.051780432087906197e-02
9.885105726004358995e-03,1.725654730555854777e-02,-1.599797409426969436e-02
1.030613961376533744e-01,-2.711275874990703993e-02,-1.863684563633574709e-02
-4.203014520314834329e-02,9.558818101880760254e-02,-6.675098175250269994e-02
-3.720723201949760472e-02,3.498855559202847243e-02,-7.066242110439074908e-03
-3.469793083975109688e-02,7.315478956358592404e-03,-4.073157766270198848e-02
-4.413928058584777776e-03,-1.447302339137417288e-03,-9.143650994352274519e-02
-5.265562073686969741e-02,2.036303467348601903e-02,-1.731881372490547133e-02
-4.722618423466896920e-02,3.528128261227773954e-02,1.634063925503549675e-02
-6.003459193864048304e-02,2.363348765354175360e-02,-5.917278676913875074e-02
7.909580349280122269e-02,3.611586003276436030e-02,6.545952365252909189e-02
1.328407757286156551e-02,-6.955935959858901285e-02,-2.422440177123571028e-02
-1.570388862518276238e-02,-3.726286759363751228e-02,-5.651516119300268974e-03
2.695853091559036185e-02,2.494142542488207021e-02,1.096422338030468308e-03
-5.481467388254521872e-02,-3.942863197502798067e-02,3.515726235656251725e-02
2.044819627888555882e-02,-2.337954345516944990e-02,-6.175977237264477365e-02
-2.026916103910143471e-02,-5.914080727223447638e-03,6.390726531913445974e-02
4.569979003538777312e-02,-2.603580917081364798e-02,-5.079521157816309362e-02
6.267486562128851690e-02,-4.516914851132169256e-02,3.828606198040659936e-02
8.159743143507630636e-02,8.941137352546270345e-02,-5.349708902334444904e-02
-4.059347674199816763e-02,-1.759014775665462479e-02,-3.253505909864850415e-02
3.028087959964721396e-02,2.560303190131939591e-02,1.660977810620204234e-02
2.541516702779900508e-02,5.910902298322680964e-02,2.708897773337129444e-02
2.380551346486157668e-02,-1.556261068253951205e-02,8.780281957601998588e-02
2.711086494826683846e-02,2.321720007471040140e-02,-5.247300724505643554e-02
-4.146527809428689898e-02,6.275835845902913435e-02,-2.035160868046948651e-02
-4.238086477381453054e-02,2.988643751068341056e-02,6.522990217568666593e-02
-1.436467828954006432e-03,7.465728060597141488e-03,3.169953706553474415e-02
-1.141659892995279535e-02,2.926068979198042166e-02,2.304012902164572288e-02
5.174027942269152774e-02,1.947634084666245713e-02,-3.218337485749468013e-02
3.649324816245200220e-02,-1.616497942582482625e-02,5.964372339423258673e-02
-9.689372517871835955e-02,-5.330421875937248199e-02,3.341248203825453178e-02
2.635392884294968791e-02,7.294957989838232737e-02,-3.011671380014302804e-02
-5.054362264433152896e-02,-3.208528877711411958e-02,7.041827826033977833e-02
-1.615911556524449828e-03,7.646211178946081544e-02,4.488669740371672295e-02
2.621276803454112778e-02,5.863176198139430362e-02,-1.430171084546856541e-01
1.872864550078068291e-02,-5.081891069818678802e-02,-2.955401883895576037e-02
-2.837905722675470796e-02,-5.083152426894382847e-02,3.522203777863616714e-02
3.029235964252700170e-02,2.057698572736193707e-02,-3.483130886139139404e-02
-2.545820504735335152e-02,5.290786830685853537e-02,2.041827705384899653e-04
1.032742833549878808e-02,-6.032514901144650499e-02,1.151489436833849980e-02
-4.383199691203730486e-02,6.050424385605088912e-02,-1.595870593212616803e-02
3.632560430095235771e-02,-5.961268307426598190e-02,-1.660376582790395322e-02
4.650804771626739637e-02,7.367143831997196440e-03,-4.232633785175909241e-02
4.660704443225718169e-02,1.914336726247717335e-02,-6.366925411647419118e-03
2.878343233335869597e-02,-7.694300926471231601e-03,1.004674656809173040e-02
-8.543409062984025359e-02,-1.062055970845120732e-02,-6.193839930287442508e-02
3.925785878954332619e-02,-1.576317040038057110e-03,7.929358596434964157e-02
-2.539882832734512673e-03,-2.271009328392233073e-02,-6.566227451925588966e-03
1.729922562361448438e-02,2.928648402787972088e-02,-2.129709348880604383e-02
-8.702173151775206839e-02,2.722112692874555095e-02,3.094811418949958495e-02
2.905509950064525185e-02,5.321012626652413258e-02,2.466007925849697524e-02
5.052613996729263951e-02,3.913093011255934506e-02,5.053203648512441526e-02
-6.683280293691432278e-04,-1.480505788492168795e-02,-5.336808825572633697e-02
-8.338075977982180309e-02,2.551351365251757972e-02,-7.859516507783641942e-03
3.892158423967492786e-02,6.772961997228739428e-02,-2.965092652767432543e-02
1.594571861067608717e-02,1.579367890796794238e-02,-1.111018911139638049e-01
6.216611487637799943e-02,1.264994306710216093e-02,8.500433178721569782e-02
5.074984808516150303e-02,-4.641446847877477716e-02,-5.890027535891539413e-03
-2.430191832387400622e-02,-6.284069917216084100e-02,8.413065232572647725e-03
-1.431561118810479975e-02,-3.384606916905927299e-02,-3.816739409486391565e-02
3.830090675997870758e-02,-1.269484274026492533e-02,1.651052281059821325e-02
-1.853005441144327248e-02,-4.045447308382571494e-02,2.939639899195740924e-02
3.655962586279668664e-02,-3.773058008574843580e-02,-5.349634652107499583e-02
-5.715601411234828844e-02,-2.439866886527424297e-02,-2.508750729606176733e-02
4.596161083706795658e-02,-7.823770144370488511e-03,-5.120975528826496315e-03
3.835629160989057623e-02,-5.824250951654953191e-03,3.423903928047550282e-02
-6.417919848902149671e-02,-5.089162821486195587e-02,-4.702154583070336513e-02
4.451919345310910436e-02,-7.059075420614449245e-03,4.573993882227689323e-02
-2.901339318385558544e-02,6.198984850698888160e-02,3.207191995729394285e-02
2.946994239970357130e-02,-8.624309532886671736e-02,4.183797160186046582e-02
4.166726271180735269e-02,-1.374017918875369403e-03,1.716346261155543909e-02
4.678253791193225791e-02,7.246150511030873681e-03,-5.110125151237707164e-02
-4.193321121603876128e-02,1.601844030959199625e-02,-2.231382865747034983e-02
4.524731862045541786e-02,-9.858891641268886785e-02,-2.992267857558680855e-02
-3.074971402252666547e-02,-3.255785106138889967e-02,2.205937360927396132e-02
6.206342559985097290e-02,1.910314730692061480e-02,-3.029122721402189786e-02
-7.027801784431342118e-03,-4.166196653634719055e-02,-6.141700916035488372e-02
2.872416220870741867e-03,2.795404283613042370e-02,6.755853640549280836e-02
7.970678571615516517e-02,-2.423634419086960479e-02,-5.273508276062445488e-02
-1.720077380699223252e-02,1.478385489459897381e-02,-4.225876038530102657e-02
9.140298277666220050e-02,3.095235914454470827e-02,1.546383459377737718e-02
-1.402580372719543222e-03,2.178952914738613647e-02,5.686587021927029528e-02
9.315871920094259337e-03,1.240154684653924505e-01,3.502002477527839386e-02
6.090638918442693207e-03,1.193565592941876101e-03,-7.664247327904362417e-02
4.147394462954662880e-02,9.785583254845431345e-02,-5.259700375483186002e-02
-3.056055539402053114e-02,2.142827972754067847e-02,1.950038056376957041e-02
-5.547932080856671916e-02,-7.840277935152397890e-03,2.472676289081682244e-02
1.724667465075437403e-02,-3.471265279579288827e-03,-2.357810496017419613e-02
1.941301492535134343e-02,4.299546466894805380e-02,-7.143136637980110337e-02
5.499248762556130203e-03,-6.927710973067438549e-02,-3.553526234384297294e-02
3.944006328771881842e-02,-1.768249247697915513e-02,1.031271308143562500e-02
-1.824681681688019447e-02,-2.564247542641189676e-02,-5.963878511344807704e-02
2.988108614285158067e-03,-3.233612502249919030e-02,1.956804934341113689e-02
-6.256172053947366141e-02,-1.759949948096401623e-02,-4.163230248506313846e-02
-3.504786263843358285e-02,-6.681180140162063701e-04,1.328502441919514505e-02
-4.280364637722657017e-02,-3.253712317366423690e-02,8.381073446404525493e-03
3.540958823479515433e-02,3.542560743781394267e-02,-8.846359334204491331e-02
-1.065826947866767814e-02,-5.253235281452525718e-02,-3.886981793465844881e-02
2.072184493393833954e-02,5.234820069660682876e-03,3.940287386303911038e-02
-5.726432913133948366e-02,3.881434002771770586e-02,1.096556301913656495e-01
-1.756172908661474130e-02,-8.456992984981792638e-02,-5.031610707399538501e-02
1.080564655501665104e-02,1.231803196798701532e-02,6.599913961746189939e-02
4.994596038300210677e-03,-4.499167363166441808e-02,8.042377607652565277e-03
2.677413340143927276e-02,-1.055700717718927734e-02,8.302513703432583964e-03
-7.482624865450952789e-02,4.308780525144031287e-02,-8.606767626725138343e-03
-3.864834479632835856e-02,2.442431872311294494e-02,-7.170605000919688665e-02
1.939063915051366868e-02,-5.424117365782463868e-02,-1.927531851918931789e-03
-1.382240953030605853e-02,-3.093735478836026967e-02,-3.096684215676095975e-02
-2.790565460853123517e-03,1.039175023840631200e-02,7.666165791426174381e-02
-4.023268081564041615e-02,-4.623924029367035282e-02,-2.718679924407852670e-03
3.893363508675982271e-02,2.456683721600704667e-02,-9.066263804312933716e-03
5.145459686185255115e-03,4.583009564773073835e-02,-2.272223898419868660e-02
-1.961564912713998840e-02,-6.738830644256697811e-02,5.584847570627374767e-03
-2.023100826260733776e-03,1.348381317379040295e-02,-2.947422757084948441e-02
-1.465080626616536638e-02,2.877311679641816802e-03,-3.413664847439523697e-02
3.359795353572028742e-02,6.128906557525475723e-02,1.020493989403289080e-02
-4.496614238760133359e-02,-1.780224238904635006e-02,-3.652304793529038279e-02
-2.458614192824576383e-02,-6.008119360423997551e-02,3.961179815820918548e-02
-3.627850574339888320e-03,3.666602848121976177e-02,-4.037869512528716870e-02
-5.771077160410196735e-03,-9.077245779286513203e-03,3.190002440523467039e-03
4.257923603713013178e-02,3.133512973238142957e-02,4.292839802803857102e-02
-1.295281413564363868e-02,-3.768504513363060693e-02,-5.582246389287437438e-02
-1.578108032645080590e-03,7.092443473439800916e-02,3.644129456378345996e-03
-2.746311136633679956e-02,4.966341753822180877e-03,-4.457310798195021628e-02
-2.553476562489037302e-02,8.421128032057922236e-03,-3.059856830564949490e-02
3.044186446970400389e-02,-1.667085343631436248e-02,2.269919961942226325e-02
1.991598569351364992e-02,8.949476958965460471e-02,-8.514623369025255128e-02
-4.646369452277482326e-02,-1.228347979803409706e-01,-6.180320631995821212e-02
6.016626858240047004e-02,-6.141016675194484187e-02,-4.632069398292245482e-02
8.937806074114248989e-02,-1.432054536432321966e-02,4.083465971349098389e-02
1.865506185544163129e-02,2.439457691420121154e-03,1.008950044870542649e-02
-6.828074094904801328e-02,-1.684872748711798221e-02,2.038123136282039144e-02
-2.691118277693226382e-02,-2.899661100785877466e-02,6.075455604146949573e-02
3.742760759644957885e-02,-1.430900530156524637e-02,-4.716852784809721227e-02
-4.999420186137681216e-02,-3.825583579315553623e-02,-2.844076432650672476e-02
1.714442977687763697e-03,5.585521947832541162e-03,-2.439546349552624768e-02
-1.591415199525882118e-02,-3.697804001213047392e-02,-4.213638992567111247e-02
1.835510276526010690e-02,2.387106877970615604e-02,3.527570730027995011e-02
-1.039320613123847744e-03,5.528471269904621649e-02,1.612494026876156242e-02
8.799247690431379054e-02,6.979525072358056491e-03,-3.528695946947953133e-02
8.015463292517581440e-02,-6.398065368046217116e-02,2.510241946674113961e-02
2.556609232018573676e-03,-1.825269354883619563e-02,-2.969334655118182828e-02
1.438956918400342150e-02,-8.277385780463043796e-02,6.718898675807857650e-03
-4.079523715338028572e-02,3.058475172472801401e-02,-4.592422149611520565e-02
8.481661396475262404e-02,3.126233693945265624e-02,-4.819425108595479929e-02
1.097942804149812657e-01,-2.821778013298232093e-02,2.172896811195307309e-02
-5.942832471737674593e-02,-1.220830672796488839e-02,-3.293908247908842318e-02
-7.123839987261763873e-02,-5.399668789993457979e-02,1.091031431008566109e-02
-2.257210685565542302e-02,5.642870885058514675e-03,-9.933804826926869933e-03
3.512702697514024654e-04,3.138638819791253129e-03,-1.341857022293620715e-02
-3.661761180418770384e-02,-1.668926845672032491e-02,-1.743521766966407358e-02
-1.573688198286497851e-03,4.710204130002526926e-03,2.480865667766814567e-02
-7.624576049942542733e-02,-9.845640632205589216e-02,4.201881279594916335e-02
-2.891344123901011184e-02,8.734441806135936556e-03,-2.672206967149132542e-02
-3.021236701347624481e-02,6.674707332602784066e-03,-5.342824637860637410e-02
1.871465482729485832e-02,1.993237877494511215e-02,-4.429381650440526730e-02
1.489484858802769471e-03,3.641465669308811826e-02,-2.203473484046786224e-02
3.016502065674959293e-02,2.248409093217085958e-02,-6.340412417588661914e-04
4.256559303325348903e-02,3.630265352418886315e-02,4.434941150348165745e-02
-4.268651747343090580e-02,-2.968122205438527422e-03,-4.465766914687320510e-02
-1.546200478878768242e-02,5.678775505231947913e-03,-9.396302950976114302e-03
3.777957976208861507e-02,3.037878165617987486e-02,-5.159027104213235321e-02
-1.571517987580994813e-02,-4.709234162083746761e-02,-9.419659475625320744e-03
-4.674233811352915963e-02,-1.520258253537515140e-02,5.828149426578462140e-03
1.718000794100672801e-02,4.791027667830716208e-02,1.341403461188271119e-02
1.425611695349663852e-02,-8.395352930255824131e-02,-2.281271007823636177e-02
9.890688401178958367e-02,3.548964130364590588e-03,-3.741991482553676338e-03
-5.575342577637399342e-03,-4.864159087023157274e-02,3.750262548137319601e-02
-1.137624687728301665e-02,6.866141315912088761e-02,5.975691753293514707e-02
-1.480305988001405504e-02,5.086251791529964456e-02,1.886184215502258524e-02
-2.975664560332160966e-02,-8.329175812259217646e-03,-1.547285578255727396e-03
2.772726788506950021e-02,-1.575836080083601459e-02,6.293256944486519400e-02
4.649552697171211585e-02,-6.328729138364773410e-02,8.272597296309304807e-03
-5.801519517595867675e-02,-4.352268718477839832e-02,-3.548247028322821378e-02
-3.573093590953532739e-02,2.665648758507553617e-02,1.159387008581865552e-01
3.562285095668199508e-02,1.963830748939029980e-02,-4.456717407440975720e-02
-9.570195243451243630e-03,-1.192126429481837023e-02,7.432015779820271874e-03
1.284246839520338662e-02,-3.542420659781100878e-02,-3.277326865671845516e-03
-2.710747094637185051e-02,1.049043508529495655e-01,4.066053888681463169e-02
-7.918544164143502539e-02,3.829303363493229140e-02,9.961831960627828570e-04
-2.091424816075706725e-02,-7.309696768700539929e-03,5.159207977112725829e-02
3.219135498877381818e-02,-6.144684487256130145e-02,-2.213476428729296494e-02
5.631991463426148405e-03,2.645561125389319507e-02,3.212032480361936421e-02
1.702471531472019364e-02,1.981107747416537695e-02,-3.622114609034610827e-02
-3.686188323970548270e-02,2.102713440321170649e-02,3.064474800611214841e-02
1.140037421988441269e-01,1.146183532605280810e-02,-5.615484274731936953e-02
2.616388569713749834e-02,3.880232970695474126e-02,-2.402694005156604667e-02
7.689756864725844077e-02,-5.823289186679810048e-02,-6.282599028826676979e-02
-3.433209688576085300e-02,4.993967999345697018e-02,-5.804957472751451179e-03
-4.082274413082431774e-02,-1.048828485994069207e-02,1.312591823601173997e-02
1.398402619084682802e-02,-2.781141564988227205e-02,5.067375930066204265e-02
4.204297489302912666e-02,-7.350677948893200898e-03,4.980243524545116193e-03
-6.987040206224333101e-04,-1.398274356586413957e-03,3.025387575759514933e-02
1.977864636758845315e-02,3.209370574794692677e-02,6.038544837788576564e-02
2.798941416127570178e-02,6.975546266397618378e-02,-1.586119369787749450e-02
-2.924892066877202157e-02,-3.013029207522151254e-02,6.918779359169600907e-02
2.398296992183486867e-02,2.111120370023019180e-02,-4.000524726257478209e-02
-8.213642097059148384e-02,-3.666560810608628963e-03,-1.953143739737003490e-03
-6.601998354554935999e-02,-1.613883683279571449e-02,-1.169721151929590218e-02
-3.698529707772433422e-02,-3.380947442538043135e-02,4.517126497183655831e-02
1.534469673104213623e-02,-6.466798991152397647e-02,-2.128436745991755391e-02
-1.639841829082977834e-02,-9.279541810581494812e-03,2.670506351298497505e-02
-4.038189553740318544e-02,-3.814180809893748941e-02,-1.187741479893689445e-01
-4.290539767956411815e-02,2.988008712045071152e-02,-1.043530848623076129e-02
2.834732775840030986e-02,-6.137584867610536982e-02,4.380858554032904945e-02
-1.972773715038376313e-02,-1.179976704325311513e-03,-5.952658360815293870e-02
-5.326740228918991349e-02,1.970779031947314519e-02,-1.710819087287989218e-02
-3.402851440645508069e-02,5.013109053454156000e-02,5.537371257661521246e-02
4.066113158066150812e-02,-4.727813596157404846e-02,2.909431725932095508e-02
-1.137308130131974016e-02,-6.304742353046427494e-02,1.158390849195560096e-01
1.757719495048186767e-02,6.510219804320218316e-03,3.885769249938283293e-02
-4.565706136538353471e-02,-4.287198197143767681e-02,-9.543462223343622194e-03
-1.242558101579804494e-02,-6.626751309166493964e-02,4.043041645969087244e-02
-2.993736913368932537e-02,1.034755805986277144e-01,-4.016686402685658297e-02
-5.650734801977039257e-02,2.268193691729279357e-02,2.239423925029399715e-02
-1.441841021634588521e-02,-2.905740407541840958e-02,-1.726774705349767727e-04
7.178189702008115625e-02,9.907638289904485696e-03,7.989724046784442771e-03
-4.366918104544093709e-02,1.039153008681438506e-03,2.921953786077212400e-02
-1.462846414189212076e-03,6.365238749049163813e-02,-5.190778725357380989e-03
4.064961149743824553e-02,-2.047338130059602954e-02,-5.629800619847136200e-02
2.051452175874465475e-02,3.698016190771075129e-02,3.495246362033292697e-02
5.621999985395821284e-03,-3.869325901648613258e-02,3.243645094873242457e-02
1.263813954548922286e-02,-1.750237093101289498e-02,9.928323040723580073e-02
-1.034169346052142167e-03,-6.093561923949464276e-02,3.532377758068972612e-02
-3.888671899321607950e-02,1.167199841625340224e-03,6.154927109629593912e-02
1.060686863815569515e-02,-7.775337258465697676e-02,-6.296097798389549416e-02
-1.970454204308592569e-02,-3.508835792672629350e-02,-1.703508406821685472e-02
-1.321675231890746642e-02,-4.535493709210925567e-02,8.469089758879590202e-02
-4.673906333258071553e-03,1.929314359941702514e-02,-3.666954118474349128e-02
1.028470295238410404e-03,-6.022373262020427193e-02,1.134013630282655963e-02
6.984623528735227349e-02,-1.673056955696566178e-02,2.681080647491424288e-02
4.880840524093476435e-02,-6.336494552829297078e-02,5.059701491958203123e-02
-2.026982135909949703e-02,5.427948332580297651e-03,-2.718888860706684951e-02
-3.480019415137813876e-02,5.812151112883771550e-03,-3.068271331596591350e-02
5.063841869332432778e-03,2.427909118300431227e-02,-3.231824525886523719e-02
1.365573072939789065e-02,-4.605762612992146676e-02,6.244472394862256998e-02
-2.361726292535474767e-02,-3.017287818408487948e-02,2.870462914357183384e-02
3.807241220134309490e-02,1.142894469056724392e-02,4.551283571600696354e-02
-5.518215946248985343e-02,2.759374536270156608e-02,4.580744107277622684e-02
1.965035355129000905e-02,-4.945055581112542398e-02,-6.854177465866016263e-03
7.673952142703967250e-02,-7.331390786209877886e-02,7.086066950575657664e-02
-4.978657022622029471e-02,4.707846390447857979e-03,-4.891850643682329330e-02
-2.890964810093524240e-02,-1.116232147740369926e-02,-1.084904484929583371e-02
-2.422146303555399241e-02,-5.116244864404644738e-02,4.533906580705221456e-02
9.215154339060749669e-03,-2.252012236618600519e-02,-7.377221705206189750e-02
-1.928545648129097959e-03,-3.064836003793724312e-02,-2.319432385580246642e-02
1.156531262155291798e-02,4.015263259143470737e-02,6.119614840476036641e-03
-5.242280383358446927e-02,-1.292689478928121414e-03,-4.518214665356438259e-02
-9.756422842359845082e-02,-8.135188570129448654e-03,1.945979899750739650e-02
6.126798570816882616e-02,-1.492515967200453396e-02,-1.266067635402872565e-02
7.807520143751585373e-03,8.355427268880144531e-02,-2.516165696018470704e-02
4.681768755813279365e-02,-1.007394530152630301e-02,-2.922361514455057083e-02
-5.178571550636634768e-02,6.821473960899455957e-02,-4.135109727797418866e-02
2.936921841132645108e-02,-4.766126144213893301e-02,-1.969402654674767481e-02
-5.205626623158118513e-03,6.304049567906182261e-02,-5.014626875876773693e-02
2.049987734685900995e-02,-6.278465583434032771e-02,-5.583905816131021389e-03
1.166284920115205903e-01,-4.211205011139682736e-02,-5.174536537074125170e-02
-1.330976210783527645e-02,-4.837714963640614430e-02,-5.218732509921340107e-02
-8.587572455075218741e-03,3.663365428543708530e-02,8.606282340414846133e-02
4.260077956678843397e-02,-2.520917586788011880e-02,2.329486408707990078e-02
-3.605897548448386281e-02,-7.906318008213697804e-03,-2.179651563410401824e-02
-3.193113244203203693e-02,-3.188798878573296386e-02,-9.762610933633404653e-03
5.030154350580912787e-02,9.880010921342012933e-03,1.259909932939809463e-02
-1.279867720605074380e-02,3.567171113134025295e-02,4.096187676826392593e-02
-2.376775605221612825e-02,6.034802361608543331e-02,-7.111310881521083760e-02
1.564677574400193810e-02,-5.649624339418846813e-02,4.684691293943201579e-02
2.556650467806933363e-02,-2.184193477579187900e-02,2.304562168479985448e-02
3.033340687819090567e-02,-3.692922677830622752e-02,-1.781373150557343660e-02
-2.340521976463223047e-02,4.422622428465212280e-03,-4.613361809562754878e-02
2.020755721862865784e-02,4.729941919501568642e-02,1.362913946615554317e-02
-2.033753322183463885e-02,1.761357945581796744e-02,-5.203831689661424925e-02
-4.338811827157727091e-02,-2.603315007474593309e-02,8.161543413748497539e-03
7.887068536551881601e-03,-1.432715568076718682e-02,-2.140416102383761038e-02
-7.127757365615029761e-02,-2.358765567456506604e-02,7.514475492932019829e-02
-3.839943713511437956e-02,-2.662881871367521469e-02,-1.529664600219396604e-02
1.866025036041124574e-02,5.537251227295952871e-02,-2.707592064670157062e-02
-4.013451300751827433e-03,-6.597436138180128029e-02,1.711806731588154384e-02
3.321236088731394781e-02,3.938688303578779387e-02,1.094309270733894862e-01
2.087763664885885009e-02,6.837349566445709292e-03,-4.175888822073033080e-02
-8.114738683993977242e-02,2.499030735912661366e-02,-4.127613471665802364e-03
1.426418420778269650e-02,6.138243623908937359e-03,-4.939261679059937966e-04
4.291374352101209183e-02,-2.190187359223401756e-02,4.780023574055514840e-02
2.610652536626209552e-02,-1.055066002120150087e-01,3.486130119599792354e-02
9.660651591641948588e-02,-3.887035349227764558e-02,-5.778727122988605580e-02
3.920517141447533993e-02,9.496184296667442570e-02,4.524142973751372337e-02
-3.576552064325803915e-02,4.758748660051771717e-02,4.730608434514516070e-02
2.493935416469204858e-02,4.567682022011045062e-02,-3.820545339383214778e-02
3.641428352385147477e-02,1.659735239468899948e-02,5.553825263298960146e-02
-3.891311348936538073e-02,-9.769498642250726284e-03,-5.205622574666448482e-02
-6.518927791106564687e-03,-6.516457711914708240e-02,-2.850437626184773934e-02
-9.311534850856680251e-04,1.359057275430431908e-02,1.583637725884954467e-02
4.032783238846147228e-02,1.120726156791071286e-02,2.531876380075928981e-02
1.169870240579332227e-01,1.177848511358471802e-02,1.766429448711293038e-02
1.619428134764825528e-02,7.459339729828268727e-03,8.312883914562466114e-02
6.079113761411857053e-02,7.511752565240041590e-02,1.360612023135421983e-02
1.267410615739662273e-02,8.496975429849730477e-02,1.750646229499961889e-02
-2.947143247973008431e-02,1.307183797303601049e-02,-2.607102313451516509e-02
-5.160690625674910215e-02,-3.022783572760123424e-02,2.539980159264691728e-02
2.391807782027910098e-02,-7.067616373246190555e-03,3.021899107804142809e-02
-5.134439998228386426e-02,-2.688816149582698781e-02,-5.030266087167410693e-02
8.092271002214700137e-02,2.850971882950894577e-03,-4.386948346526277354e-02
9.325032075126898218e-03,4.215175449720238998e-02,2.972076976127879626e-03
2.760374045114315569e-02,1.603031170922231824e-02,-2.770107261944107849e-02
2.577670760579541410e-03,-4.870605302724769631e-02,-4.965897530578417679e-02
4.562941104436489537e-02,-2.637576139723954438e-02,1.109951392828605922e-02
3.614161147734928220e-02,-1.788733616794016199e-02,1.918317595154142921e-02
-1.361435581965455188e-04,4.135181110984807035e-02,5.418356978828044873e-02
-2.119857586559250814e-02,-2.017869492645637391e-02,-1.832175270552312621e-02
-2.555194004268084365e-02,-8.494064276698430616e-03,-1.055466046657841349e-02
-6.537722185674664510e-02,1.112696939184957823e-01,-4.220235247063473111e-02
1.475505340275155060e-03,2.123780816544804800e-02,8.226328497489505953e-03
-6.398207752442208740e-02,-4.964148155532385753e-02,-1.937596891081947575e-02
1.280816726872747134e-02,-4.007130146402720916e-02,4.121911204454021399e-02
-2.555786959253156937e-02,-3.312261554005764552e-02,2.524555550248851893e-02
-2.429649607633502413e-03,2.694806121489616915e-02,-6.539170859809259606e-02
-2.397813373696507100e-02,4.149099183549977143e-02,-2.174509212462519270e-02
-1.774236744593601575e-02,-5.273381077752637563e-02,-1.270939665466512374e-02
3.776913240493114110e-02,3.019798900874461154e-03,1.059984836812988447e-02
-2.679735022688350260e-02,-5.123153746456628188e-02,-1.722475041427688758e-02
-4.382846368096206258e-02,-3.770123112901886675e-02,1.207707750611862821e-02
-1.044396627127658003e-02,6.361423070449733451e-04,4.502412790859621622e-03
-5.838612672592798265e-03,1.018282249633621975e-02,8.605532993305527178e-03
-6.727675232376548187e-02,3.472398259397554456e-03,1.814195569628315394e-02
-7.981398317986442004e-02,1.056822996506815229e-02,-3.208458509181692092e-02
7.596136440958707603e-02,1.002001776525579708e-03,-7.785443978187076008e-02
3.354551928665155947e-02,3.688733575455532820e-02,6.729271611262759023e-02
-5.781717132887480987e-02,3.143475446807607321e-02,7.525633579498329853e-03
-4.148651556670437252e-02,-1.018053727873654835e-01,-3.884709607065001818e-02
1.762793419423167550e-03,-6.606966447119232838e-03,-3.067935758387111203e-02
2.201894398211858353e-02,4.514721748292543912e-02,-2.690650636667893392e-02
9.609910022097628568e-02,-8.947267069875385059e-02,-2.313690618733297427e-02
5.609520877141153938e-02,-4.121657819499704306e-02,-6.356089136633988335e-02
2.431072899221803016e-02,-6.542662104842140482e-03,-1.375415412121144473e-02
1.541530215188117656e-02,-2.182413865261963529e-02,2.834095920782105441e-02
-2.418500188683757671e-02,4.501409902589992296e-02,-6.535374076355018880e-02
4.147812607201106089e-02,9.703233181903012095e-03,5.384424272431170139e-03
-1.765341458431251426e-02,-3.382499314701371048e-03,1.969586130602415594e-02
1.623287625616276486e-02,5.744069015421254636e-03,2.903331892155713335e-03
-6.169813205283523200e-02,-3.729179396615468073e-02,6.040497959334580058e-02
-3.908711921848290888e-03,-9.750233228051828627e-02,2.540955602634807284e-02
9.273100242512005709e-02,-4.610597135450056339e-02,-1.013407512071592270e-02
-6.550042332245684107e-02,-9.051881921005147658e-02,-5.582747778003184502e-02
5.280921533094677395e-04,-4.006540364569486506e-02,7.565469344216088632e-02
3.840360557720283452e-02,-5.497906054138413517e-02,-2.279531667388001205e-03
6.052266835626150115e-02,-1.705411684044632822e-02,5.025553205823021091e-02
2.163819884431762708e-02,-7.987190879401530330e-02,-7.816678113661519600e-02
3.520703151147921983e-02,2.875262046408820146e-02,1.805960737986951267e-02
-2.908803386592401924e-02,5.085579168347286599e-02,1.799636741881498886e-02
-3.215400144207081201e-02,5.448068946919520927e-02,1.759384727546704427e-02
-8.104198547150671950e-02,-1.076934552100313261e-02,-2.158805821062393521e-02
4.627578810951290741e-03,-1.630365479311662175e-02,-2.319205491643295050e-02
5.267884689202782106e-02,5.471719825434965406e-02,5.730288229019180751e-02
4.907591909206181907e-03,-2.684177689743750053e-02,4.593556750318229798e-02
-7.664671514472491155e-03,3.278808646060485388e-02,3.830203772653151956e-02
3.694201275296940534e-02,-7.728505801641355824e-03,1.977820899280758812e-02
-1.243042797681179548e-02,4.629573002880303656e-02,-5.843176039212547544e-03
1.895336449021541025e-02,1.080503735113896024e-01,1.779638193674761004e-02
4.457175974434036264e-02,-2.313336810749026459e-02,-3.806477972241463070e-03
1.321310407485912653e-03,-8.085013412080151174e-02,4.413529012409547064e-02
5.990943199785022516e-02,8.392546081537137492e-02,-3.018381157032448692e-02
-7.036238126868894771e-02,-5.151816192783512105e-02,2.139847907733362017e-02
-4.068243611444695429e-02,1.350238674342668123e-02,4.956576702934460503e-03
3.202765780980457860e-02,2.802229971175142567e-02,5.940505439041107033e-02
4.174030052775994093e-02,6.032797485230727459e-03,1.628760720079327692e-02
-6.248998922915621063e-02,-1.588289558387861664e-02,-1.732968887091852414e-02
7.635851601763120333e-02,-2.039903474938270511e-02,-1.293952390681832321e-02
-6.913633306406814782e-02,6.243174721486620393e-02,5.705823797112120205e-02
8.886977721726439794e-02,-7.152719247064594568e-03,-2.425295166371080162e-03
-2.129832590966663011e-02,-5.416230268908080875e-02,-1.870319938794812870e-02
-4.032189167465143574e-03,3.593384656012936062e-03,-5.141258641721622308e-02
-3.532971293816650031e-03,-1.070233131528915138e-02,5.263236850046230236e-02
-4.619811192844558434e-02,5.183129799174122920e-02,2.340637842720544315e-02
8.831091819767822315e-02,3.158724020458957699e-02,-2.434424685171156233e-02
-8.029759639752524769e-02,-2.306632939587341738e-02,-3.998355284039282857e-03
6.179799176402487465e-02,-2.252114664994401758e-02,-4.737618384957053425e-02
5.564299349295346447e-02,-8.494412513483438898e-02,-3.025499700598809419e-02
-3.940359085132309237e-03,-2.013315570625391626e-02,-4.879215107471686179e-03
4.697963560568794994e-02,-7.062366927361189706e-02,-1.353492795596168870e-02
6.072283207992323212e-02,1.097510803318302178e-04,8.026074127675930647e-02
2.105127406357360995e-03,-4.350782978693498032e-02,-6.023507527769382530e-02
-1.774641154046500968e-02,-1.864582396723223068e-02,-1.536449415604805233e-02
-9.665269606532869706e-03,7.106301616988797143e-02,1.373577858985900249e-02
-5.127097935743182844e-02,-6.592827031952798456e-02,-4.472457218229962395e-02
-1.563692297345165363e-02,7.413776576255121098e-02,4.319856362593215565e-02
6.670315477272892660e-03,-4.959888043676268085e-04,-7.033453188732965988e-02
2.979100678114380771e-02,9.964240370429826299e-02,4.370115188591736088e-02
-6.000294068283100295e-03,-2.866738318354380630e-02,-7.783265932642768892e-02
1.210558851448034767e-02,-2.068297900654337412e-02,-1.364016521387192288e-02
-2.797667119964234242e-02,2.043059223739155175e-02,-4.444617284539850027e-02
3.956996109512290333e-02,-4.014946398513376952e-03,-6.103924559777464814e-02
1.062497735966549672e-01,-5.849859149444397444e-02,8.136323359675223799e-02
-2.681839412219801100e-02,2.032196253998764385e-02,2.609809197996454042e-02
-3.531807834912670772e-03,2.618359301224465821e-02,-5.578732899538110974e-03
-8.129060816060097727e-02,-6.995310182887579109e-02,9.347505236129075024e-02
-4.559852600762343000e-02,5.409085449383889410e-02,-2.077809079664960992e-02
1.654426485986417242e-02,4.178227796161521762e-02,-3.197659180154985986e-02
-6.811242705849846792e-03,-8.900266384499001815e-02,-2.731692221025940059e-02
4.247114010253166816e-02,-4.474384255424562751e-02,3.306396280443530539e-02
-1.278211013672412438e-02,-8.777521979370402419e-03,4.579821523310267234e-02
1.337243016310624144e-02,4.380777320045702722e-02,-3.693308259327640619e-02
1.426644978130669345e-02,5.440214375362494026e-02,-2.591890946451211666e-02
-1.966990205055679959e-03,-6.587970061075833043e-03,1.644675381713449000e-02
-1.316558421633566567e-02,-1.630797704195417752e-02,-1.619989580524768685e-02
-4.369926941156081213e-02,-2.585692546950009441e-02,-1.493253979420572711e-02
2.431770325519935425e-02,4.633534619865851273e-02,-9.670832189855689195e-03
-5.551977693304574468e-02,2.174683489977163452e-04,5.367746999384191697e-02
2.736071312936038183e-02,-7.489032554442712208e-02,2.971546760364380396e-02
-3.609317758472216364e-02,-4.736322153872193907e-02,-2.576054328262925366e-02
2.493255557936740422e-03,-5.840586054354927892e-02,8.646616241606683295e-02
8.535474377827528825e-02,4.377917001458103002e-03,-1.736951507316347385e-02
2.841214084251229496e-02,-8.779186495584404698e-03,8.093604509925901580e-02
-1.074154255243326278e-01,6.720167033508536725e-02,2.392050216159842188e-02
-5.133273640019256345e-02,2.302642658476265411e-03,-6.257311529619914540e-03
-7.690412012107362624e-03,1.329600530050302834e-02,7.564467637440864048e-03
1.274577580680574806e-02,-3.082946357824119590e-02,5.294757872605149879e-02
-9.569776027677662569e-03,8.259181648798169517e-02,-4.811224126492238962e-02
-8.373246189805281722e-03,-5.493464468683743884e-02,5.219354784813855924e-02
7.650009399394508067e-03,7.816482154769939517e-03,-9.001212636533850731e-02
2.228944485209435541e-02,5.396656390966689948e-02,2.856757370776857527e-02
7.420751351072793489e-02,-6.462581923169263831e-02,5.566295596344501828e-02
4.429015213915908633e-02,-1.732560887198258395e-03,-4.540215393375870295e-03
-4.834212170263538222e-02,6.601923754395053190e-02,-3.515015913323656527e-03
1.020776175803132096e-02,-5.215531945982608553e-02,3.384782576431428353e-02
-1.508122547345309115e-02,-4.092772568297783908e-02,-1.394580331509849211e-02
-1.292658147553074968e-02,-8.207893045071225357e-03,2.115949252869379210e-02
-1.753697921002072072e-02,-2.507009130678724065e-02,-2.731877615865708434e-03
-1.395414394556959876e-02,1.605654945665081074e-02,-7.855099145562413621e-03
2.378197338114806589e-02,6.085277244383408002e-02,4.740652872296532289e-02
-5.907211368862972517e-02,-1.142827814401795213e-02,-2.853222001399902466e-02
6.239723648840563713e-02,-4.389755677665474476e-02,-3.136738244120449142e-03
-1.522986572797957461e-02,6.124909677485112364e-02,3.022628984057945320e-02
1.056273412828990371e-02,2.969573106708258206e-03,-5.162405281370219950e-02
3.786657528707896431e-02,-3.156292945058173510e-02,-1.331943521525589397e-02
-5.328748544098044215e-02,-1.562651190353276515e-02,-4.163746519353803827e-02
5.568523323510472106e-02,-2.437181723769383038e-02,-5.050192439723921560e-03
-4.463624163660669109e-02,-6.886105545122384042e-02,-2.970872003046671345e-02
-3.698073133757478147e-04,3.163867981712743110e-02,-1.127466557311807005e-02
3.520935879881462172e-02,2.568724289415155043e-02,-3.069059111434766993e-02
-9.040855241143982979e-02,-3.296291790993573917e-02,9.736135562272585245e-05
4.876341645082531845e-02,-6.788462369532952123e-02,-5.638662814902804105e-02
-3.046294901518494316e-02,2.805097014976238993e-04,4.615815808214335236e-02
5.134710175372804832e-04,3.020825017695355497e-02,-1.411209491380810421e-02
-4.114049869773853813e-02,-3.663116039682259850e-02,4.253232443979398925e-02
5.865493419237404610e-02,3.773327441167072943e-02,9.510635182623254982e-03
9.825131824775266282e-03,3.217074978647688210e-02,4.606189634209532230e-02
2.595891707068548326e-02,2.765504332920461911e-02,6.654363258783199675e-03
4.025829850559856787e-02,1.207622111198327144e-02,-4.508233236484220086e-02
3.517351702994942625e-02,1.042293715502866196e-02,-7.428150224652062261e-03
1.960466099296093515e-02,1.072032109781676130e-02,2.941769448229799959e-03
2.896377285863043632e-02,2.490565613725639199e-02,2.996988494894730834e-02
-2.835556867765415615e-02,6.894104110003344832e-03,2.312192396613489687e-02
-2.663785260730091448e-02,-7.318936377589040088e-02,2.513547095077177992e-03
-2.421527359435010629e-02,-9.163833075892524604e-02,-4.042986682536648529e-02
3.601206513088754668e-02,4.522582245771959719e-02,-5.524588060573271640e-03
3.918656951242804540e-03,-5.852216710764342189e-02,5.771364315643687931e-02
-1.413592170049242239e-03,-4.610955806774176893e-03,-1.512907398546899616e-02
-3.122908134079998774e-02,4.754313486987266774e-02,1.140470252547034352e-02
3.892712700970192563e-02,2.007305397322543469e-02,2.601645812284664530e-03
3.426470789680389345e-02,-9.746575600415814666e-02,4.233712332053747585e-02
7.405508543189667781e-02,-1.545411808761634580e-02,-6.021278129288275272e-02
-2.685546659476691772e-02,1.257724617353687784e-02,-1.233906758003245480e-02
7.539863078558105064e-04,-1.344220959711233537e-02,3.727507349010390075e-02
6.003806337260476217e-02,-4.906226930476343534e-02,-1.792893927490792072e-02
-9.313253913718625571e-03,-4.527690816815566760e-02,-3.364863662087816398e-02
1.002436132731573531e-01,6.606380910997506836e-03,1.144626591937545484e-02
-1.073196334636677962e-02,3.226869312580844806e-02,5.184944638790597859e-02
-4.005423741177367020e-03,7.469804900328748387e-02,3.596700311291625013e-02
-6.935054271003013304e-02,-3.262081365163119195e-02,5.230485889544338185e-02
6.864347527476183375e-02,-1.978567419955388693e-02,5.188618187991481806e-02
7.871919260872779767e-03,3.015740236936149780e-04,2.329657771673901423e-02
-2.164357811232345968e-02,7.018320895439077167e-02,-2.618538439318772795e-02
-3.562703144412802947e-02,5.747406066237450289e-02,-3.338276430930711691e-02
1.225950859036718278e-02,1.994425166000235103e-02,-1.879104798711152919e-03
-3.322278370988031998e-02,-6.204344491301872627e-02,5.539958359988562259e-02
-5.031695233528928057e-02,6.953710414751969326e-02,-3.822121726550912341e-02
5.003951500070196595e-02,-5.069224036214362017e-02,-1.851287079978435404e-02
-2.799320178588363128e-02,2.664936971079077607e-02,-5.431947963008318392e-02
7.562172926393519179e-02,3.289347496646567726e-02,1.486200578257099343e-03
-3.401517035139758199e-02,1.164413407253639399e-02,7.497637851291941158e-02
3.365847497262496046e-02,4.114771462469057894e-02,-4.387756464375904691e-02
-5.253932618091203439e-03,5.423043717336570139e-03,-6.185840330042807061e-02
-2.553432291574031510e-02,8.903330710123952274e-02,-1.631970046130662433e-02
2.239243469520795990e-02,1.354309062241708037e-02,5.036080123030927530e-02
2.341919206153083785e-02,3.490716765856174270e-02,1.293668584001170067e-02
1.130972800492587201e-02,-4.846074577242712178e-02,-4.123527818602730488e-02
6.679003552512489950e-02,4.936394021590432418e-02,-6.766660727466625169e-02
-2.795365581465240543e-02,-6.407807778859782311e-02,3.108956266243538893e-02
-2.691926909703476478e-02,2.064262409932057438e-02,6.592602885300809235e-02
5.092891933010198395e-04,-7.309856446781995074e-03,-2.088429397198015777e-02
-1.229398284853659186e-02,-2.781378898178787917e-02,-2.478099642765863378e-02
5.469559152300381213e-03,8.134355576061332027e-02,-4.143438715572003717e-02
-7.622510454926342133e-03,-5.186244146079026229e-02,3.278555975395060912e-02
2.743137784933546292e-02,-1.197667324537657861e-02,1.230994388020332925e-01
-8.467711642969311114e-02,-5.599971420027321373e-02,4.581991425311897348e-02
6.033415436290991835e-02,-2.055331252025726502e-02,6.788437257473374509e-02
-7.346105320142652662e-02,-1.489683388591021840e-02,1.139471620406815044e-01
1.591718799036100085e-02,-1.074960659184027584e-01,-4.094826294223290197e-02
-3.511228439702264534e-03,3.016809614461384362e-02,3.235089965351892194e-02
-1.192743525257797602e-02,2.026012106182272995e-02,1.123192463868016681e-02
1.039877051855702880e-02,-1.980361191454596027e-03,7.478766655419537279e-02
1.669155507596931098e-02,-1.947131404904965668e-02,-6.406048098686702164e-02
-6.487227096210032053e-03,4.765570282322180440e-02,5.816010391758873882e-02
4.162986728832131222e-02,1.861948105795372191e-02,2.974824309478584644e-02
1.054727075768135819e-01,-2.789105240879688474e-02,-4.332288425688926581e-02
-1.813577637846554898e-03,-8.032818118118860429e-02,1.120471249727726243e-01
2.310568577960774982e-03,2.056432756281543345e-02,2.623048324464369307e-02
2.123436240349571916e-02,6.526122864354473585e-02,7.661567847704587285e-03
4.079291790243128046e-02,-2.609764370476977055e-02,4.888363101553393902e-02
2.597566616253035084e-03,-4.011725736799066910e-02,-1.554567745679203035e-02
2.113554578987828642e-02,-1.035299510504928272e-01,-3.630769884323015173e-02
-2.904159070766700046e-02,2.254804143348204323e-02,-4.538588005068846382e-02
-4.938631227438987017e-05,1.068685953086311036e-02,1.794300375881459830e-03
-7.950499876517472947e-03,1.517614892758564066e-02,7.560294092094593625e-03
2.535674378275635729e-02,3.261523404756128119e-02,-2.004313767177675135e-02
4.924142599001761489e-02,2.458954888673384881e-02,-2.402186398491333585e-02
1.791630046110576427e-02,-3.189219411633557877e-02,-2.794192722908693874e-03
9.475048537618348254e-02,-1.435448058399943841e-02,-6.270883056783000710e-03
8.147476168387229878e-02,3.422400252632485599e-03,-8.254585022452560691e-03
-3.748777396932043149e-02,2.533221943682536711e-02,-2.247408191481738843e-02
-3.592985144714676282e-02,8.265930518587782938e-02,-3.623843252090150346e-02
5.284657925055619154e-02,3.126299670999616032e-02,1.709958756881901562e-02
3.879917229979007280e-03,1.858703886460687238e-02,-1.458025127921507708e-02
2.897865692567142687e-02,-1.819313344687654294e-02,7.032173797879690338e-03
-4.519052508284078506e-02,5.069611308507396968e-02,-9.911676067736513440e-02
2.681740929483162044e-03,5.771075576761149767e-02,-1.315984160527605348e-02
6.349780269300689395e-02,-1.289100726184395050e-02,-1.870218630188274014e-02
-2.548205161626528048e-02,2.679972711621421162e-03,-8.504177707883907658e-03
-4.135154894760057105e-03,-2.119406911424394011e-02,-2.277060408053398211e-02
-4.635188514925393105e-02,6.570195459747833755e-02,-4.328597357630763545e-03
-2.535970310089881441e-02,8.329075666000648748e-03,-4.991553070278603732e-02
2.753045857007411362e-02,-3.762892091293285751e-02,-2.942284243983334449e-02
-1.699814149277113773e-02,-5.897166199023163961e-03,-3.209784995098895893e-02
-6.563520898948384252e-02,-4.130790155360378885e-02,-3.679757639031962235e-02
-1.688521277576330790e-02,2.350101636911401670e-02,1.063352160294069905e-02
4.305867078981141099e-02,9.106396642411986042e-02,-2.766582476083341915e-02
-6.227913304388271037e-02,-8.327846963578442591e-03,-6.339303626332998265e-02
9.086625810737139833e-03,2.102527420041194750e-02,-5.192132882725106202e-02
-3.310948247501686176e-02,-7.331430846370949606e-02,-6.888854451954327072e-03
-1.641085483090555519e-02,4.085398473389083990e-02,9.015986363716055330e-02
-6.491353861379158159e-03,9.850917328903251169e-02,7.004888449298363184e-03
-5.799455455775374968e-02,-4.594646092054249786e-02,4.119511060803983447e-04
-4.138688703451452733e-02,-4.910147571401467237e-02,-4.237105096912597429e-02
5.407322765088168337e-02,6.563998497630903206e-02,-2.776168117649133876e-02
1.694569881302293926e-02,1.294547929585208000e-02,8.466351713690373204e-02
3.210606403533249054e-02,-4.352374467473536790e-02,-1.523357729106344059e-02
1.360241176636494201e-02,-4.265870210749619224e-02,4.529167069200466800e-02
5.870684910191641820e-02,8.097143005449577990e-02,-1.992582447699199448e-03
3.292831337841825579e-02,-5.813909468919956081e-02,7.071384962581044042e-02
-1.050117637765136253e-02,-2.550511480133521580e-02,4.296652804157952837e-02
-4.372457768403215789e-02,1.745080720061424617e-02,-5.016545085518334113e-02
-5.626324016412180898e-03,-4.258092422721882625e-02,-3.974445714305744476e-02
2.630977317148806491e-02,-4.009276603412229890e-03,-8.055667497123267240e-02
4.300390495002554686e-02,3.431288233289148115e-02,-4.121041608012335905e-02
2.347475853409868030e-02,9.635547909822261836e-02,-2.895293799456412354e-02
-1.091638616918779066e-02,-7.601011251209884023e-02,2.038251087659407115e-02
-2.720082503830063836e-02,-2.318576958864681722e-02,-5.447355970657369317e-02
6.232420178907823599e-02,2.045301766025712023e-02,-7.733614433457890180e-02
-1.608413418304210658e-04,-4.596265985461946146e-02,2.710269634428503355e-02
2.013033122491137555e-02,1.963114548767039974e-02,3.034519362323032446e-02
-1.245767588999232983e-01,1.388030520959286120e-02,-6.458739226791619659e-02
-4.105608995655129698e-03,-6.215395961856311907e-03,4.884947303707960070e-02
-2.512352158388852369e-02,2.734477704982659838e-03,-5.598168323198647600e-02
4.132993856779321185e-02,2.590419783165786444e-02,8.413079064256941131e-02
-5.029177544458679483e-02,-7.737524795025410573e-02,2.863719787518477153e-02
3.199790268007512983e-02,-7.257936693351590973e-02,-1.036771954110611571e-01
4.048380677032843017e-02,-3.390788746077596366e-02,1.892436556752537941e-02
-4.452679577282146750e-02,-2.652331208084254214e-03,-2.759919000374526019e-02
-3.938349271862032729e-03,-2.134605135061769937e-02,1.884451234364375311e-02
1.205971259559423560e-02,-1.135892890459352239e-02,-3.119563201033693015e-02
-2.534700133024655501e-03,1.016024593375604865e-03,4.251681736281374968e-02
-2.851208022009478482e-02,-8.232850778630869740e-03,-4.714646790466871240e-02
5.158358586874991353e-02,-1.750489059765856018e-02,1.355669890955813958e-02
-4.956894983507032643e-02,4.827804258570155688e-02,-1.207777350771785940e-01
1.489856814385419337e-02,2.395103218380820881e-02,-2.674476302047214954e-02
6.491420153527513968e-03,-2.842483996215260100e-02,3.167985984545688971e-02
-2.953502259838611949e-02,-1.623666249972998896e-02,-2.586505293149725729e-02
1.139742277018448340e-03,3.171621012528626216e-02,-2.410201073826981344e-02
-3.653346662646043096e-03,1.197496669292509065e-02,-3.169347030586595199e-02
1.335095201493932335e-02,-3.252442541264183307e-02,-5.608633445749035794e-03
1.226938878042849353e-02,1.651369781515282104e-02,2.112045978532700596e-02
2.183794867307428667e-02,-1.092020889766199057e-02,4.154585104313006372e-02
6.398140297637999740e-02,1.267103460300507238e-02,-1.234352620980228542e-02
3.354166409723197129e-02,-1.428647093687528125e-02,1.378630201885569506e-01
-7.399119315398657720e-03,4.286251833983058430e-04,2.303681045668749122e-02
-3.563380433680839177e-02,-3.931584467817272194e-02,3.162722520646595037e-02
3.995393810125632238e-03,-2.068138754471970583e-02,6.989526258961558172e-03
-7.620985692216394880e-02,-1.226025365980399837e-02,-2.399560020886473688e-02
2.107651884546714316e-02,1.196974593794400410e-02,-2.803429837720131448e-02
4.050183982807467956e-03,2.489311254241642277e-02,1.802395826103497800e-02
-3.329763915640715499e-02,8.204403897768498821e-02,-4.003848034783064752e-02
5.613814190993690612e-02,-7.247960433542309511e-02,-2.445648408940885848e-03
-1.377027263581906934e-02,2.764374276795880485e-03,1.327917865630485333e-02
-7.975254387311815629e-03,-2.362317298142318014e-02,-3.218692839544554790e-02
-1.878184570735125236e-02,1.688098713848901200e-02,5.037788292724657696e-02
2.961949177695408220e-02,3.561779606708012635e-02,-4.102149436769044616e-02
-2.874677266950926083e-02,6.192154730755916603e-02,3.903521838524907570e-03
-1.740037651133882063e-02,-5.458847187771404680e-02,7.729707620010999036e-02
-5.492526285797329211e-02,3.506091834047617151e-02,-2.027756959071708859e-02
-6.602392055805745771e-03,6.290614150308141729e-03,-3.451430377806902206e-02
1.035103371141217476e-02,3.736944962032801021e-02,-4.970036457621725134e-02
7.209994508577633951e-03,-1.924549927094474115e-03,-6.454111660878544821e-02
-2.943120376595254051e-02,1.273558830261311420e-02,-6.423247645329846489e-02
-5.091782791935810237e-02,-8.528604289684205142e-02,1.912038251569627909e-02
6.276835126271697318e-02,-7.060050624202605409e-03,-1.472908852498096798e-02
-7.352036263665094259e-03,-1.614917984713320695e-02,1.807565091083378163e-03
-3.329681892324064946e-02,1.599824930508095830e-03,-2.729362905373326764e-02
-4.751877001388174482e-02,2.137928269031544662e-02,1.919255630526115267e-02
1.437080570723685106e-02,-3.529490121706479328e-02,-7.612051670829782235e-02
1.172443036696793270e-02,1.464943315614745944e-02,-1.339383801892648357e-02
-2.154499390750214995e-03,4.192971528764518480e-02,-4.985468553162174937e-02
3.129538006657198081e-03,-3.218795726904132015e-02,7.643943330922331469e-02
2.599222992690066250e-02,2.482841486785335519e-02,4.684138468775122036e-03
3.154667035316047891e-02,4.975955704508072674e-02,6.385119589845940358e-02
-5.111433334212964891e-02,-1.047225746424340024e-03,-5.323477394509708825e-03
-1.496479072320127356e-02,-2.432765725492034431e-02,1.248347629656329505e-02
-8.206942306612318924e-03,-4.948560933607214218e-02,2.612295310064351520e-02
-4.493567910257949966e-02,-2.057754279279267948e-02,-3.114675875908558267e-03
2.213177468184440722e-02,7.060965010023339573e-03,1.994552098393170912e-03
-4.603201188375256186e-02,3.359181686059233875e-03,1.693062153433362582e-02
-4.012414025286148433e-02,7.947983117550846272e-03,-2.673864724496720011e-02
2.430170915626156738e-02,-2.300728315285217873e-02,-2.232208910424750628e-02
-7.154882433040691408e-03,-2.664771433183614827e-02,-5.390640672605370720e-02
6.217710155287440015e-04,4.931913709609405533e-02,-2.532437673472156744e-02
4.193038492801328537e-02,-5.719262744432494945e-03,3.020719066977974650e-03
-1.578229283763596391e-02,9.370936335359604519e-02,-2.369959754614866035e-02
-8.266832726764923589e-02,-8.492485181554475238e-02,-5.453673393438061845e-02
-4.313780497162499061e-02,-1.404884857298622017e-02,6.279880738367017712e-02
1.332628102264036829e-01,6.892099651244298908e-02,-2.766717241854651371e-02
-6.216949226655456816e-03,7.000983099270376327e-03,-5.462748975955708519e-02
1.991480411623994598e-02,3.444801756950643945e-02,5.291804490172346415e-02
2.126753754426770077e-04,2.947310570802766372e-02,4.558011957118156265e-02
-7.577862464616944016e-02,3.802418124368472235e-02,1.550850058424329755e-02
-8.019905316724335043e-03,5.212641828328573590e-02,5.761208161561009317e-02
-1.046865930045636356e-01,-4.522347933423188915e-02,2.848618905887612823e-02
-1.566043305499746630e-02,-8.444170999322177934e-03,2.234762674674702423e-02
-1.159804814885477368e-02,3.919120533863745424e-04,5.203576663019917302e-03
2.236925045799258507e-02,2.344797302035500977e-02,1.391580197692844807e-02
-6.544395112548818949e-03,-4.588277018515255282e-03,4.835254852438668899e-02
1.172729004292483428e-03,-4.112751453638772980e-02,-4.743629992635260001e-02
-7.872993873867034295e-03,1.543008400320155377e-02,1.214420721216307592e-02
2.334200316579267132e-02,6.267807088224685609e-03,-7.473192442483234110e-02
8.086417390546583872e-02,-4.000718368192218016e-02,-3.333199994770989077e-02
-1.920314250413148946e-02,-4.711096944722869412e-02,-4.232578276731918665e-02
1.143734528640515113e-02,1.875381523109618392e-02,-5.170564702068314311e-02
4.079791719531073585e-02,-4.391213811765868474e-02,-6.860559359329694573e-02
-3.581915948745587053e-03,1.202986436338012756e-02,2.796843296476994242e-02
-3.556106693452362744e-02,-2.405334546595006701e-02,-4.311142655451702388e-02
1.539323988188383459e-02,2.656267261073974248e-02,2.625282632093441787e-02
-2.146965944695310158e-02,-8.405300709357521605e-03,-5.679476992316852962e-02
-1.449615313128510725e-02,-3.339034203411071072e-02,9.976074673597423725e-02
2.687837567667325164e-02,-2.492076476614105487e-02,6.807422885665065371e-02
7.086332152863503153e-02,-1.766246644740672098e-02,-6.647755048413296619e-02
-4.710152210480504642e-02,-4.114648766857029183e-02,3.055927010468853164e-02
-3.170607950006584103e-02,-5.699417352268416892e-02,-3.606223838425972467e-02
-2.328576429346174842e-02,-8.335173888727650041e-03,-1.264290405737511329e-02
-7.267519667884278327e-03,-8.887114522771125125e-02,7.268249340914623852e-03
-5.115961284268275705e-02,-4.791871019814983312e-02,4.641704059953588590e-02
-5.198604929584241079e-03,-7.203494438330200478e-02,-3.279851699761364425e-02
-6.476663179800906667e-02,2.175747609715830352e-02,-1.745894066571936076e-02
6.768008698595653905e-02,-2.483763157203230237e-02,8.562248294677853033e-03
3.030808915890999267e-02,5.646531697669592877e-03,-1.223500604574399679e-02
-4.563655198955533093e-02,4.683736548728276161e-02,6.009434241458055936e-03
-5.216087796596071552e-02,6.884533461158365286e-02,-1.497882173266720449e-02
1.972186857966165899e-02,2.988510103292597864e-02,4.860731999710157791e-02
6.933396154945388468e-02,3.173993234170342792e-02,3.101003717465538462e-02
2.534892862971777072e-02,-7.759585970638718105e-03,6.540442314008992897e-02
7.593343009144608302e-02,3.825858132070498324e-03,2.250898126343518768e-02
5.837378842777054405e-02,-6.024544008368192677e-02,-1.528367030210944603e-02
-7.183780168190773141e-02,-3.908526938735023409e-02,1.719928472744816639e-02
1.019099294608932782e-02,2.158431510449831947e-02,5.334624698251829583e-02
2.461733992190343751e-02,2.537316122612393726e-02,-5.642168377235604049e-02
2.415875195105769355e-02,-9.524817305463225553e-03,5.310091409459003625e-02
5.367393431006343280e-02,4.490480398274995788e-02,-4.472751907218164985e-02
-6.907400955814534463e-03,-2.628982552521491600e-02,-6.269085320354637891e-02
1.924606985404069687e-02,3.243166184262530273e-04,-7.553561077357041909e-02
-5.217702805695625251e-02,-4.389148154235558014e-02,-8.556490512674123916e-02
5.832516409197129048e-02,-2.780421413145111112e-02,-1.885978886204170077e-02
-3.550664840973966757e-02,5.556730754719091392e-02,-2.320019348517127471e-03
6.991051570736778187e-02,-1.029792168636725798e-02,1.369745381364768054e-02
3.568633477424834784e-03,-1.756025014722531388e-03,3.118328525194107720e-02
5.908430329972624850e-02,-2.757318158107358377e-02,-1.400549761860383526e-02
1.344875966300851378e-02,-4.273887839121152249e-02,-4.882927709058407706e-04
5.811555810679449458e-02,5.563040438465704368e-02,2.105413538097694603e-02
4.550114387133942506e-02,-7.095771832364626726e-03,1.853212765286161787e-02
-2.019400243486991348e-02,-1.054114939168830645e-01,-2.485010034193041104e-02
2.776210743862073810e-02,5.816335019090331480e-03,-3.412693362379842776e-02
-5.159457777618473018e-02,6.123633459766810588e-02,1.368079583728054431e-02
-2.150287052404832241e-02,-3.182882038155059046e-02,-2.985735543766663766e-02
4.810332032440565314e-02,-3.975326892486903685e-02,-3.435775917153555820e-02
-3.246676695941091290e-02,-1.704757796385481666e-02,6.470220078357630245e-02
1.713662319541233922e-02,6.212485453443411521e-02,-3.524490849556126404e-02
-5.746202713516692512e-02,4.705230371049200395e-03,-2.658602468234029167e-02
6.434807162870118113e-02,9.358961346480262075e-04,-5.851576545164673127e-02
4.975769500662709927e-02,3.106103512041892209e-02,-5.271613658987116952e-02
-8.081492781635477712e-03,-1.755978469333437444e-02,-7.773988775244947136e-02
-1.636482381138234035e-02,-5.948837086823832027e-02,-4.383103939453576736e-03
-2.669593752483901197e-02,5.911610825581989359e-02,-4.904579485467111533e-02
5.546893132827438594e-02,2.312076314280755995e-02,-2.018686234878026148e-02
-3.244102288676353057e-02,-2.194343753558643077e-03,3.062493418001166132e-02
-2.925160314098389225e-02,-9.154117821452001369e-02,5.285243094353078014e-02
1.584085995884107598e-04,-2.066417132086372302e-02,-2.560730807916919774e-02
3.203434265721138291e-02,1.920893742459716530e-02,-2.719262815623636753e-02
-2.194692197091862446e-02,-4.553336233760457707e-02,6.005411185231566626e-03
-6.957472591454719191e-02,4.455433669522183143e-02,3.334258621932388589e-02
1.532466136235468950e-02,-4.699617187835125609e-02,1.724592420840639559e-02
-5.508181033644114072e-02,1.300543140609126437e-02,1.500965558192182518e-02
1.712469356592585812e-02,4.974924057104193609e-02,-2.274148873556570624e-02
-1.510527926033093833e-02,-3.999403872687337658e-02,-1.019270739697688936e-02
1.665325461031165466e-02,8.724899365560086217e-02,-3.081072368951614376e-02
6.984424025220235810e-02,4.941976107007812341e-02,6.103376993815450013e-02
-3.057688820618289366e-02,4.906156421822434333e-02,-2.669103254816092979e-02
-8.574637577475428124e-03,-3.592127980641950102e-03,-2.237134948887720294e-04
1.919773352694218935e-02,4.639731333266839536e-02,-1.227426387680256512e-02
-2.785691287674210270e-03,3.206553965938222645e-03,-9.419938822491932080e-04
-3.756276541523553836e-02,-3.596351333314280058e-02,7.049733257666434931e-03
-1.914182087458939346e-03,6.422355465374591545e-03,3.925703408833422850e-03
3.066832003625053274e-02,4.174833240921740907e-02,-3.643688006066196985e-03
-5.612516523985430772e-02,-1.062296998657713265e-01,1.223875818443819451e-02
4.303225480513937079e-02,1.025008102811945099e-01,-5.442548248404698030e-02
-1.375516885290949294e-02,-4.452352117046585317e-02,1.490722169803232813e-02
