gyro_x (deg/s),gyro_y (deg/s),gyro_z (deg/s)
9.110421056812853524e-03,2.379141321210444509e-03,-3.116750272196836327e-02
4.148397663962192367e-02,2.913339267693362475e-02,5.283686225750456461e-02
5.890200942769646675e-02,4.019448383192328680e-03,5.083977485482869992e-03
-1.856074811067360761e-02,4.059750416291513925e-02,-3.908725970813706208e-02
1.913440570962591028e-02,4.246483279829432744e-02,-4.107237834583132158e-02
-8.542694597896886843e-02,3.117454426872229289e-02,3.852235131345188579e-02
-2.566280683205879667e-02,-1.318588745388418748e-01,-5.274624342408606309e-02
-5.855279669688428362e-02,6.962985461329133929e-02,-1.938835119030794807e-02
8.108484717874429176e-03,-1.798334758492722840e-02,-2.139319767062879823e-02
-2.934032633943908785e-02,-7.569018662046236683e-03,-1.101059981589767173e-02
-5.929126776552715028e-02,-1.355739322544246006e-01,2.639540203574618216e-03
1.283982185063883667e-02,1.612769922930951810e-02,4.023866982161963812e-02
-2.202239192652240621e-02,-6.973261378672704347e-02,-5.365007315191464010e-02
-3.224039821714378556e-02,6.602336727428539942e-02,2.319502338298494101e-02
4.241044927828944988e-02,-5.318634079392366848e-02,1.922411952564560475e-02
3.645413295470333742e-02,-2.689382023564069329e-02,4.356718359150175274e-02
-1.505192924778816881e-02,1.979102276205979907e-03,-1.289851701525836399e-03
4.018443863638103408e-02,-3.140363590144673589e-02,-6.496993230469788605e-02
-2.696898183269034674e-02,-3.402838208887828259e-02,-1.568335260383253368e-02
5.144516733200527221e-03,4.611592623584866157e-02,-1.920652496689764788e-02
2.439375435475372479e-03,-1.859995457065078545e-02,1.871485250784396884e-02
-3.036734415590574415e-02,-1.284447340151686091e-03,-7.983668501445268309e-03
6.202173742155001578e-03,7.184850423699268296e-02,-1.310916120269858473e-02
-6.137467759541866651e-03,2.579894594569347860e-02,5.531730162026617277e-03
1.119882747210157632e-02,9.992840633579599605e-03,-1.360894456481206993e-02
-1.469811387142251321e-03,-3.521652638500920307e-02,1.078913494736985154e-02
-3.803742251403161717e-02,-4.468048047556144597e-02,3.007092212825179106e-02
-4.085568944302502697e-02,-3.452610093782801370e-02,4.455160240932606180e-02
-2.121516350210229593e-02,3.299330793494870129e-02,7.871724371835894796e-02
5.585919834112188127e-03,-1.872131209163414162e-02,-3.801476493361828635e-02
-5.104555319109941799e-03,-4.586792852498706996e-02,2.079969217505113141e-02
3.273847679376087200e-02,-1.232345749529848485e-03,5.388389674733603391e-02
-2.982371063677374118e-02,-1.993673239360257976e-02,-1.691937479050904455e-02
-6.376505366022743038e-02,3.055750623859352852e-02,-5.616306745949922220e-03
-4.296422305988566864e-02,-1.742889789865288697e-02,-2.951341349142522913e-02
-2.400006059081821741e-02,5.288126655556628364e-02,-4.159648471374576689e-02
5.919668024798172695e-02,5.168026302972355580e-03,-4.817208911211599137e-02
2.912163503928083541e-02,6.979017018244032533e-02,5.469506868373336800e-02
2.118193713972027145e-02,8.798818397978230843e-02,-1.569587916543587966e-02
-2.409981523254237578e-04,-8.398537569822814991e-03,4.402167727993906710e-02
7.677227610116847678e-03,1.277995379128441800e-01,3.845240243214369247e-02
3.108810832418413758e-02,4.399845775025255923e-02,1.152697898516519270e-02
-2.381081110538888976e-02,1.462704598228232143e-02,1.155916197926212287e-02
-6.934369298198283897e-03,-3.314798040757048481e-02,-4.562818741875470513e-02
1.833798415262203078e-03,-3.315110903150800953e-02,6.992377380072087312e-02
5.632964766421021119e-02,7.913535514039983509e-03,-1.274240841544022930e-02
-2.336596369941916496e-02,5.772882384127700148e-03,-1.294839198447166051e-02
9.687110561039552134e-03,-3.031883347791930125e-02,8.856847365229051370e-04
-3.955063480126836707e-03,7.176254239343353436e-02,9.199741779671936903e-02
2.749421122088377065e-02,6.667236220180566830e-02,3.300275993432220684e-03
8.711100920893187494e-02,-3.095382647747050783e-02,-1.416780636208766521e-02
-2.628190748951246200e-02,5.961658310955724599e-02,-3.270684636278403667e-02
-1.751020424535462347e-02,5.077151644304633317e-03,-8.065886925439623434e-02
-2.186635655629285205e-02,9.123042202705301806e-03,-2.765904973111517340e-02
1.043992688169393356e-02,-1.926318438289515572e-02,2.538627766346610026e-02
1.098355479974437443e-01,7.654579106692845428e-03,-2.547353250577328448e-02
-1.457953163432014400e-04,5.372664345173899098e-02,3.489719631073486678e-02
-5.988464653394631743e-02,2.008185901434203155e-02,6.143765743461469505e-04
-4.922453848389280601e-02,-1.479883603864037313e-02,4.954381257609319356e-02
1.143349603601264905e-02,-8.346149121683096861e-02,-2.218732492655734259e-02
4.341546783312100026e-03,1.844149035522830776e-03,1.471470579487095141e-03
1.099877213076070996e-02,-1.261779603482534283e-02,4.837644439681286490e-02
1.885531235430226715e-02,2.268152202464916722e-02,1.827062920365489854e-02
-2.486370326208152751e-02,1.207879112300383820e-02,-1.169908266439398555e-02
-5.021796863831188423e-02,-9.542505288346624093e-03,2.814211537769597052e-02
-7.825985592977505179e-02,1.471271730274481895e-02,8.479041444952153950e-02
1.135083518203556553e-02,2.148825419774617190e-02,-5.503256423194718971e-02
2.128123995027138282e-02,-9.416648617961632288e-04,2.984506794769590729e-02
-3.592501148182272730e-02,-7.722520837749338729e-03,1.211058550125498727e-02
-1.233098740827667621e-03,3.691928973782456630e-02,-1.846442828618929249e-02
-6.794017110017770700e-02,-1.383519794620173028e-02,-2.526345540398718809e-02
5.570729633077199650e-02,-2.067061856554859578e-02,8.108546600728377962e-03
6.353733110829780373e-02,8.323346691812965117e-03,1.635982720617813052e-02
8.183563331148935999e-03,-4.782122217608473363e-02,4.652027339088846830e-02
-1.961773267887473998e-02,-7.059732934760541700e-02,4.460153563185805664e-02
6.214345753465058686e-02,4.375399736712017431e-04,-1.006673658719982600e-01
-3.722277788359189266e-02,-2.600596655027664211e-02,5.953659218450005515e-03
1.769168648657266918e-02,4.541478969279651168e-02,2.509515549184355293e-02
-4.982845276669786716e-02,-4.010575295953790892e-02,-1.417947006859866105e-02
-6.748118470579653194e-02,-5.546390358601806930e-02,8.116087846449575316e-02
5.919784262734926333e-02,3.718837375934212763e-02,-1.536304534962699697e-01
7.186692647527562205e-02,5.523201817989606410e-02,-8.255877883234225001e-02
-2.626541448463540554e-02,-4.964508255260443453e-02,-7.042616588387534682e-02
3.230082168186079045e-02,-1.414999929436644432e-02,-2.531121473677791153e-02
4.246383561273401469e-02,2.716320324180904536e-02,-4.506895314616255616e-02
7.248295185120434692e-02,-4.036209865603589825e-02,5.248246590519096283e-02
-4.374745536053920719e-02,-9.856756728376608531e-03,-1.278146673830615754e-02
1.332532519302175034e-01,3.478358317853028764e-02,1.438264967950792297e-02
-5.013815245761241678e-03,1.088571659489423471e-02,5.701602974187249678e-02
-7.820108194990089273e-03,7.513325885439930962e-02,-5.068851224161059071e-02
6.316138242687490550e-03,1.013758895214772471e-02,4.628770058050230007e-02
-8.236811562256211861e-02,-4.543368052252495098e-02,1.355654240397935820e-02
-4.731495715845723121e-02,2.522824782797277593e-02,3.090126605209017954e-02
-2.893360551438362710e-02,-1.791682749991169860e-02,3.206377375828532716e-02
1.543561084899175428e-02,-6.609551918379996671e-02,2.965032240176627976e-02
-4.343151000482058793e-02,1.072974649186254903e-02,2.309097486127166185e-02
5.789164230211935047e-02,1.199812415940983146e-01,-4.359565249382095498e-02
2.635606984399142816e-02,2.551478974368506444e-02,6.458809918056191215e-03
-4.710547290313762958e-02,-2.510522727331830455e-03,4.467940854502393949e-02
5.997197805670310966e-02,-2.345083617147301555e-02,-2.144024982780890279e-02
7.876449918001839079e-02,8.116686181740077888e-02,1.552586685719096637e+00
3.670837805480373084e-02,7.271311958553849930e-03,2.915021780054287692e+00
7.588599757845019937e-03,6.332472912532896049e-03,4.094668475517302397e+00
5.833315527065976308e-02,4.531209483013730333e-02,5.204547023135202011e+00
6.218704147812831318e-02,-9.883753929627083976e-03,6.183485005216217800e+00
-3.894849155791631906e-02,7.709300393364609642e-03,7.041211364464376565e+00
-7.317292259434090076e-03,-4.631084880746095395e-02,7.800476229185814070e+00
3.926502629862092288e-03,2.063512431088822263e-02,8.496155387708206774e+00
-2.901908664719076922e-02,-7.304871724100010094e-03,9.262567500159395451e+00
-2.663726631130310801e-02,3.663855863205232183e-02,9.805178317989565073e+00
-1.282614599065677824e-04,-2.528383622187949445e-02,1.028246140524531960e+01
-1.662321681507834478e-02,-5.563869041258337478e-02,1.076396986766413377e+01
5.052903468007920174e-02,3.855859662956259010e-02,1.116600732337842317e+01
5.073219881591528591e-02,-1.215722960998363812e-03,1.157879111144769091e+01
-1.120647097246295527e-02,2.780276125428422437e-02,1.187276563030077625e+01
6.030416293555729279e-02,-6.515034931455403189e-02,1.229616212269535147e+01
-6.832468354553694612e-02,-2.383978684281244653e-02,1.245834916426841055e+01
7.721221039389154599e-03,1.021249804242343670e-02,1.275244042684357915e+01
1.450132683442173758e-03,-7.152933324683157304e-03,1.306309951121928492e+01
-5.030730138612014152e-02,2.789433497410104008e-03,1.320391662853973536e+01
-3.942976680643842102e-02,8.261020455102820875e-03,1.331596751298437020e+01
1.590004741177828557e-02,4.714928209572837731e-02,1.351222430522973639e+01
-1.995785273105597085e-02,6.755469183336948458e-02,1.364702083288572076e+01
5.117232080963293739e-02,-7.058288428275412418e-02,1.375122900322798358e+01
2.977542522697678579e-02,-3.662143818867623357e-02,1.396023052919770713e+01
-1.536147601121665152e-02,-1.698332510831643619e-02,1.406382587699141062e+01
6.742744829232104331e-02,-5.959055354566116652e-02,1.413680212659328284e+01
7.246957255638719446e-03,-1.686867148242982006e-02,1.427211644376984445e+01
-2.659181846055786586e-02,4.080948846800509788e-02,1.434463072921585258e+01
5.131017813718151410e-02,-1.867534544123947496e-02,1.436870070586578585e+01
-5.936278074335511051e-02,-7.252842746773245641e-02,1.440267907360956734e+01
-2.383186127897349987e-02,-1.832958434229572595e-02,1.449775271437100521e+01
8.251613207428482033e-03,-2.972667281543224169e-02,1.461575988445311758e+01
-4.434875063358088149e-02,-2.691430477599885719e-03,1.461771063594095921e+01
3.587552120210776851e-02,4.422480421621746705e-02,1.456187470138804230e+01
-1.045251733393886759e-02,7.872204331370398489e-02,1.462830374967084168e+01
-3.301485117883641573e-02,5.477135991425228535e-03,1.467526486549627762e+01
-1.198106037999384886e-03,7.557392539625503586e-03,1.473591029619322335e+01
7.266380276071069885e-03,4.861499831353559807e-03,1.473155600364897566e+01
-2.811677266631310013e-02,3.143404875862308018e-02,1.478306415153809006e+01
-6.516725670330444919e-02,-1.957316171751616665e-02,1.481295275710344228e+01
-5.978585220546601270e-02,-1.066260774196631581e-02,1.484603362169816698e+01
-5.025470885123465431e-02,2.083906067037229540e-02,1.490158341033612821e+01
2.132259206638875346e-03,-4.908395795851905503e-03,1.487655867223650041e+01
-1.462580034493254737e-02,5.454399727942901149e-02,1.490741412984628411e+01
1.236105768877549319e-02,1.495520194478956559e-02,1.486251263946257417e+01
-3.709673798318002813e-02,7.338761325510524680e-02,1.481709916987266773e+01
3.601156059172956614e-02,-2.638113856799165560e-02,1.491262253201391275e+01
-1.089799809847107580e-02,-2.782341227429510622e-02,1.485268180226045942e+01
2.673847478131747071e-02,-1.968003141730079869e-02,1.490277171695810843e+01
6.573912959361124728e-03,-2.445348495845457021e-02,1.495220344081868724e+01
1.030868309003923032e-02,-6.716796242143951989e-02,1.495996936875219951e+01
-7.473755497523069946e-02,2.512313426168542169e-02,1.495415681372753447e+01
1.109074786872136544e-02,-1.184310832471170694e-02,1.500099523994475170e+01
5.610654095778742911e-02,-5.593418759483587827e-02,1.492238713422682750e+01
4.416310060994024789e-02,5.639109580339891209e-02,1.498046204033241224e+01
-8.221790092172412412e-02,2.741829966696471450e-03,1.499969977939614196e+01
-7.460778946768009852e-03,-2.363929132365677824e-02,1.493686036807194029e+01
-1.732162504590121013e-02,-1.278506269342137135e-03,1.496220143786720769e+01
3.282290384634547337e-02,-7.623479022351276058e-02,1.497662857029094141e+01
-1.926263978126478010e-02,-9.452180505807707134e-02,1.494713573601802992e+01
-6.053677628627052165e-02,5.876901889158411742e-05,1.493183077842989448e+01
-6.576867668737862438e-02,3.189186624159672662e-02,1.505733604148929139e+01
3.638204031047233972e-02,1.569279556054800975e-02,1.497632919719751854e+01
-5.981320132308708126e-02,-1.580903617194601846e-02,1.498651721532547576e+01
2.579902709697901812e-03,-6.820780411350460884e-03,1.495418143035626812e+01
2.600158739567533933e-02,-8.742504131221343067e-02,1.494858816075951857e+01
5.803197905712871585e-02,7.568253800450923385e-02,1.504121741416968661e+01
4.812421935231243897e-02,5.526174990006658960e-02,1.500172822452557675e+01
-1.056082829746156880e-02,4.876566058309953801e-03,1.503382033047624589e+01
2.377875834575435277e-02,1.678058072543364395e-03,1.496477041323979940e+01
-3.759058235635197309e-02,1.281244916551688429e-01,1.497419501073507675e+01
-5.658430688165407355e-03,-3.797653874348239089e-02,1.492260526567813805e+01
4.281453978376648789e-02,-1.777771877090341193e-02,1.503163171755796590e+01
-7.333768879824148490e-02,7.192827331485822026e-03,1.497128792912924666e+01
-7.770976325771134646e-03,-1.173311591603272939e-02,1.494799777858214895e+01
3.242243523252334725e-02,-1.285279585632065694e-03,1.498410448316650978e+01
-1.474874552001690341e-02,5.427754561361389923e-02,1.505869545246120289e+01
-2.088313919320912079e-02,2.075792933486682659e-02,1.500553742772255283e+01
9.220838878372274172e-02,-3.472652479861122743e-02,1.499242545958244399e+01
-1.037401870229478617e-03,-1.684745356158971752e-02,1.494346676086957970e+01
2.502440470634818837e-02,2.833817703291508124e-03,1.500149176366254444e+01
3.896764874779173188e-02,2.558468780610626686e-02,1.497115404809405348e+01
3.614871746547821535e-02,-3.804054629683971400e-02,1.496542906862049804e+01
9.768417572082993550e-02,1.031953133808156432e-02,1.508783169603027829e+01
-1.880608964311922607e-02,7.292772551960685049e-05,1.503864727808903368e+01
-3.638174820641324088e-03,-2.021643200097763063e-02,1.499858567740614035e+01
-2.627608891093082336e-02,-7.852420000057860547e-03,1.495520868160071792e+01
3.102030567117017301e-02,-1.258101548743955841e-02,1.497821599551425109e+01
-8.838743380044500331e-02,-8.267520239491098211e-02,1.496757969857738502e+01
5.550529400357531729e-02,5.439064749393806956e-03,1.495842924595424783e+01
-7.286478213924953151e-03,-2.995134330622022806e-02,1.502783810946083776e+01
-6.994101638297576216e-03,7.714064525404304429e-02,1.501620795285234600e+01
3.943648118544992864e-02,-5.347812574699184474e-03,1.498111856610014314e+01
3.404194923110636511e-02,-4.079558022465536865e-02,1.501728654070220692e+01
-1.826246923126223845e-02,5.787547674551353667e-03,1.496275797129436924e+01
-6.495790821646447999e-02,2.207075770373713094e-02,1.493765343922665600e+01
4.363582254979781611e-02,1.047676480775658198e-01,1.498761707533675391e+01
5.734378400437928347e-02,-3.926716928867158424e-02,1.485765448365606289e+01
-1.077483768617656240e-01,1.347428283649347927e-02,1.500842717621677380e+01
-1.478580763377184033e-02,-2.565901051070645575e-02,1.506960017930578033e+01
-6.393943252752509916e-03,-4.673489653367210450e-02,1.498839894020566277e+01
-3.013950235649322934e-02,9.656587220346323983e-03,1.497729550658366193e+01
-1.564970187691389070e-02,-1.751944243133350676e-02,1.499945044696561069e+01
-1.278002654461840235e-02,-5.343106352994081432e-02,1.496845709366732891e+01
2.623072627375582291e-02,-3.462901778609261266e-02,1.495138146701097526e+01
-1.292199821476069377e-01,1.954225069739614490e-02,1.503095335538541910e+01
-8.289401542316844271e-03,2.518198086518151635e-02,1.508323274187439189e+01
-8.094548285909925964e-03,1.967276575327935040e-02,1.498853564549234640e+01
4.550647519424093346e-02,-1.276882563625813746e-02,1.502071996452330183e+01
3.440770794598302634e-03,-2.976636894091733501e-02,1.504029942135310804e+01
1.009777172486789852e-02,-4.607042605938425212e-02,1.502468255494717120e+01
-2.689477224445990799e-02,-3.870593758397259526e-02,1.503857771180016023e+01
-2.176412433051943748e-02,-5.100836628793289224e-02,1.507730642034071700e+01
-2.074410821360371179e-02,-1.868608470254772697e-02,1.502746803787290730e+01
1.796389672695220333e-02,1.571828077685958128e-02,1.502431893759852422e+01
-1.894809869238277614e-02,-6.381947994144399061e-02,1.501195999222785638e+01
-6.965556499347252961e-02,-4.885556158564687002e-02,1.506507536589092666e+01
-1.732933626911668801e-02,5.704522154418923546e-02,1.503090902257670969e+01
-5.940004071508759448e-02,-1.008652501544666236e-01,1.497922611679018701e+01
-3.912296965260087661e-02,7.120362226434612252e-02,1.498787777239865981e+01
1.102602578393260813e-01,2.220821779382542785e-02,1.500505917492783148e+01
-2.054605093455753699e-03,-4.647016466522983086e-02,1.503607685590863419e+01
2.416482504955743543e-02,-1.663421965935925687e-02,1.505072893512910426e+01
7.231961718212422119e-02,-2.737448547768766768e-02,1.507763154433579622e+01
-1.431518657580289379e-02,2.849441700368179203e-02,1.503226686344989282e+01
1.487373499285353506e-02,4.263741985087753095e-02,1.498500878705013761e+01
-4.620378164322861553e-02,2.214620886891582787e-03,1.498204792017659770e+01
-1.703822110234865309e-02,-2.512247621105625009e-02,1.508713776050253941e+01
-1.557816848142394572e-02,-2.136835215551872481e-03,1.497927776929299348e+01
5.715368926354481155e-03,-1.960342884610118130e-02,1.495961279198328064e+01
-2.331163202108442814e-02,-8.046526142824159426e-04,1.501504361112347752e+01
-1.027566443321468598e-01,-1.693150799582987531e-02,1.497495775869191803e+01
2.286790268779750196e-02,-1.762457334639541164e-03,1.501815989017229036e+01
-2.463391835125476256e-02,2.276467073704794425e-02,1.496321653389419559e+01
8.923907695587757552e-03,-4.781495839359487660e-02,1.491210244282643238e+01
3.016354008999308500e-02,-6.369586522012829488e-02,1.504503045934845495e+01
7.816314078536339138e-02,4.144583167593451911e-02,1.492599100736231321e+01
-3.020060485153912982e-02,1.853341058016931206e-02,1.499317622167773756e+01
-3.622766289823910885e-02,4.950688095043670597e-04,1.501692574988332929e+01
-5.382729613330951290e-02,-1.289143021231954969e-02,1.503733984628131459e+01
1.786292296412554659e-02,9.318743158538808635e-02,1.503273125787023012e+01
1.386028178010127905e-02,6.512861528939649369e-02,1.498462679551640342e+01
3.748270417934424208e-03,-1.131368261336987424e-02,1.497371028595078535e+01
-3.453648033093145719e-02,-2.537391159725917514e-02,1.496752840455618738e+01
-5.511349914578234088e-02,7.654030906265976808e-06,1.508707504117088583e+01
-9.150921482253550690e-03,-2.144829329765637893e-02,1.492787423620674048e+01
4.821249580703557830e-02,5.095292052199216354e-02,1.496316148540596025e+01
2.090275627601389033e-02,8.219904292692034598e-02,1.503398087416735329e+01
-5.405972007237246600e-03,6.220323059121310103e-03,1.489408095329468473e+01
3.892741514667522051e-02,-3.042875588917557522e-02,1.494434545164251205e+01
2.649164163138340022e-02,-3.817042242002726543e-02,1.508172797196689707e+01
-8.472514778139095259e-03,1.376136675737195045e-02,1.506800936648964573e+01
-4.693716490431023430e-02,3.706801076626793645e-02,1.500528272911217798e+01
1.039502877531756596e-02,5.083058068736366099e-03,1.497063201031564894e+01
-8.407875340477530268e-02,-8.814189021833830628e-02,1.498135160145837119e+01
1.969480066370890570e-02,-3.712302093793033025e-02,1.504135925374783689e+01
2.348534230956046340e-02,-1.630846412653762928e-02,1.499158160370805071e+01
-1.869446026102301178e-02,2.431457448542450293e-03,1.502815995851239883e+01
3.392876074979717105e-02,-4.234669034534362282e-03,1.495778209974684536e+01
1.511041533888999450e-02,6.047169505356819047e-02,1.499594970871097210e+01
-1.604893174237632947e-02,8.917250121145633285e-03,1.500017033058151661e+01
9.496397190489719656e-03,-4.713931849847841776e-02,1.500637746681629281e+01
-1.104411874687547673e-02,4.401197095012802929e-02,1.501989508668592421e+01
3.126127591871316613e-02,-6.016041125570738279e-02,1.498859421804119840e+01
-2.959346921228217259e-03,8.370795883076701709e-04,1.500465609478208684e+01
-5.407872826730318085e-03,1.251854928228083967e-02,1.498093330215944619e+01
2.671011585555870677e-02,-2.548992559667129926e-02,1.499410537876149441e+01
-4.205732323591424709e-02,7.984204895667233043e-03,1.501376332859349283e+01
6.925935985071408375e-03,3.703976125625474403e-02,1.503293328287515074e+01
-1.663898819050374858e-03,6.216489512929981170e-02,1.515954920461429012e+01
-8.473861724234028892e-02,-7.572607624659279460e-03,1.498990243110256593e+01
1.759176255850359444e-02,2.063611217305731313e-02,1.503722246788465178e+01
-1.438488608321117010e-02,2.516961639247931176e-02,1.504205121835913594e+01
-4.197989934560727998e-02,-2.428588896567877853e-04,1.497400597205663964e+01
4.807055967581892741e-02,1.510929934336385089e-02,1.506364634912905132e+01
6.430344695757982121e-02,-4.403040731185371010e-02,1.508645175460172361e+01
-6.121824189000741462e-02,2.568182676489002073e-02,1.503503027529615821e+01
-1.884236481841211619e-02,4.321800698608339181e-02,1.497525297420941826e+01
2.870167413493005665e-02,1.230711016793716202e-02,1.499585068236910246e+01
-3.880292051831283479e-02,2.435522323078996923e-02,1.500589764951755534e+01
5.421464758615374829e-02,6.897273090317931898e-02,1.496464010218704566e+01
-3.156687568467359591e-03,6.561247048198442719e-03,1.498196708531508925e+01
-1.317670617735875209e-03,3.441378713804482247e-03,1.499777490882854991e+01
-2.988807550365140189e-02,1.169959795120410415e-02,1.500888284834845798e+01
5.987598878466720426e-02,-2.443122282197352987e-02,1.500017661627032872e+01
2.721152015771552760e-02,6.900229370005110663e-02,1.508536843413448203e+01
-3.226205211050532737e-03,2.617366526258028958e-02,1.504386705143111946e+01
-4.867830679763224082e-03,-3.360185429160957721e-02,1.498738215263659690e+01
-1.415906006942999583e-02,3.456904624051269914e-02,1.501260888066500598e+01
1.070301688427064829e-01,-1.261903835155469764e-02,1.496057315614783967e+01
2.367072407113567437e-02,4.289510644493841479e-02,1.501672172167006458e+01
-2.287734244647832496e-02,-5.279957757574415579e-03,1.496689657034423959e+01
-5.413465863891087776e-02,-5.644852865120857446e-03,1.504235116846111531e+01
1.030978913063487767e-03,7.567369869072675115e-02,1.505245459879483505e+01
-5.105659872401634852e-02,4.465022686775182992e-02,1.503388156568889400e+01
-8.412474879841631836e-02,-2.149042587969569179e-02,1.496400872207554045e+01
-5.279884227876997099e-03,-2.872458908971356473e-02,1.496075378823473478e+01
-1.457218483391754457e-02,-2.521722902320212845e-02,1.506574950544633751e+01
-1.277052133852533966e-02,2.823325962024396049e-02,1.506123094555481678e+01
8.010528159477529886e-02,1.790884152312240477e-02,1.498832373621535474e+01
-9.411711992890490000e-03,2.850604220614390977e-02,1.504379946296213255e+01
-7.368329221248773320e-02,4.276019430508903180e-02,1.501650768013959336e+01
7.152978354498811323e-03,-5.263393997880408404e-02,1.506371621410915651e+01
-7.778664170893140328e-02,-1.049700745072733657e-02,1.501970145996589068e+01
1.729179663484306170e-02,-1.301673030048531091e-02,1.495455444558316671e+01
-3.749209674411693727e-02,-7.898799210364827739e-03,1.503922473659276626e+01
2.440506335296101920e-02,2.720597478368633540e-02,1.497942218715270712e+01
-5.420333482857942614e-02,-3.771229929309938278e-02,1.511255784566877658e+01
5.422979071406449497e-02,-7.766311868517493389e-02,1.506306558341534441e+01
-1.152845422518855578e-02,-4.414303373790410406e-02,1.504011569332052645e+01
3.179280282715644945e-02,1.079053473339085419e-02,1.502449990814979053e+01
3.765912349612423162e-04,-5.476474427113436211e-02,1.504056489482009518e+01
1.298736958210609978e-02,-5.709421664296321364e-02,1.493268866214931911e+01
-1.201898459054988148e-02,-7.907858113438319750e-03,1.497434006039351040e+01
2.603337611106896349e-02,2.769509274576234178e-02,1.510642415879806499e+01
3.269944203353479517e-02,-4.308903634390135601e-02,1.496645264489005989e+01
3.589700365372773538e-02,-4.360419485313912769e-02,1.494862546596436559e+01
1.917564882022573108e-02,2.898907325441734892e-02,1.501505890424437872e+01
-2.041168905400742722e-02,-1.635311066944977743e-02,1.497988055912469108e+01
-1.387336008194510299e-02,1.333406116415172295e-02,1.501567790707067118e+01
-2.797825480799535566e-02,7.801495896927145707e-03,1.496845679469461032e+01
-4.769914929402545301e-02,-4.520688212901406017e-02,1.495205387787054541e+01
1.839144486238307452e-02,-4.212248543805351131e-02,1.507221552395330377e+01
9.594066472629235931e-04,4.821157354305815462e-02,1.494221863872284040e+01
-9.823677042708289439e-03,6.310204236545145784e-02,1.503228364317499910e+01
2.096180830399525102e-02,3.364635379338525023e-02,1.499415231493432721e+01
-9.630909445116618908e-03,3.979169541033261009e-02,1.496986830432555848e+01
8.035744232601078896e-02,-1.697165508638372178e-02,1.504420891323463572e+01
-6.732012696430614285e-02,-7.495712596627188140e-02,1.501838027511855422e+01
-3.326454090559908400e-02,1.141143883100895762e-01,1.510377304851301439e+01
-6.581204359474472979e-03,8.436084259153103435e-03,1.498565760494785160e+01
-3.557170604513623657e-02,-2.635724641287880490e-02,1.491778461838746495e+01
3.656514641234462348e-02,-1.648589661376794260e-03,1.500279876217371999e+01
-3.483181699869479335e-03,-2.848578551524689681e-02,1.498728842996110977e+01
4.846126323724350357e-03,-5.656225751087557568e-02,1.498824669449284919e+01
2.976570760186942818e-02,-4.642458322871498115e-03,1.491727996130672551e+01
3.479426501993231145e-03,-1.685908823456045216e-02,1.498431691968598045e+01
5.915994084314785822e-02,-3.366553617831050810e-02,1.493512925938101255e+01
2.483445787217325451e-02,-4.290663294290216617e-02,1.510657898051799997e+01
4.768410554399414580e-02,-6.738265565663029144e-02,1.500797158470144588e+01
-1.015631168798777559e-02,3.714100056280270068e-02,1.500433658380387136e+01
-5.019136258122197658e-02,-3.987367298564496038e-02,1.502080300294617210e+01
6.301040290399369422e-03,-8.942485302506265887e-02,1.502649209327065627e+01
2.665003950195648022e-02,-7.015872758741874271e-02,1.504469687767468145e+01
3.632134467007699236e-02,-4.020897005533266566e-02,1.504250891122680045e+01
4.986793729044952661e-03,-2.700423692428784508e-02,1.504504519910009819e+01
2.021710241974751868e-02,-1.788065426209953322e-03,1.504550645919289664e+01
8.144836462425442472e-03,6.309915296472765056e-02,1.498941044372562459e+01
4.475352179372317496e-02,-1.619299780938087199e-02,1.498159394741129802e+01
-7.837616948572868197e-03,-4.449569605017946773e-03,1.495693822818775054e+01
-4.569653466560241739e-02,-8.957644942452955283e-02,1.496579702785048660e+01
4.442942923845227821e-02,1.113465136038183437e-03,1.505193249795335397e+01
8.679780857774078984e-02,5.169321042208839534e-02,1.499899927175381187e+01
-9.792747524831073649e-03,1.094535419114234104e-01,1.505833514160324604e+01
2.154884456203446166e-02,-3.129115285282503545e-02,1.499263464671635049e+01
-1.082948548291330984e-02,4.478564056988198344e-02,1.505070375702625363e+01
-5.133768664877789295e-02,-2.438051550078941272e-03,1.507446296095092286e+01
-2.650661934533432226e-02,-3.302761078212652912e-02,1.498957555788282825e+01
-2.366860883212632341e-02,2.118729304712412692e-02,1.497124379767668145e+01
-7.197589678713200122e-04,4.927809461317674694e-02,1.503138072584097884e+01
5.962428373394542541e-02,-1.868519814929152367e-02,1.500105637166469918e+01
-3.801094299743380811e-02,-2.918258716057873028e-02,1.499555675793951082e+01
1.663430629928810620e-02,-1.712787106524325809e-02,1.500384304025050142e+01
-2.811913832432350741e-02,2.379798373735407188e-02,1.494114456999448493e+01
2.100780022794540222e-02,-2.389090105132170294e-02,1.502716721499186825e+01
-5.238630411476537241e-02,-1.012983159405041780e-04,1.500158557214847477e+01
-3.694097676538195610e-03,-7.819266390625934440e-03,1.503046544911553184e+01
-2.419937696193992255e-03,-3.224296925521020346e-02,1.502749096717525035e+01
-5.822226374112914743e-02,-3.584967665575700124e-02,1.506739718576507059e+01
-3.272841889313831548e-02,1.064526084935743522e-02,1.497142149435723013e+01
-8.796595762267864216e-03,-1.765999561581260702e-02,1.497195853480364924e+01
-3.311860607951293278e-02,-1.410458635634411623e-02,1.495291814467521085e+01
6.108978591729756491e-02,-4.275360727566955565e-02,1.502100091768248546e+01
-6.252304001345906914e-02,3.674394317324091580e-02,1.498758356591710239e+01
-4.035028499028735227e-02,-3.354571143071778672e-02,1.498922325722597293e+01
3.540776016329951620e-02,2.006619783364124374e-02,1.495266074313077276e+01
3.207688602322728011e-02,5.495294755042213347e-02,1.497795727263316934e+01
1.607536145837014027e-02,1.369119962774439925e-02,1.500111654714931397e+01
-1.680687535896058932e-02,7.830658055963456848e-03,1.498747856024885650e+01
8.409763948344195494e-03,3.753201272062337696e-02,1.499591515145570852e+01
-1.548487407263273406e-02,-4.722504143970700924e-02,1.491705057252476152e+01
1.321154935718725325e-02,-3.972530443019735291e-02,1.500184444899402969e+01
2.937167716678742643e-02,-3.939471840895733545e-02,1.485017542731850071e+01
1.710747207951126073e-02,1.178030232614938992e-02,1.504592224862702210e+01
5.183949870102227270e-02,2.373888237507044974e-02,1.497644198898923307e+01
-3.654060912848426396e-03,-1.250917588578787445e-02,1.499975451871436682e+01
-3.070784669800324593e-02,1.958500924542515634e-02,1.493574348223201653e+01
4.970452425962399584e-02,1.690404306373816806e-02,1.498721034045091294e+01
7.028635970726249474e-03,-1.542067630960095373e-02,1.497950756122310700e+01
-5.454176910049741978e-03,1.076638865203220496e-01,1.496093139638521663e+01
8.059499059872236859e-02,2.258046255564862340e-02,1.500541706755857518e+01
-4.475439964837996804e-02,-1.629926672537043014e-02,1.502312483409564337e+01
7.056636670882937556e-02,2.071282064245895047e-02,1.498724113418577986e+01
-7.866662247200740740e-03,-1.733970574756185309e-02,1.497283182489241504e+01
6.149998411728772874e-02,2.221026964442096140e-03,1.502471441773399974e+01
-1.228606506916658271e-02,2.649295272199428397e-02,1.505852743771416691e+01
2.206811764950693255e-02,2.897083590181925850e-02,1.500404996777442435e+01
-4.327737190021854752e-02,1.709969572099033150e-02,1.497496048037681504e+01
1.054808558766377052e-01,2.129397674018931874e-02,1.498889777419530134e+01
1.725039020240462864e-02,6.231264657871221635e-02,1.497127648616154438e+01
1.415353466320783474e-03,1.599835293623414617e-02,1.500156970431224579e+01
-1.258323975849204301e-02,-1.465470110201958463e-02,1.506084128169551306e+01
-6.239424041638427440e-03,-3.121098911083871816e-02,1.501358088722758310e+01
-2.809135580385854064e-02,-1.630327311519527006e-02,1.504136448081203525e+01
1.226487044027180229e-02,-1.387713845479137363e-02,1.503103736758925280e+01
-5.758067308700431236e-02,-1.069836173482703427e-02,1.504007074929101506e+01
2.307482498081587716e-02,1.245049125660718401e-03,1.495624855602240366e+01
7.360543928745712228e-02,2.004250533863775191e-03,1.503507974146048731e+01
2.914904351695996737e-02,4.882290461223233458e-02,1.493384090037181622e+01
4.239254384834846199e-04,-3.724234942053329667e-02,1.500006429634916572e+01
1.348481182427432694e-02,-7.262692969781467389e-02,1.492707922011098631e+01
1.423829921643227428e-02,-7.316090132164035365e-02,1.493942171131014263e+01
1.814809245639328189e-02,-5.191219260755040345e-03,1.500062090534855841e+01
-8.770727753609613986e-02,2.069106436231166538e-02,1.499855272928929217e+01
-2.368821290164344756e-02,-6.783641793671892073e-02,1.496346347168012159e+01
-1.517824923776050182e-02,-3.829893957557019973e-02,1.496828961545481107e+01
-1.420950665399733394e-02,5.950223880774587609e-02,1.494330682097735874e+01
4.782881874626201263e-02,5.856072754203499320e-02,1.501125273846927932e+01
-2.986299485312360596e-03,-3.852742581664580362e-02,1.506300937174978749e+01
6.306057420821960247e-02,4.761474454061127154e-02,1.498291216422251892e+01
-7.020989730082244362e-02,2.833844886390789186e-02,1.501632043302498865e+01
3.928173669812672075e-02,5.248951959013333640e-02,1.494270259967096770e+01
3.562688199591580729e-02,2.423352771143555753e-02,1.495803056002866072e+01
2.346538971991657049e-02,-3.662415958667395582e-02,1.500839739515939542e+01
4.152959359826876966e-03,-1.346752528359020790e-02,1.501494394068846816e+01
1.348428349380193306e-02,4.041513208618788960e-02,1.507522858064674942e+01
-1.504480166428589540e-02,4.258407862882645362e-02,1.501746886774120959e+01
-6.435480974962756728e-02,-8.207067282729988908e-03,1.505073368884742102e+01
-3.310357277017576122e-02,3.633633010141528591e-02,1.501694352563631263e+01
-7.017652126511063869e-03,2.739064094178414802e-02,1.508174802736870568e+01
-5.046609090672371511e-02,2.164653111772024685e-02,1.497850934294260661e+01
1.816838273253721867e-02,-5.164871763623153991e-03,1.493992876681446802e+01
6.096544898851991717e-02,1.113831505912902739e-02,1.507888201054804966e+01
1.454420462613151277e-02,-3.303194695990264301e-02,1.501739347720110906e+01
-1.902996617994979003e-02,-2.494451364908079755e-02,1.504870363717119375e+01
-1.722829013319538208e-02,4.161671798680365714e-02,1.498338191474644887e+01
-2.170978396742045610e-02,-5.474910368524018439e-02,1.500866169274992856e+01
-1.258156680645403439e-02,9.787640531041868694e-03,1.497028285898571021e+01
8.228462303420630564e-02,4.631752029366126289e-02,1.499835291513786473e+01
3.596491315269589178e-02,-1.325892507985791495e-02,1.499082247543281454e+01
-4.394693553911479915e-03,7.767288562211513425e-02,1.504729059192535345e+01
-1.540385147988956351e-02,-3.031816329892690967e-02,1.496214306325580168e+01
1.717601905340514212e-02,4.309453059088257793e-02,1.498483189169324881e+01
1.266781031350845124e-03,-2.788134612465011097e-02,1.498357173037507906e+01
-1.758692637966866035e-02,-6.754982869944251012e-02,1.503563441807840384e+01
-3.212304017520376670e-02,4.315386487487317055e-03,1.511646863055456969e+01
-8.607223657642693038e-02,-3.938987164454872680e-02,1.496788597490001393e+01
6.922796780758774804e-02,-1.284417456748591403e-02,1.495372668451908638e+01
-1.948883049058003011e-02,-1.353188570144910063e-02,1.508139287331557377e+01
-7.634858948963612127e-03,6.041945649886441144e-02,1.497070967704530098e+01
-2.015551240412412001e-02,-8.236953056456672306e-02,1.498564505715520312e+01
-2.441067323850508800e-02,-5.608941476070785498e-02,1.506414536826339479e+01
-1.982085120146730856e-02,-4.615498963651025466e-02,1.497076352658800147e+01
-3.363055492479690052e-03,2.971813735917396351e-02,1.499110768434471375e+01
5.049461983428129436e-02,4.598265470054978266e-02,1.501785977797244342e+01
-2.542630809897564181e-02,2.599037570371337189e-02,1.501746036247496896e+01
4.226092776384844651e-02,2.236877984554070178e-02,1.498119399429272569e+01
-1.004878570041852328e-03,-2.729137857743686485e-04,1.496390650694671365e+01
4.676052321922435223e-02,1.103615154711002494e-02,1.503131036044280577e+01
4.569129742975864411e-02,4.865809676161601122e-02,1.502409292326515988e+01
-1.025988624783888137e-01,-3.313653106056832498e-02,1.497665691224851514e+01
1.027520287053558957e-03,-4.356615155234984035e-03,1.499254846866240598e+01
1.482368016244026664e-02,-1.661023109409323628e-02,1.501794476969603132e+01
-3.759258209944855988e-02,-4.359566343619032669e-02,1.502121138136442369e+01
6.084524353869137647e-02,-1.629933238982102586e-02,1.493980933307100400e+01
5.951787785108353379e-02,-3.730201785667418973e-02,1.498049628030249281e+01
-2.183633112065245727e-02,-2.148753211672195518e-02,1.497887217075176025e+01
-4.582047818064846016e-04,-1.059518689011300918e-01,1.498456537952837309e+01
5.850664103145530523e-03,2.975148456136786357e-02,1.506512278598465926e+01
-1.618739983931794663e-02,-6.007356975162597701e-02,1.502433861632822776e+01
1.049316484580860298e-01,-3.655680269645677355e-02,1.499379092252327439e+01
-2.862472166222726835e-02,-6.961791920184491611e-02,1.505144989811628697e+01
-1.914709401463485835e-03,4.815975810835392869e-03,1.506020084798835690e+01
3.308631659826814786e-02,4.572771188877317039e-02,1.498926383825597242e+01
6.412458814343319213e-02,-2.769219259366769229e-02,1.495856157362002570e+01
-3.649132006967306663e-02,1.434705719456048001e-03,1.502116644507086107e+01
1.384072215401131560e-02,2.922768727745770831e-02,1.502009841691067571e+01
3.640051258674019755e-03,2.627666759534845811e-02,1.498525379971637506e+01
5.779341251802127405e-02,-1.987831720999774093e-02,1.500072213436547131e+01
1.963911492505220069e-02,2.674744038543937306e-03,1.497611576419508062e+01
-8.025493345160580536e-03,1.108135734626381451e-02,1.503322975147431784e+01
2.560787352125057544e-03,2.379918323824917539e-02,1.501705961031851189e+01
3.167235931514855718e-02,1.164554167433150787e-02,1.504325709612455597e+01
4.903751725158059238e-02,6.070528155153736422e-02,1.503456864957116146e+01
4.260107181530214948e-02,-1.059128537807753519e-02,1.493623450900290273e+01
-6.892632640011393808e-02,3.280060512764763903e-02,1.507794494055978163e+01
-3.562429803392652000e-02,1.994853749005866955e-02,1.502128834718848260e+01
2.585656497651112572e-03,6.515624034158113212e-03,1.506315128311852369e+01
-5.022651184719897910e-02,1.125354522671043536e-02,1.512537986293366998e+01
3.900346359228099719e-02,1.848063774785321453e-02,1.494920042083415801e+01
2.200183821932139017e-02,1.010068780684018619e-01,1.499742314361576412e+01
-6.024538307076427292e-04,2.201074740484939771e-02,1.493902267707313491e+01
-2.029044421752633498e-02,-1.879378037886752367e-02,1.496323433870083974e+01
-2.625729107334978316e-02,-1.120045146353508157e-03,1.496988480696428070e+01
6.552729057998120388e-02,-7.565626472722916662e-02,1.504953546988139124e+01
7.253538112067553500e-02,-4.398537509988795224e-02,1.491500297959522392e+01
-1.140417812525973060e-02,-3.327256505285609151e-02,1.492004872345818534e+01
-2.086579914697339611e-02,2.654372753507680191e-02,1.508011209465604274e+01
1.008111903098817680e-01,-4.433201785669578510e-02,1.499110836460090468e+01
-1.434813353450888757e-02,-1.579126707977797014e-02,1.497043250374862033e+01
2.890855093952882267e-03,-2.168204374073995008e-02,1.503875436294282686e+01
3.366859857828535807e-02,5.168154302635454694e-02,1.499303550454557410e+01
2.140337661797804547e-02,1.519993319313656110e-02,1.500765079748887842e+01
-4.983652521012800485e-02,-3.238617245599736266e-02,1.504036408737473351e+01
-1.664652420977242621e-03,-1.712616985759727456e-02,1.497276796751813421e+01
1.650324749514465658e-02,-3.980467294276131274e-02,1.501881621820571056e+01
-3.818230571378410099e-02,-4.618184882035626659e-02,1.504355999795046905e+01
-9.196870280834736067e-02,-9.169054119230041211e-02,1.501637133837238025e+01
-6.816390332958313647e-02,-5.353925043860668226e-02,1.502012495567276673e+01
2.896192670732042687e-02,-7.153715575772390256e-02,1.496478143027084151e+01
4.124274604071240247e-02,8.890994162351024271e-03,1.498607407287225612e+01
-4.000727382372172569e-02,-1.286714652185579066e-02,1.492565162645239418e+01
-8.744556265621834107e-03,1.547297295395731916e-02,1.495952430800442201e+01
-8.881812972670341186e-03,1.721052763116230622e-02,1.505281383286588159e+01
4.964956882245639275e-02,-6.102004420218987146e-02,1.501030645954952014e+01
-3.657981975373102157e-02,2.977157744628250446e-02,1.501521870320402918e+01
2.759239682656018308e-02,-8.311688386946531476e-03,1.502775331066134790e+01
9.163010245362524647e-03,-4.111884916221505981e-02,1.500211109956144462e+01
-3.639202443242021967e-02,4.612395343570151185e-02,1.506712119489583657e+01
-3.447400107377581596e-02,-1.736793638104399198e-02,1.506166350540787668e+01
3.554925199758758592e-02,3.814697253634947993e-02,1.501862940600124219e+01
-3.987486740805256530e-02,6.633973682834495844e-02,1.508022760078841884e+01
-1.250665608692804603e-02,-7.134399771188737471e-03,1.500179804613587820e+01
4.415617656616182413e-02,4.777510828114134994e-02,1.496572788269811305e+01
-2.373406245251222235e-02,-9.884505432469789174e-03,1.502738282950221205e+01
-2.011559258655132645e-02,-2.754338947827348477e-02,1.504932381322318591e+01
-1.417184843665513470e-02,-4.187505419654738437e-02,1.499578716613322449e+01
-4.847602238542467190e-02,2.775290725213139242e-02,1.505388000615118749e+01
-2.455476273413031985e-02,2.547614505285052816e-02,1.505363021709259108e+01
-1.829783317463933717e-02,-1.049749624313587593e-01,1.492627803792175278e+01
1.485399539359359526e-02,3.804314877468448208e-02,1.504667727222005169e+01
5.974952992675099800e-02,-7.067832178447153169e-02,1.495056859775981017e+01
-5.138752109387238753e-02,-2.404839914913607657e-02,1.498127576736021105e+01
-5.584833033658619106e-02,-3.276026601110730574e-02,1.497295601694000311e+01
-1.082986706589167542e-01,1.711509335969785273e-02,1.499346516412770036e+01
-7.330723475410558070e-03,-2.789179721537615037e-02,1.503025088506125861e+01
-2.145644698566938498e-04,-3.801245855621823017e-02,1.505750787378653754e+01
1.180451377913071809e-01,-7.790040621794232234e-02,1.498568558484495483e+01
-3.195628439309790292e-02,6.382784430044893820e-02,1.498369576745934850e+01
-6.771357948252256648e-03,-6.808941835928100650e-02,1.500307384172123371e+01
6.731505190844414531e-03,2.162858518090243418e-02,1.502810897110632560e+01
-1.678864244147635493e-02,9.896938323607089999e-03,1.497717713043928534e+01
5.708473070584337700e-02,3.224388640705262710e-02,1.501702235124607299e+01
-5.261476408246566761e-02,2.817042723207695276e-02,1.495852396357088843e+01
1.997130699335961448e-02,-6.169712708229246889e-03,1.502941342969851135e+01
-7.000552825367553633e-02,-6.472202385819185444e-02,1.498781475437400346e+01
1.276968682615259830e-02,1.742469533448677207e-02,1.502397709591341624e+01
-4.872423399967950111e-03,-5.472509032860426587e-02,1.494924912977762865e+01
3.570109164403530155e-02,-6.534592776292375005e-02,1.500165829130670758e+01
-3.536370085544273973e-03,3.183538173398903909e-02,1.495674495152363548e+01
-4.950192251093481904e-03,1.142492876251333632e-02,1.498410381078037723e+01
2.912168843725331663e-02,7.010819979565953430e-02,1.500799155839375132e+01
2.946909226941028803e-02,-7.685270339076901228e-03,1.497880766171688904e+01
-7.221269073089132962e-02,5.859656917042177851e-03,1.505197561790243910e+01
-2.314672257657894930e-02,-5.345961524277496879e-02,1.502527409799635194e+01
1.093723339569281292e-02,1.581720352751392680e-02,1.495360291837370248e+01
3.699795168499094705e-02,6.867542824574310659e-04,1.499207945325627556e+01
-4.608101803363803817e-02,2.926812492176689151e-02,1.504229653452531146e+01
-3.665331283200010722e-03,-2.183639925250149133e-02,1.503196599030353653e+01
-4.558188882736247810e-02,-3.237308267152939900e-02,1.497961244379393797e+01
1.124580988444774492e-02,1.300152182596829228e-02,1.492244678040121109e+01
1.571968162441111580e-02,-2.683734802547932310e-03,1.495317328535489843e+01
4.382747389387505604e-02,-2.849308103999565606e-02,1.497139194969179776e+01
-4.033370619790544592e-02,-4.946971741013046070e-02,1.506113982512735561e+01
1.493330132624491081e-02,-8.607635074855196633e-02,1.507700136532086077e+01
-4.803568090088284476e-02,2.273517478482074347e-03,1.499200498259026126e+01
2.503075184247356699e-02,-1.995777492844122425e-02,1.498822673111720682e+01
1.532598265989260425e-02,-4.283994110564293828e-02,1.497368036273958936e+01
6.116880710380434572e-02,9.335861215075205027e-03,1.501196343711354331e+01
-5.382098948189699417e-02,5.826538527837829551e-02,1.496680774071854891e+01
-2.412827646717803295e-02,2.064904950862625835e-02,1.497656233348512522e+01
-7.224323848704730655e-02,-3.404288786464982480e-02,1.491470360584438737e+01
-1.344583285464517799e-03,5.223358959542021007e-02,1.506075548313934043e+01
-2.851843819464421753e-02,5.170033397968959096e-03,1.496003679584526225e+01
-5.140931096558492425e-02,-3.680463401482596871e-03,1.500181855967368882e+01
1.273296896337253528e-02,-4.494087049567088710e-02,1.496558626011319149e+01
2.294028617831453398e-02,4.029900537425525064e-02,1.495549908420583662e+01
-5.060690335559728942e-02,-9.701222464201188223e-02,1.500152422260096152e+01
2.722002690315410839e-02,-7.167765828600905498e-02,1.492681577761250544e+01
1.314427713311192361e-02,-7.768295864062566870e-03,1.506874536622751748e+01
-3.637427696730730076e-02,4.092708875639431559e-02,1.500089295300492154e+01
-7.706417713745329634e-02,-4.593216336097510205e-02,1.500921614258095715e+01
3.207312482655677588e-02,-6.590121030117439271e-02,1.496918968654852478e+01
-4.876355577769846128e-02,-4.692816850807286777e-02,1.514545838472351669e+01
-1.295354989314296407e-02,3.513331116423709655e-02,1.499735695388218026e+01
8.401109900050999363e-03,-4.311020920832984125e-03,1.499303046371709769e+01
3.056689050778083581e-03,-2.351894189059247631e-02,1.503988522969894071e+01
-5.936783021716674630e-02,3.434314983256218229e-02,1.506355313346485758e+01
-6.956746530091713343e-03,-3.737124060805862170e-03,1.497047726387611633e+01
6.993019096857745753e-02,-1.616975498701556796e-02,1.503339429927856941e+01
1.930804489978293903e-02,4.542124987540596681e-02,1.503758920019218515e+01
8.573471296051474178e-03,-6.190563411736256516e-02,1.499050643008149564e+01
-9.254983568495207119e-03,-1.191075931778053446e-02,1.497102055143010979e+01
-4.234419287627683159e-02,5.983409811094362110e-03,1.499373903420637966e+01
-2.415550224410345156e-02,9.254593253038569459e-03,1.498188117897516314e+01
4.712718058204915655e-02,-1.062444006690736915e-02,1.500214679293902265e+01
8.424257519858587701e-03,-6.892383027526950701e-02,1.502291082412687473e+01
-3.943871807573605393e-02,-5.364414184176454110e-03,1.496224875671718557e+01
2.304799293529841836e-02,7.930826311147732774e-03,1.505642018331010767e+01
3.841190742856368662e-02,6.177766076408196944e-02,1.503290793952289839e+01
2.341247380225450203e-02,9.046668431172517899e-02,1.506342552265571122e+01
4.598050006767452624e-02,4.023866596622390629e-02,1.497694352092328529e+01
-7.375670078138631125e-02,-3.659746077030601695e-03,1.495979451378556035e+01
-4.915086721968096178e-02,4.898419280819954306e-03,1.503584767347710027e+01
3.311764334358871520e-02,-1.380309783507185223e-02,1.504021355629971168e+01
2.927443716725600803e-02,3.385576044187801805e-04,1.499887106281258475e+01
-6.073322559450550218e-02,-3.777416399003269420e-02,1.496402707513956010e+01
5.027358923978974409e-02,-1.425761596318877826e-02,1.506146197010651377e+01
3.838138178854118288e-02,1.240957014349890197e-02,1.501223341041262316e+01
3.969711734604772224e-02,-8.814070268258804297e-02,1.495250483350084636e+01
1.947127586653210618e-02,7.511408006304894081e-02,1.505554778678551742e+01
2.133927501969574633e-02,4.601413833607724546e-02,1.500095423133442729e+01
-1.121254997001802471e-02,4.469314249990089666e-02,1.491913545289136600e+01
-1.997121691548544090e-02,-4.921791648721019624e-02,1.496529840437922942e+01
2.095819038069650017e-02,3.865187743740973458e-02,1.493597271327904963e+01
4.231361438027182557e-03,6.624614260714399572e-02,1.500678713397765662e+01
4.450096994929778754e-02,1.252437372720190296e-02,1.500001880788049746e+01
-5.757405127688657032e-02,1.532908538701013498e-02,1.496693269493067469e+01
3.573720304788129826e-02,-5.463926944519264910e-03,1.500554373376534656e+01
-1.083424020446635853e-03,8.931042905288854444e-03,1.498524385872371845e+01
2.515155115363161206e-02,-1.365767468313598514e-02,1.497060497567104065e+01
-4.668491737499216171e-02,-6.753160233360933073e-02,1.500183073713313497e+01
4.171269236012119935e-02,7.072014696980030712e-02,1.501791017706200471e+01
6.369574408878904935e-04,-5.838396833275034947e-02,1.498572389399760141e+01
-5.085536796687813166e-02,1.073038554913398508e-02,1.502917406634167996e+01
-3.524887668815748082e-02,-4.760351000023210072e-02,1.502526020855643374e+01
3.301476962340420956e-02,-3.943856886732290817e-02,1.498359403739755358e+01
2.081502739872166663e-02,-6.750277296643639180e-02,1.499585432697029042e+01
2.156691846719857239e-02,-7.806828806015687905e-02,1.506273832215682340e+01
-4.911576237157574965e-02,-5.829755162386323492e-02,1.500660154150599901e+01
-3.247717828596143747e-02,4.100028075190028515e-02,1.506108921678442236e+01
7.903326042870393881e-04,-3.979219704049313799e-02,1.498121996571027736e+01
-2.534401014882303738e-02,-4.275771767409225488e-02,1.505982932118688566e+01
-3.711257825299511121e-02,1.531574237916791432e-02,1.506352890113818788e+01
-4.776135074774694872e-02,-1.629873408677540159e-02,1.502606464845777978e+01
3.288941458884466623e-02,-9.134382686624588354e-02,1.502217669677338385e+01
4.361425320926383929e-03,4.226868521286499675e-02,1.497415267480422862e+01
4.546349365131114456e-02,-1.458532932624879291e-02,1.499449557523455567e+01
-1.006959787872769713e-01,4.724012348292158658e-02,1.507590271363365630e+01
-2.646975837701864495e-02,6.576659498661442671e-02,1.494726397655307970e+01
-7.620864932665461985e-03,-1.340331451485409636e-02,1.498430421574356153e+01
1.907625102746677778e-02,2.265384257386739500e-02,1.502080294399389082e+01
2.068360590384177994e-02,-7.299811740443440389e-02,1.492222563077582365e+01
8.882412996417619541e-03,8.979141714928135301e-03,1.502219453072201638e+01
-6.966728706343114363e-02,2.352260547002196431e-02,1.501379479328263322e+01
-2.490058032155224865e-02,-4.818052805969601921e-02,1.503132571339966539e+01
3.206799585135414882e-02,2.477178539511855695e-02,1.491468862234849269e+01
-6.775991441740407406e-02,-3.362833786049904128e-02,1.507481223186408137e+01
3.106771101189262016e-02,-4.110810934392986060e-02,1.501865972380470460e+01
2.679754257484550165e-02,1.683628974657433788e-02,1.502104147335452211e+01
3.080113181096980415e-02,-4.734598091424821291e-03,1.505841165031259621e+01
2.956128104171732232e-02,-3.616379162723063617e-03,1.502890482235444303e+01
5.489470236273653880e-02,7.179456667295966432e-02,1.504188420164811113e+01
-1.334299750533902117e-02,6.051274000226283117e-02,1.491338546297573053e+01
2.460919655469741632e-02,1.123702134916523820e-02,1.494721426484775861e+01
-3.157246495979382228e-02,2.010316092114286524e-02,1.495737611358960528e+01
-1.582323679241014885e-02,1.984093856881857104e-02,1.499668648448510666e+01
-7.205074612085221597e-02,-1.220894502247336921e-02,1.500704690762766269e+01
3.595268660626701335e-02,-3.762015139073398434e-02,1.496100698863755163e+01
4.205222538135821447e-02,-2.687398738967111591e-03,1.500519245317559403e+01
-3.591954590002318509e-02,1.603715718178972890e-02,1.499030944315956582e+01
-6.442991687385642673e-03,2.421003331552640508e-03,1.493563138737176565e+01
-1.403436301649743125e-02,-2.486810806687974815e-02,1.496449538394334411e+01
4.751494878968812001e-03,8.650539433510623724e-03,1.502539812566188893e+01
5.451742686432084657e-03,-2.631260139729071695e-04,1.496941864059081340e+01
3.435906495940373867e-02,1.479354897821152058e-02,1.498707395087322602e+01
-3.523569571412528412e-02,4.214969063436503627e-02,1.495985964056235495e+01
-4.532100705330813217e-02,-3.986751220676304670e-03,1.495138015866504411e+01
3.023479559102721162e-02,-2.001108941215030967e-02,1.498049748358572231e+01
-6.583763349797555620e-02,-1.573770360827150480e-02,1.502751847184436862e+01
-4.464673094778162481e-03,-8.849438934853149155e-03,1.502565797139308756e+01
6.189176230547031171e-02,-1.324673237000759812e-02,1.500012195000494764e+01
-4.849841178795605973e-02,3.645432417168523870e-02,1.497013436228068883e+01
1.370305073559193593e-02,2.851258307273223103e-03,1.493736032696579841e+01
-9.689900705843773610e-03,1.482738033047203800e-02,1.495125583420209914e+01
-7.519069497016106496e-02,-1.245022676442621677e-02,1.502348322506596645e+01
-1.649350278301518757e-02,3.537182003404502895e-02,1.493992073640369256e+01
7.535079912666011424e-03,5.112325634941582153e-02,1.501710161750660966e+01
6.624538467772303485e-02,1.352367752729026137e-02,1.504286268203941113e+01
4.808023169880682596e-02,-1.263554731860770490e-02,1.497128115160729500e+01
4.733899363661935034e-02,-6.950336166793537329e-02,1.500490152546044875e+01
6.112471358218309753e-02,-4.229282768920415020e-02,1.500638716779566018e+01
2.126255863602085142e-02,-6.492108991937088625e-02,1.499240487797617405e+01
4.790328118451242685e-03,2.388370348294878084e-02,1.493289233329565313e+01
1.341908855243346575e-03,2.356930139958918560e-04,1.497900411450972946e+01
4.705546800197999563e-02,-2.745693902357797950e-02,1.501828575645879127e+01
3.495002685531096998e-02,7.013747767467895522e-02,1.498151768464568789e+01
3.399049867415896570e-02,2.418704522139193333e-02,1.498659209497446376e+01
4.841649783618658803e-02,-2.586793413190411825e-02,1.507332756576636790e+01
9.350268157207962047e-03,2.918275882648568853e-02,1.498248108178350257e+01
-2.416381032326175501e-02,3.419572839694937777e-02,1.501662136256416780e+01
-2.439744826134149225e-02,-5.923096630620277442e-02,1.497726703545343696e+01
-3.262253366718025765e-02,-1.171742055472115886e-02,1.500069623113605743e+01
-5.969270829502373865e-02,-5.711910688940367159e-02,1.499863691223808715e+01
-2.038276312575332608e-02,2.283913972527317968e-02,1.503115328096452430e+01
-1.225616109996440460e-02,1.456504257702470216e-03,1.505368454984017923e+01
1.862666937218983992e-02,-1.179684212120416312e-02,1.504781031807191560e+01
1.860573104267632463e-02,5.540986173353553562e-02,1.494442197658989713e+01
-6.296283196735895371e-02,-3.185087386583564800e-02,1.506042125136687204e+01
-2.502664857371778365e-02,4.329477974061898132e-02,1.350767891087482653e+01
-7.156026521546132680e-04,1.984052399686999247e-03,1.212226280756280694e+01
5.440974902322309043e-02,-3.129839480750019887e-02,1.082529982219178599e+01
-5.418256884668713746e-02,3.646987246427857432e-02,9.858123290752784484e+00
3.838305855454008514e-02,3.072740493321106207e-03,8.809159416181723046e+00
2.406866029696219655e-02,-4.989104141861801234e-02,7.923376101183570164e+00
2.584702016534973223e-02,4.602807385486968467e-02,7.167076187393673692e+00
-4.527445803150830644e-02,-1.954299890552761015e-02,6.408487117010943201e+00
2.476830847569914604e-03,-6.024121462040207126e-02,5.918593532664288226e+00
2.659405575107140138e-02,1.481787352121407587e-02,5.247494841080161621e+00
-3.856844929294558910e-02,6.074304755118428018e-02,4.774769256538831996e+00
-1.826437260490744452e-02,1.025842116473102243e-02,4.217490938930683164e+00
5.634657937330037059e-02,-1.644023486762827627e-02,3.886546957000643676e+00
3.711549851316798404e-02,4.448008189720231015e-02,3.411114478146711537e+00
3.885164995831541339e-03,-7.259136679763892111e-03,3.028825815032230029e+00
-9.199130446268610761e-02,-8.703187962522655361e-04,2.742663966433454448e+00
3.578589290965340786e-02,-2.841514374555713547e-03,2.496971355002584936e+00
-3.778804279047595638e-02,2.344006173454937954e-03,2.217037613225457449e+00
-5.595070207953331543e-02,-9.580695391350330797e-03,2.061075334092217659e+00
6.238050260247526152e-02,-7.152401496923105340e-02,1.872244826092533510e+00
-1.035052368961784756e-02,-4.877217841628306294e-02,1.668653969253034663e+00
2.438797294596609447e-02,-5.276062441732158603e-02,1.500811036258176800e+00
-3.582034307078343222e-02,2.703397969090769876e-02,1.304175655371660802e+00
-5.018025785304316283e-02,1.212158629231494499e-02,1.178230787719864781e+00
2.196715048672252812e-02,-5.166000153657938215e-02,1.123361086232328443e+00
4.550284308319380369e-03,-8.614140203446286892e-02,9.340374016635398791e-01
-3.379601820369198401e-02,-6.600860999752372095e-03,9.494049343596955293e-01
4.801564455859225894e-02,-7.716004984689136051e-03,7.767427840466867295e-01
2.699932596260394297e-03,-4.305875299902767878e-02,7.085051111293753090e-01
3.534623592996991026e-02,-2.794467698844692663e-02,6.266812832217215634e-01
-3.147119039012647584e-02,6.136463418975288825e-02,5.681259841328594185e-01
1.915775897317131826e-03,-9.764366800542134683e-02,4.747012446474411229e-01
-3.460500739865628173e-02,-1.792874513699151823e-02,4.420104052949026530e-01
-3.605643785862222908e-03,1.428105163620580625e-02,4.840596750515631652e-01
-5.905957169125961026e-02,-4.392692562845727788e-02,3.501080302338477335e-01
-2.001552437100516391e-02,-1.335993746637098925e-02,3.802189345906141216e-01
-3.818994033767873081e-02,-4.249819384053602628e-02,3.373153151492291890e-01
-2.727484943736568912e-02,2.710237993454667899e-02,2.926303102741006912e-01
2.542681051783615351e-02,1.145870508942129461e-02,3.045023542352817691e-01
-6.588991737795922565e-02,-1.791567075715223356e-03,2.406394709983689928e-01
1.024763834682150682e-01,-7.895738099482453587e-02,2.299213241688071729e-01
-1.394171211399867702e-02,6.119343708568401180e-02,1.991823461348699309e-01
-4.173632149278982961e-02,8.046830051023756702e-02,2.095585872915280701e-01
-6.953958039007680433e-03,7.700096176193418906e-02,1.286966696052655179e-01
-2.090199972617900331e-02,6.309763811191675120e-02,1.857169940890311399e-01
-8.352490687662197932e-02,5.289941191184523769e-04,1.014894744603587751e-01
-3.510229193417958166e-02,-1.801172734045508594e-02,1.515906287927725749e-01
-4.217348151458837763e-02,2.229119769605730425e-02,1.288721231376394605e-01
7.253924374218433113e-02,-2.510085486114751671e-02,4.026738208019308568e-02
9.802188342479168162e-03,-3.667811378210096562e-02,1.070578448826572243e-01
6.039055154317810037e-02,2.350084315056851642e-02,1.131726583340917636e-01
-3.896246328669566300e-02,2.794891217882193579e-02,5.110755198543449201e-02
-1.094430708187856330e-02,8.038754542599355069e-02,3.683287432066671002e-02
3.830131768963767475e-02,-1.501972827993980873e-02,4.132775838223484710e-02
-3.276814329788632629e-02,7.046083984638373821e-02,2.696822386923174164e-02
-2.721682812767989290e-02,-4.714744244435541826e-02,5.954347499743978950e-02
-7.352328963097712333e-02,7.715640769652411246e-02,1.246498352005248472e-01
-3.410523097414146134e-03,-2.630316446350350681e-02,7.425281096492199195e-02
2.614938834268650328e-02,2.306442299163899423e-02,2.690175422287219981e-02
2.040307246823185039e-02,-7.947789849768298331e-02,3.007150433379439380e-02
-5.042386679947240269e-02,1.895540999667188337e-02,9.370958153032613036e-02
7.344320440284436702e-02,-2.527037321067006348e-02,4.173025802151629320e-03
-7.868038088598253155e-02,-1.008892964753845406e-01,1.509138212593959423e-02
3.430783887455134823e-02,6.765425260616902969e-02,6.980196110694841805e-02
-4.529087106703131790e-03,6.491894597134290588e-03,-8.897019016706355851e-03
-2.747456334451149271e-02,1.309523826055247232e-02,-8.331661749077162032e-03
3.581584322874812459e-02,-1.231494099156893972e-02,2.730681744238573974e-02
4.268080393780785374e-03,2.576430785138133020e-02,-1.847900607647012805e-02
-1.012536446176564436e-02,-4.660993301621536161e-02,4.923249651092214546e-02
-4.648123634044346725e-02,3.451166691707700102e-02,6.217368747923313586e-03
-5.926087837041851131e-02,-9.476659568825271385e-02,2.965102757260095617e-02
-2.588578478552919226e-02,-4.953574662516648658e-02,-1.673735057325536138e-02
-1.436688467931059553e-02,-6.074493827355647441e-02,5.916940927385921228e-02
3.103929060957462405e-02,4.993120808987204506e-02,-7.297396922194548941e-02
2.112847637276511672e-03,-2.032968816123430569e-02,3.022799619018663037e-02
1.014005765345472702e-02,1.720983462660006028e-02,3.760650158532805043e-02
5.153991014056655273e-02,-3.138616416818777038e-02,3.638511380782318005e-02
7.613649801012861706e-02,-2.774029174048874002e-02,-4.008836788611710999e-02
-4.075491396976845156e-03,-2.103897924404766681e-02,3.200206912698256440e-02
1.153962708548626585e-02,1.110789491170050859e-02,3.085260508872121957e-02
2.275436100626031938e-02,-2.371197014759736724e-02,-4.239488892873121556e-02
-2.613692056211168891e-03,-4.335204981137484245e-03,5.692341811728490047e-02
-2.006207535023824332e-02,-1.779614945516312706e-03,-3.927959239927226315e-02
4.063788918918476156e-02,6.899941991680193232e-02,3.414275592874763121e-02
7.050963572232009369e-02,-1.074276078293662749e-02,1.761789822951343246e-02
-2.247169796581225884e-02,-2.244112887641157988e-02,1.465879113858221147e-04
-1.693549197064838155e-02,-4.563285013553122077e-02,2.446294825276615695e-02
1.047651036094317673e-01,1.706852305049741045e-02,2.502035103392300647e-02
-2.221325259510047168e-02,4.587375835227736239e-03,6.095605898574187748e-02
1.465804393820576736e-02,9.129475559090509743e-03,-3.004342966657986419e-02
3.629847664178931926e-02,-5.137549273235459540e-02,2.021721196291361225e-02
3.948905062661019205e-02,3.884333443345650005e-02,-2.606698728214163624e-02
2.220340498188090594e-02,4.380822613274241994e-02,5.758047750433507167e-02
-2.124362148172741208e-05,-4.887722652795117861e-02,-1.640353262074406571e-02
1.652278894502233128e-02,3.426578283198852826e-03,4.063094290205986753e-02
2.620353475533070478e-02,1.769063079240127193e-02,-5.809249856249868588e-02
-2.900704703363801359e-02,5.006003453678129107e-03,4.008442295431340931e-03
2.071301561052824036e-02,-2.204292505669212462e-02,4.849044809274945245e-02
1.578208720887758557e-02,1.688731706296888249e-02,-6.111788291737824596e-04
5.597201565394947786e-02,-3.046109835823431269e-02,6.017819079283603240e-02
-6.217164824875914819e-02,-4.494091657772959769e-02,1.111981777645582731e-02
3.827740654901110040e-02,6.206236903220927609e-02,-7.023177041471159732e-02
-1.251128055690873750e-02,1.342203247132895370e-02,2.222941507658498725e-02
-1.101388963151245931e-02,2.135317620738132541e-02,-2.624680595733499405e-02
1.523890376494407665e-02,-2.709622370483151868e-02,5.502496695087177175e-02
3.254706764029469124e-02,2.111888378301434929e-02,-9.035848248878812494e-02
-1.863199228076041838e-02,5.113321891428372623e-03,2.774210735285731824e-02
-9.303740537299064195e-02,5.304952653914304581e-03,-4.315791980080992823e-02
1.064008051019654268e-02,-2.971029772176435324e-02,-2.294123034529560803e-02
-8.150105375171975974e-02,1.261869462031780381e-02,4.510301033315840952e-02
1.444863281603523363e-02,1.869190952634962669e-02,-1.924747636840696066e-02
3.656461203780094621e-02,1.847175425691811521e-02,-4.375379025946674744e-02
5.388926416192137137e-02,-6.121322789422748746e-03,-5.789467747794111580e-02
8.525266457842690937e-02,3.083263370456913385e-02,-3.014557515581998276e-02
-5.750761152666078457e-02,-4.451280828863132116e-02,-9.460584513371469995e-02
1.652832120525238313e-02,5.406252257635398711e-02,3.338591324822712259e-02
-9.103644047672931894e-02,4.411420778753076880e-03,-3.943151849973196982e-02
5.359968804374634632e-02,1.463953226450871899e-02,3.105939518988068936e-03
1.678517034789879514e-02,-7.090026539945692985e-02,6.988034035732922089e-02
5.448109754944405192e-02,-4.966796665902310781e-02,8.425697497074939590e-03
1.403445699746979844e-02,4.288836509176753575e-02,8.701681183112534856e-03
6.381346825422151703e-02,7.078954842430351668e-02,3.373934908477512623e-02
8.123033285861612496e-02,-4.310711793887116172e-02,5.294779838461280419e-02
-1.960014453957634878e-02,2.122596667507976875e-02,9.372131165105119371e-03
1.461615179957381945e-02,-1.976296394107591656e-02,2.092184860595722173e-02
-1.076820757779513651e-02,-4.007884102689356076e-02,-1.870468786923746782e-02
3.120599364233063444e-02,-5.859645373621693437e-02,8.902024082649119888e-03
4.663725740908139517e-02,6.708109986193139598e-03,7.943194345236449794e-02
3.404083187518144177e-02,-2.691395208161211777e-02,6.990687582363522279e-02
5.073660704477436258e-03,6.730046195564033662e-02,-1.607515629982974800e-02
-2.326214500338635860e-02,2.318017225098168224e-02,4.648243520321949929e-02
3.111722319126288688e-02,2.497423521838276414e-02,7.862459897091922043e-03
2.967570527408231601e-02,-8.441571409504177240e-03,-2.546171414684757564e-02
-3.154623504257487998e-02,-1.481019486269143310e-03,-5.025977557861879136e-02
7.342643014832095361e-02,2.960481234102852605e-02,-1.685225456748441200e-03
-3.910550937858943768e-03,-7.081047239550307404e-02,-1.794209514573096714e-02
7.179870227711304675e-02,-3.256464282189271836e-02,-8.839876791931308058e-04
-3.129404431208595433e-02,9.809930206718844858e-03,2.466453019098194949e-02
-4.222978876353458179e-03,-1.067695532930392904e-01,-1.653044021824406559e-02
4.592895311892894461e-02,-7.352053751588624730e-02,4.289590291874757072e-02
-1.547087975152022267e-02,4.156435674254112603e-03,-4.263619537405726606e-02
1.331669936732094404e-03,2.589658800661572349e-02,-2.655532441839935157e-02
-5.723403068999474708e-02,1.670460641053981080e-02,2.063927276793978832e-02
-3.111330433165956227e-02,-6.891851113648957139e-02,4.915285885222774737e-02
1.715457752375404779e-02,-8.027568340263869714e-03,2.080315661279093231e-02
1.406870344059702078e-02,-3.219447594725204781e-02,-2.300416128423969989e-02
9.031946104705274730e-03,2.649394672665050451e-02,-3.002567215499416658e-02
-3.569809033837490625e-02,-2.012981465267772371e-02,2.368838696615242767e-02
3.051553649989618630e-02,1.860414927405215635e-02,-1.398672965802145486e-02
5.840291069831032161e-02,2.793967043797689759e-02,3.254210381102648486e-02
4.967920334225611745e-02,-5.696418389868924959e-02,1.165366645830012531e-02
-4.792052552438456903e-02,-6.087448634256645112e-03,2.808761090883139105e-02
-4.714749229580308953e-02,8.555555183089263646e-03,-5.164292908414543776e-02
5.038830178639620849e-02,-2.007995982638743557e-02,-1.428365140681786896e-02
4.390323129895898346e-02,-5.403073890451676187e-02,-1.850007390363803822e-02
-6.042441602839448977e-02,-4.391146924910737520e-02,-2.646692061791112646e-02
-5.313217424478146322e-02,-2.132788339196181257e-02,7.886977188759212998e-02
-1.245870994463915346e-02,9.555015878526480766e-03,-3.508399416157786249e-02
4.666311315940731980e-02,3.254582601114366838e-03,-2.579824213224511664e-02
-1.028764578415236192e-01,-1.490500245331565464e-02,5.297292054615432289e-03
-2.914222826626961926e-03,-1.351316671460623710e-02,1.576990043677274980e-02
-5.205718337902481840e-03,-6.473955225071024999e-02,1.101600866743641244e-02
8.393380877850541155e-03,-2.994572949997830608e-02,-1.613602392161262236e-02
6.469080996551761220e-02,2.519271981790448603e-02,1.699760567309546028e-02
-1.262994651918716849e-02,9.328118736611630893e-03,-7.810044058754044005e-02
-9.846069552091754953e-03,2.113550195213605501e-02,2.645833131698074533e-03
3.520842763323252245e-02,-1.799563351654181326e-02,3.386750563827506388e-02
1.892685132904676354e-02,6.685639005680793501e-02,4.372531475023956615e-02
5.465302828438174838e-03,3.861601072098552051e-02,-2.577715114143168396e-02
7.865729059835264037e-04,3.359639745180775794e-02,5.462738904622577857e-02
-9.472237464629822135e-02,7.409770866284433495e-03,-2.832163432489783611e-02
-6.370949287026282659e-02,1.269347883722466395e-02,6.878518545724858491e-02
-9.135395870351491199e-02,3.703310393597822325e-02,1.799503013209472185e-03
-2.587361009836060613e-02,-4.150017223174655434e-02,-2.708168130110038055e-02
7.470217620841035182e-03,9.059010666678843360e-02,3.144269065664115088e-03
4.121139224952995866e-02,-4.300734096297308302e-03,-4.865564204659768993e-02
7.592681748543148035e-02,-1.425109498692996718e-02,-9.321813197829563469e-03
-2.264991123618751573e-02,5.460751007514551281e-03,-2.890213692302381204e-02
-2.868354378078585495e-02,3.366234766865667388e-02,-5.098079639214696951e-02
-3.112668353535316679e-02,6.521827203238743376e-02,3.524846198830373922e-02
-7.692788197182834353e-02,-4.608868451657072846e-02,-4.371582489093001067e-02
-1.744645336384293213e-02,-3.936442914497608608e-02,1.119342923958114612e-02
6.947680375130038492e-03,1.472935881552613624e-01,-1.419973221922779137e-03
7.897987720356329511e-02,8.283398483966355899e-04,-1.973451981434452135e-02
3.479306176923544630e-02,-6.370680976458105438e-03,6.669272877895224272e-02
1.183154301805528809e-02,4.718825586886998824e-02,4.390671421924319771e-03
6.646247181512575375e-02,1.872175418297693933e-02,6.836389576010040714e-02
5.098130553120358566e-02,2.423356964437180933e-02,4.289004081390875717e-02
-3.208191977433846875e-02,4.005166214223878501e-02,1.661044358413178018e-02
-5.312160553482808689e-02,-2.004594350980995129e-02,8.458349720650437664e-02
-3.555783170954950143e-03,2.458359547824065169e-02,3.996249825235438646e-02
-2.782590318431727577e-02,1.818574859618721576e-02,6.008256637768938369e-02
-2.015601187322909119e-02,6.677668064996336583e-02,-4.900108991455202206e-02
2.646568626379512332e-02,-2.966896125212579657e-02,1.522914346687504437e-02
-6.766297148240753290e-02,2.654175427705519376e-03,-8.080372519640696694e-02
7.720026203265678566e-02,7.301507307324732986e-03,-3.538234621910955197e-02
8.889992318370101843e-02,1.102105316013444331e-01,5.219164741288441489e-02
5.243238614951836740e-03,4.007624868322033629e-02,-5.817113842337467283e-02
-4.279316249927683086e-02,-6.220170228622146948e-03,7.887910041977854933e-03
3.824772450261276074e-02,4.900766821899082276e-02,-1.032646333545564690e-02
-1.476056796222833742e-02,-3.076502491766753417e-02,7.586944233898083867e-02
-6.066718176727495943e-03,4.136769583873790151e-02,3.258319800438302244e-02
7.090941710114157491e-03,-2.512259126436355069e-03,-4.669493325361234737e-02
2.232512282782356944e-02,-4.509856713884895230e-02,8.867205163983135630e-03
-2.406940785710912079e-02,-3.706600894052481526e-02,4.791756510823586696e-02
4.915300440796638304e-02,-1.686762246068908982e-02,9.839050846817149615e-03
9.855223975752208654e-02,-2.949668498372847586e-02,-2.375579799326081598e-02
-3.102059506593973694e-04,7.153258692719327572e-02,-3.945243684960005048e-02
-6.803363604450435309e-02,5.150976165234819742e-02,2.822842698075537018e-02
-6.288327331302555334e-02,-1.251591083668281146e-02,1.885780671670000963e-02
-9.725808256061089119e-05,-3.708917440905498686e-03,2.095022188110225170e-02
4.086291378946206587e-02,-6.712339132651508160e-03,-3.797639890225396747e-02
-7.116006038662130162e-02,1.681211921142206425e-02,3.083354015650290395e-02
-1.808138654908769336e-02,-1.964734822670812376e-04,3.474807297540060541e-02
-4.028677249382590919e-02,-4.257873533765198226e-02,3.258448754651979001e-02
-2.511593744407359524e-02,-3.047323633431826481e-02,-5.326716870309300411e-02
5.338917698515927013e-02,-5.236266675729928793e-02,7.241856554796831380e-02
-2.043203456756091663e-02,4.697709292993060975e-02,-6.148021426004294382e-03
-1.060113837628550229e-02,-1.775925632836192897e-02,5.044494912044899734e-03
-4.384176581349293750e-02,-5.843645775311277074e-02,-1.428946334002277781e-02
-4.790057943651154955e-03,9.128145887101046102e-03,-3.626812690757041935e-02
2.426244096103376269e-02,-1.734130248985063646e-03,-1.810918297188261403e-02
-8.879378898169669465e-02,3.531813830953185740e-02,-9.754999588408140229e-03
2.688315177081262650e-02,-4.749074424195894040e-02,-4.628616856200899743e-02
1.095851322904589989e-02,-2.673546050444892616e-02,-2.116353894829721676e-03
4.063727582190904131e-02,-5.796490551854727169e-02,1.720132100316601811e-02
2.474082877373136313e-02,-2.441901385116090895e-02,5.688266931392061548e-03
3.462900189358587150e-02,4.296383758107213263e-02,1.820448126835217187e-02
7.493625171721397804e-02,1.704772326740164670e-02,5.671017169412972958e-02
1.541878241541213418e-02,6.499582566009713680e-02,6.901017755835918421e-02
4.657756962678719775e-02,1.153772423346367537e-01,-1.541149835894145732e-02
-8.542196331118162567e-02,-2.311923468120664557e-02,-2.164879274855837504e-02
9.272808409135607777e-03,4.896629411953534045e-02,2.423794758040303740e-02
7.420695488027313595e-03,5.717806993073412669e-02,-7.866844122802008066e-02
1.403721824084210902e-02,1.806449146580723850e-02,7.586442815865387934e-02
3.903603241025496284e-03,2.288784153846400854e-02,-5.584859639361904049e-02
3.403728917173871101e-03,9.286209212487446171e-03,-1.760605472844200062e-02
1.859753279261897735e-02,-6.666986551555456608e-02,6.586932716173317902e-03
-6.969960881074233061e-02,6.540963545872660601e-02,2.932104474407143738e-02
-8.836633689852758239e-03,7.438615673675277873e-02,-5.942871341647930350e-02
-1.557140397977985029e-03,-1.840915323550347191e-02,1.648607448242211254e-02
-4.832509591284681744e-02,-2.178992684214768258e-02,3.537187552308308086e-02
-5.409907289161336452e-02,5.439100220539661718e-02,-1.448157769108446291e-02
-2.673179600469361566e-02,2.236308891641595846e-03,5.907024720838053612e-03
3.486235198442608901e-02,-6.625706326011074343e-02,1.103305365832862595e-01
-6.021195532069784952e-03,-1.220779102995391691e-02,3.859525645891605933e-02
3.170227573109354186e-02,-4.328640030255254123e-02,7.668464050832914103e-02
-7.460906799375165675e-03,-9.717671397715618026e-03,-5.779575873975544703e-02
9.677235640189504884e-02,-2.636796661386861876e-02,1.162232680778240443e-03
-6.889931415907581125e-02,2.002600443030613797e-02,5.091385182222568986e-03
-7.569111555500405986e-02,-3.374054946548925987e-02,2.594187191094581707e-02
-5.260466722047719978e-02,-7.629326381800578816e-02,-1.065485347284238909e-02
-8.136131901128018651e-02,-1.455816262662181296e-02,1.546134568031295661e-02
5.667487084263168190e-02,-3.039628793854715072e-02,2.913364883193441442e-03
-2.755534025974254106e-02,-3.383901326924761924e-03,-1.100025110176622127e-02
2.839709001781980102e-02,-5.377037520333079884e-02,-3.247627207480587030e-02
-1.616576685551120423e-03,3.036021313145021577e-02,9.639601277974722479e-03
-4.484649819482157754e-03,7.857271163251017265e-02,-1.175201588849541547e-02
-2.130009221433818226e-02,-5.816979641409721069e-02,9.083161913060736059e-02
6.888835945587361287e-02,-2.062345685905812159e-02,-3.734794384871005513e-02
1.324611969382084690e-02,5.113797963403672597e-02,-2.234625615183775602e-02
2.657722700575925346e-03,-7.939781534136776397e-02,1.115268138875925331e-02
2.284544822795526314e-02,1.212164714667132194e-02,8.769113694350204324e-02
-6.710209453382653434e-03,6.750969100263766454e-02,-1.717575472407880180e-02
6.929570929356906883e-03,-2.468075733868940747e-02,1.183361125435322854e-02
1.899241549761074418e-03,4.198765341297514692e-03,3.415726972386325111e-02
3.922147210627538461e-02,2.476445001185971148e-02,-7.314801653410893216e-03
-7.137405605599980718e-02,7.144470000840608126e-02,6.843211059159361523e-03
-1.032316339212964625e-02,1.332196185766707300e-02,5.047128661321714088e-02
1.701385029188979062e-02,6.462736620450380831e-02,-3.063379475641736169e-02
6.148430410003827978e-02,-7.698423041029847300e-03,-4.247844811577298346e-02
-1.113567920836754793e-01,7.355032032006382503e-02,-1.791271014521950838e-02
-5.445883143112511746e-03,5.978594719431403609e-02,-6.502099351287653206e-02
-5.629384245809398307e-02,-1.686078553117209902e-02,-4.455741909180205296e-02
-3.491975819373693835e-02,-9.372802632302681958e-03,6.288233017745266384e-02
6.266564455012910151e-02,2.784472364012687343e-02,-4.529973762492603417e-02
-4.161484051930353263e-03,4.590720690197251652e-02,2.489073604933658354e-02
-6.342125532158326973e-02,4.503536128741933431e-02,-3.652993076885490548e-02
-2.975348046349868616e-02,-7.138844378131445345e-02,-3.318942856472166525e-02
5.443958457192315734e-03,1.292549221229849499e-02,-1.063141044886617426e-02
-3.684248187032733435e-02,-4.325163527357260562e-02,6.366380706887271416e-04
-2.538849751001849911e-02,-2.830543117272264764e-02,-3.368409037128788919e-02
2.386651435963398418e-02,2.797760856307086527e-02,-5.562588614487741501e-02
-4.321494200753478454e-02,-3.963146813461897525e-03,6.074319897354484021e-02
-1.024888343396718020e-02,4.142659522652911847e-02,-1.039772430895842710e-02
1.882494057090412874e-03,-4.785624148113227019e-03,-1.507545105392539726e-02
2.919907218346347311e-02,1.337787419104832093e-02,2.723191287867111898e-02
1.020765588275000385e-01,3.651408538508905260e-02,-6.190904466972728393e-02
9.865876353295955845e-03,3.838534063634559124e-02,4.214167462107764467e-02
2.994762402501464915e-02,-5.896611353923656568e-02,4.473007317212686004e-03
-8.169319268591296312e-03,2.091828797607518664e-02,1.471547534122715460e-02
6.262516400316104140e-03,-2.914593778433196419e-02,-4.657752143922427868e-02
-1.322329935734630098e-03,1.746406798214868855e-02,-3.126063522027672931e-02
9.420660296226030656e-03,-1.362151286834414714e-02,6.469177316244689724e-03
4.280115690499133700e-03,-5.395748349107887948e-02,-5.796799771048716937e-02
-3.849990169748637031e-02,-4.481080321563180036e-02,5.944381493520235760e-02
-5.036139746982448706e-02,2.661130555578128474e-03,3.916786443497387304e-02
-8.999357401179932520e-03,-1.198439349985297615e-02,8.756966014422573608e-02
4.092108261479010002e-03,2.629434086002382931e-02,6.662997887516385054e-02
6.727033799270511205e-02,3.657686138830604228e-02,1.115024550690047259e-02
