accel_x (m/s^2),accel_y (m/s^2),accel_z (m/s^2)
5.745741809125248095e-03,-6.608328789953279991e-03,-9.779930662672704500e+00
3.459387145008275752e-03,5.273773492483971835e-03,-9.790094377207015697e+00
-2.136830796599906417e-03,-1.652716842137498662e-03,-9.803915103364902350e+00
-4.911462247434249424e-03,-5.502074524865130552e-03,-9.785402786565166267e+00
5.063092926175978732e-03,-2.327438657613790929e-03,-9.781245112654969986e+00
-2.406932547333939538e-03,-1.895805849624712354e-03,-9.801635935480192074e+00
7.371440520454127648e-03,3.559610678606326458e-03,-9.807032680188861207e+00
9.090110451628692981e-03,9.363442195977906678e-04,-9.803717134244697817e+00
1.548916378013129053e-03,3.092130973679245096e-04,-9.785781333541963889e+00
-5.448302112816169954e-03,4.700038624822188912e-03,-9.803543981466063428e+00
-4.755937618827968914e-03,3.313794161458683885e-04,-9.783471152492873912e+00
8.937118552974738020e-03,1.875406946308528534e-03,-9.784496166384846205e+00
-2.136186418949523064e-03,1.644029250715121817e-03,-9.794264813361460043e+00
3.540653759081220132e-03,-6.412302927866101593e-03,-9.789484431292640565e+00
7.467640430317589069e-03,6.641244104863330616e-04,-9.789600145756491401e+00
2.339049827731528447e-03,-9.933198224234374846e-03,-9.800374152783554393e+00
-1.435059027431630132e-03,7.413217579861870049e-03,-9.787480113148344429e+00
-1.042345452009701794e-02,2.051847682716830424e-03,-9.800987319737144432e+00
-1.355278546541860939e-03,6.222573838183849057e-03,-9.798293965824777629e+00
-1.622988618903971380e-03,-2.086614420163042036e-03,-9.789815705780855026e+00
-2.191130539612689936e-03,4.628064208722213434e-03,-9.794123177006461844e+00
-8.084559693981216086e-03,-9.700965889037392945e-03,-9.796802397764606596e+00
-4.773659538352202636e-03,-9.140514197339778824e-03,-9.821104948571676374e+00
-8.311468772315977471e-03,-3.324766030216565194e-03,-9.803939210501606993e+00
1.680107608883734532e-02,5.746688064985541917e-03,-9.791271404630323971e+00
8.770054713795176829e-03,4.720479214509861778e-03,-9.785272048558532276e+00
6.390196503424300407e-03,5.059022387546512067e-03,-9.789178774230117952e+00
1.410959200680265979e-02,7.546395604460266575e-03,-9.797556098496436050e+00
-5.176394594546972379e-03,-1.838239072191932095e-03,-9.799338956926140654e+00
8.086867287702640544e-04,-2.145397908808842694e-03,-9.794133569870343337e+00
-1.093630555856754495e-05,2.690367543867643561e-03,-9.796817055735113300e+00
4.776997273740462430e-03,4.636413377306290197e-03,-9.809562047942554486e+00
8.439948675231905830e-04,5.147599571115980994e-03,-9.796558828826311682e+00
-2.709636004122865536e-04,-1.100756198237997502e-02,-9.804263226209393167e+00
-3.706965688288486535e-03,-7.792345455838683640e-03,-9.787725687849258449e+00
6.172291887408014148e-03,7.093210381089370097e-03,-9.804327125519648689e+00
5.384641346749886523e-03,-8.174755175296456733e-05,-9.785636431941581392e+00
2.020079499917097014e-03,5.698796860283005970e-04,-9.811851229642668315e+00
3.711502949801783434e-03,3.757910677634043652e-03,-9.795969613754619942e+00
-7.491536857638235632e-03,2.217673094690105016e-03,-9.796531612898123242e+00
-2.506192427954934913e-03,9.261052687931519561e-03,-9.815611139283742403e+00
2.973928462175228892e-03,9.571978271627298862e-03,-9.804560998060578569e+00
-6.927011572480550224e-03,2.112470185640265286e-03,-9.802540712614637997e+00
4.142932314043282042e-03,7.543041717748891033e-03,-9.785903286256989020e+00
6.849490983120406877e-03,-2.935758132486053062e-03,-9.795394981292682601e+00
-2.351931867104841735e-03,3.085092663484734817e-03,-9.788932329260807919e+00
-4.692509493627918145e-03,8.326161254232765808e-04,-9.785714785405165372e+00
5.640213946486761186e-03,-2.098739747366236245e-03,-9.791658096436513858e+00
7.350912683229091603e-03,-7.479009273093001125e-04,-9.805851572963391050e+00
-3.530804312902149304e-03,3.977532868778480132e-04,-9.795788946555104459e+00
-1.589896878383514130e-04,8.479913178389562184e-03,-9.785771597606975902e+00
6.520915650705386667e-03,-2.113043484829647128e-03,-9.797693003985193272e+00
2.469555230291240518e-03,-1.063847963825429767e-03,-9.783925807857912105e+00
-7.581061434302629500e-03,9.388143014896994931e-03,-9.801071183160011913e+00
-1.484324314383943331e-03,-1.822870871370792613e-04,-9.787684448592182562e+00
-1.376401798791761222e-02,-4.066808543291640723e-03,-9.795226967265600493e+00
-6.441487711286401387e-03,-4.523171193243907297e-03,-9.787090067830632734e+00
2.576051887804402252e-03,3.299866252926288244e-03,-9.793633974725915792e+00
1.018702606878341133e-02,-4.505648152551954694e-03,-9.776619814790208807e+00
-4.725271250534101783e-03,6.545554399691424358e-03,-9.786564846535576123e+00
-7.672920919690481118e-05,2.678472044774354247e-03,-9.790334813886941490e+00
3.308159192867615728e-03,-7.860002525325149314e-03,-9.790561317125838769e+00
-4.996011283827012962e-03,-5.745677509143868808e-04,-9.799476032882186161e+00
1.293181778247426156e-03,-2.095038959450075833e-03,-9.805047964031848196e+00
4.433863361528897658e-03,-6.551307259879865757e-05,-9.788107141242921472e+00
2.257023754956686071e-03,-6.570075283885521734e-03,-9.787551875568878401e+00
3.724383069752630268e-04,3.157619087388407672e-03,-9.796178837328065825e+00
9.639321569526040434e-04,-6.816669275754483510e-03,-9.795657972022889126e+00
-9.508765328256575319e-03,2.669042254263075814e-03,-9.793749552322816854e+00
1.372170509413584262e-03,-3.829148137713156083e-03,-9.791648296124012774e+00
-5.591709714804478024e-03,5.261748132005603616e-03,-9.811871543255557881e+00
-5.348419004611958474e-03,-1.431245950316865825e-03,-9.786753076681803165e+00
6.478446762427985881e-03,2.529752074222337607e-03,-9.798466222081041010e+00
-9.193216844569375087e-03,-3.133041366173723325e-03,-9.788602336272431259e+00
4.292082287989933131e-03,-8.838470110770354007e-03,-9.784349508146938490e+00
1.083197718875948288e-03,3.135680399629426404e-03,-9.803832164315142705e+00
1.006901932018357780e-02,-4.241948243563126750e-04,-9.789306393271981932e+00
-7.720763761895995357e-03,1.422807034663518908e-03,-9.795947738937051952e+00
2.429963895137300049e-03,6.384713541579827185e-04,-9.782287424963600486e+00
-8.254636379973343679e-03,1.292451146679996291e-03,-9.791551862357405156e+00
1.010813801576115759e-03,2.824263200321107826e-03,-9.786497343393094184e+00
-1.902727603049985056e-03,-1.107190036557576928e-03,-9.802455118078427176e+00
4.196397456217451985e-03,-2.103844159832200214e-04,-9.798636566866047559e+00
4.429938987661342052e-03,-8.255953536971304130e-03,-9.787428641308853372e+00
-4.700359538028337468e-03,-6.939794162913276616e-03,-9.801588152646449004e+00
1.062855978535008281e-02,9.644100452449302918e-03,-9.779902098658368459e+00
-8.077875358501433387e-03,7.112098700461044927e-03,-9.793569548556829929e+00
1.118400721364298453e-02,-3.778931598162083363e-03,-9.782297190836924727e+00
-3.828074382874084320e-03,-1.269154439426679057e-03,-9.797757301473708935e+00
-2.208315529974325467e-03,5.449651243830642977e-03,-9.790308281999973161e+00
2.614641369640500947e-03,7.864369492574345422e-03,-9.805874124178055595e+00
4.706811144367547411e-03,-3.806675098300597079e-03,-9.799450752493260808e+00
-2.134955651523181338e-03,-3.103972067360868600e-03,-9.786337932965368580e+00
-4.103547617113127016e-03,-3.257168047873069613e-03,-9.804766363173955668e+00
4.679167908749295134e-03,-2.196114256713573888e-03,-9.794098148927895764e+00
4.570388534978112906e-03,-2.254748742091271674e-03,-9.803471428783721464e+00
-7.418807935793968493e-04,-2.252996785106949236e-03,-9.796152687913417978e+00
-1.128986824963266545e-03,-5.813286405008091275e-03,-9.794406032381095528e+00
1.285385336228292256e-02,8.209241871441496806e-04,-9.794208491013469242e+00
-1.823137261409627516e-03,1.445601683597515057e-02,-9.813179855788639827e+00
-1.322986661070200704e-03,-1.532379866237104996e-03,-9.802516448443276076e+00
3.470584905221017150e-03,1.087954486234703894e-03,-9.790270806855886576e+00
-1.395256254873542077e-03,-1.143191870345443501e-03,-9.790158032577320313e+00
1.574788306994203638e-03,2.074598936120478857e-03,-9.793196668633298074e+00
-8.711401957519604097e-03,-3.336220358075166724e-03,-9.796167861632575580e+00
5.673720158355176997e-04,3.691130956235245215e-04,-9.799145957963295572e+00
-1.804577802468448813e-03,-3.181719215380947405e-03,-9.795719265406754417e+00
1.188005622102394215e-02,1.208202024818322030e-04,-9.785764130854131437e+00
3.704585127506048077e-03,-9.270295991736641388e-04,-9.793622163755207666e+00
-2.148046962126714046e-03,6.995462684987013543e-04,-9.784619481021533005e+00
2.379068211245797138e-03,5.342711862492950312e-03,-9.812772503615178721e+00
-1.513315757299220398e-03,9.579343197640664831e-03,-9.793683239302589882e+00
-5.762987437828328945e-03,-5.083927719321496106e-05,-9.789165857720693253e+00
-3.377986014535458263e-03,-8.211746409761983695e-03,-9.795470483029514952e+00
2.384405506751699228e-03,-6.329073757231372388e-03,-9.802622166357700451e+00
-5.967869085104189099e-03,1.679315977788414490e-03,-9.793151992193346089e+00
-5.788221098982482445e-03,4.572359206438224820e-03,-9.799067362929243075e+00
-1.321511418814361877e-02,2.919566373783509527e-03,-9.791690905454558447e+00
-1.445150577127722429e-03,3.244515819362887767e-03,-9.788642748020947693e+00
8.750278942442749064e-03,9.795375621951296283e-03,-9.801730300905376225e+00
6.349817659371279586e-03,5.048638187643650008e-03,-9.806126581522644159e+00
5.828526349872071525e-05,1.022999955765434808e-03,-9.788905518135187833e+00
5.322315012333866989e-04,4.753146262657056455e-03,-9.783450680911265351e+00
-9.074973542110448830e-04,-7.258065056637232407e-03,-9.797742799757790166e+00
-7.280165485609805523e-05,2.492813123370892035e-03,-9.799034250038268112e+00
-5.923342984077874587e-03,8.065354601230196978e-05,-9.802177717358125264e+00
2.254933812815006038e-03,3.740129180366018151e-03,-9.784378822875194004e+00
-1.655276312558894144e-03,3.522159029667625962e-03,-9.793494853279826273e+00
-4.167899923409170392e-03,4.315638311744179195e-03,-9.780336414810761880e+00
-6.542384385062645011e-03,-1.245896894983442526e-04,-9.789913613964781547e+00
-5.443492097531905591e-03,3.247489456985554971e-03,-9.794595773567611019e+00
-5.133476149728476460e-04,-8.464243728080014448e-03,-9.783122455000283324e+00
4.426960523165779544e-03,-7.127337225918706784e-04,-9.794435929892651771e+00
2.026535590382866174e-03,7.070310417270793662e-04,-9.792745552265289533e+00
3.062354925970483220e-03,3.500327939591632489e-03,-9.786425830668839865e+00
4.412446354704673175e-03,-5.207084481851692072e-03,-9.816825266761423308e+00
-2.190676659500346603e-03,-7.188693068872265002e-03,-9.796777636430237024e+00
-7.117126289341050779e-04,3.121627574393355444e-03,-9.794507106749726688e+00
4.928324967121660086e-03,5.552149735234204395e-03,-9.797701328390468589e+00
-2.516722814542203535e-03,3.245244724588305582e-03,-9.792990142353618310e+00
4.835251999091596392e-03,6.448671232988342598e-03,-9.778736162378475427e+00
3.954782076275314626e-03,-4.916219408179073325e-04,-9.796087563932946551e+00
8.663322488576931726e-03,4.892219799974495886e-04,-9.783809237355171717e+00
-3.291656461258820211e-03,5.953579039628621207e-03,-9.797237468896366153e+00
1.524739337173471217e-03,2.054796682849413959e-03,-9.800481007130306566e+00
5.325653416689035344e-03,-2.537153374751263766e-03,-9.780509523509481440e+00
1.228762929794623236e-03,1.351881363205294576e-02,-9.786111996798362966e+00
-7.129684439280749644e-03,-5.481145186229455100e-05,-9.790886005077011234e+00
-1.231656078899903998e-03,-5.555006754336398386e-03,-9.792612994604729337e+00
-5.839503416371755011e-03,-2.519933108821533624e-03,-9.792604291305140762e+00
4.969877873071717718e-04,1.328247814509523424e-04,-9.798314505032159616e+00
9.166240131940447261e-03,-6.196195105161520812e-03,-9.785704284454872948e+00
8.537785110690065613e-03,-6.760716137838993639e-03,-9.805624944364481621e+00
-6.411195694612031697e-03,-6.488967587141264426e-03,-9.794113296316742989e+00
-1.253223932410624112e-03,-3.156602584677403820e-03,-9.786414438845385533e+00
1.550699826673460156e-03,-7.873949437279105599e-04,-9.802191031311799918e+00
1.692541086955100065e-04,-3.662555282259131930e-03,-9.789961728437784672e+00
-1.588686797351921429e-03,4.594210133371761490e-04,-9.792076746654297281e+00
-2.829551375169093302e-03,-1.429836574305231103e-02,-9.782910938172483029e+00
-2.576892656124683562e-03,-6.603156663078168544e-03,-9.787478404353809225e+00
1.729332723807719689e-04,4.192400629499177384e-03,-9.795220656759450861e+00
1.263205282674745040e-03,-4.297821694743178197e-03,-9.814379310923944999e+00
-1.369903633026709183e-03,-1.158609063100861716e-02,-9.797842117666805350e+00
-4.970480316554606523e-03,6.027142045239686219e-03,-9.794388520324295300e+00
-2.458287859831668077e-03,2.205421183192259483e-03,-9.802372667368858927e+00
-3.442767726239064335e-03,-9.795311642820892992e-03,-9.797317529805598113e+00
9.776805528786220931e-04,6.345861015386223712e-04,-9.791986455009446644e+00
1.480053706292415070e-04,3.285316441155847894e-03,-9.788144062215691221e+00
4.174304881615899417e-03,-4.040011119948947729e-04,-9.797497399799631523e+00
-9.385151832302461702e-05,1.597778549442681675e-03,-9.790876134841163037e+00
1.966344839860403523e-03,4.277653863424604568e-03,-9.799493620259724480e+00
8.890273198981227948e-03,-3.827204923914167677e-03,-9.789673056637738568e+00
3.887765004179973699e-03,2.146759940652648042e-03,-9.800374454789144707e+00
-5.659976366265215796e-03,-1.351125393422794672e-03,-9.791035770723564013e+00
-4.187602900221430724e-03,5.129463188856402643e-03,-9.799867845325810123e+00
3.228648205441833879e-03,9.413128852455030437e-05,-9.798049617517603949e+00
4.050854651984038372e-03,2.173493290220554486e-03,-9.801317363270570127e+00
-2.810633883476561321e-03,1.753518034037427091e-03,-9.802556098644844340e+00
-4.493195932939481052e-03,-9.641718946686255289e-04,-9.792628069894249165e+00
-2.956825866469022564e-03,3.298152151419902599e-03,-9.805640421937015461e+00
-4.963674206424332873e-03,1.357778429405043230e-02,-9.784868626389039648e+00
-3.212409047260879509e-03,-1.890545080752424915e-03,-9.803475652472593893e+00
-2.138550828085989883e-03,4.911025886970754074e-03,-9.789952329167652678e+00
-6.294755286009276127e-03,-8.935375509803321695e-03,-9.804086796331779041e+00
-3.214344741164708004e-04,-2.324179105932415185e-03,-9.800155733659584811e+00
3.532088083404293956e-03,-2.570510824972240679e-05,-9.791445114704835362e+00
-4.220886049730554826e-03,7.506024180773658658e-04,-9.790696373375185502e+00
2.679461129400314851e-03,-2.933105799889821567e-03,-9.790279222172244999e+00
4.264924413151284684e-03,-1.134895731723964581e-02,-9.796463038665375933e+00
9.151350592811751880e-03,-1.126758872083799112e-03,-9.806865758900242369e+00
-2.157569148009395345e-03,-1.500887964760396452e-02,-9.793605853304807596e+00
5.451588606785119813e-03,2.615153973557995774e-03,-9.789220722990494394e+00
2.782997332057072538e-03,-1.801238349136794056e-03,-9.786122388449705056e+00
4.152741160364835854e-05,-1.428464773635497193e-03,-9.788356723303474283e+00
2.441971748439960860e-03,3.493025081807205512e-04,-9.798145653264100474e+00
1.880851067635178281e-03,-1.956208626096605629e-03,-9.793559939253237090e+00
5.432214078630225040e-03,-3.928596600817620826e-03,-9.783850257679159057e+00
-4.155937874892799005e-03,-9.940693181999884359e-03,-9.793308607724274140e+00
3.516388677726730271e-03,4.483684888474805813e-03,-9.784619142285656324e+00
4.510251084161405119e-03,1.978622412738852403e-03,-9.802457795685850073e+00
2.319161488694988262e-03,3.289825293823040678e-03,-9.796550182916503147e+00
-8.571923769633013959e-03,-1.141313095388348398e-03,-9.798261586410644597e+00
-9.410736928769758425e-03,2.157480224645979151e-03,-9.787827578453240918e+00
2.251794331338234732e-03,4.582039941055875793e-04,-9.796772182701380061e+00
-3.412054487098156383e-03,-5.453469240182847420e-03,-9.806201234114295673e+00
-6.860511262285207135e-03,6.977978252123810676e-03,-9.790220865507066605e+00
5.626455089444865401e-03,7.594960150825258525e-04,-9.801666483156086684e+00
2.178402689942167923e-03,-9.998211313354875372e-04,-9.802177522591469128e+00
-4.736178380256553418e-03,1.594051230777572374e-03,-9.795850004243034093e+00
8.161265304738778495e-03,2.479129310603186889e-03,-9.798445676257967918e+00
-5.694500474499238421e-03,1.516607060821354791e-03,-9.794110081342230600e+00
-1.045274964624841665e-02,4.460064547763343060e-03,-9.794608328540906683e+00
1.386985073551602610e-03,-4.980792283043405932e-03,-9.796533819458925763e+00
2.166072767011287606e-03,-2.825439191104765378e-04,-9.797651177088461338e+00
1.441547490953492758e-03,-4.544937559337401678e-03,-9.790480160706405144e+00
-2.344707618459143834e-03,5.330084975216701354e-03,-9.779774082069014440e+00
3.896500030356034316e-03,-7.952094062296098664e-03,-9.795890278068323909e+00
-1.128644034845979922e-02,1.491752756349080857e-03,-9.800620588074403727e+00
-3.777049502144142010e-03,1.699880219193168249e-04,-9.800289853675483442e+00
-8.603115005715492036e-03,-7.518618438031184591e-04,-9.795742391721024234e+00
-2.094089558045244930e-03,1.881354588984334407e-03,-9.792104773590764921e+00
-2.304529466433557702e-02,3.972300266186849262e-03,-9.781746515599417435e+00
3.455336993462866917e-03,-1.762706518910307687e-03,-9.797951280261194995e+00
-3.970427235593668169e-03,-6.151596040387790829e-03,-9.790422878965465259e+00
-1.207418819758755181e-02,1.785707746847548958e-03,-9.810898823011770631e+00
-1.174875845589317238e-03,9.198208577972388084e-03,-9.791181526052215034e+00
-5.574955625697203612e-03,-6.369299889206084773e-03,-9.799457218345166254e+00
8.103512774432818436e-04,-1.189730718295014351e-03,-9.792296760894878105e+00
-2.559183250341883105e-03,6.386359932278594907e-03,-9.806279936564038735e+00
1.883660885445641395e-03,-5.003724052399472107e-03,-9.795753912848763179e+00
8.321537959694938480e-03,-3.183342237892356288e-05,-9.799379185704387041e+00
2.330319523463681222e-03,2.411788484822148786e-03,-9.794278549855377491e+00
-2.205387656358243856e-03,-7.461859481106861321e-03,-9.792866354989781641e+00
-7.316461984080872361e-04,6.267553291104953871e-03,-9.788969318571549394e+00
2.092222243150173525e-03,-1.000827266890881237e-02,-9.785263771698096136e+00
-2.198182056251224079e-03,1.128196339407909734e-05,-9.793379640369678896e+00
-8.982447503111239476e-03,1.785571405727173116e-03,-9.789596045861822304e+00
4.273292778072682388e-03,2.302026709766632605e-03,-9.796866745981230196e+00
4.794911548093412461e-03,4.425006094964667631e-03,-9.797244914429422025e+00
3.231174265355811828e-03,-3.244079466081172328e-03,-9.797196588409553542e+00
3.820063540505097988e-03,-4.418158843662999425e-04,-9.805253101598387033e+00
5.061679002512468883e-03,-3.057219105695861260e-03,-9.791421200991470286e+00
-3.723277016919708787e-03,-4.505091780433933754e-03,-9.805823851666238156e+00
6.027444795440130071e-04,8.693660435440708420e-03,-9.790221634183255972e+00
-1.319637996038241709e-03,2.393613091076448630e-03,-9.790514519072660349e+00
1.882242744813346098e-03,-1.723719839083059620e-03,-9.800609854620615735e+00
-3.261123858687982693e-04,-4.342448299763229484e-03,-9.807313099110061216e+00
-2.569928663405943430e-03,-5.357738422752402439e-03,-9.797660118352599312e+00
-8.670806267149696114e-03,-1.001420893458241680e-02,-9.795200328745005791e+00
3.127432343500675688e-03,2.119789459186220259e-03,-9.791020377508406369e+00
-5.550122390628605198e-03,-6.861658078977343625e-04,-9.797820511699800505e+00
-6.230954876203020215e-03,4.888789001375523115e-03,-9.789947023441387230e+00
-7.035237640903788114e-03,-7.884690340506613979e-03,-9.796321894488331239e+00
-3.679176609967366694e-03,-3.253039859204609474e-03,-9.791476561700797276e+00
-4.902156922715900610e-03,-2.792914509032594795e-03,-9.797965525323968805e+00
3.337311020331016308e-03,5.145603758136389934e-03,-9.792242090146718425e+00
5.303460161745130602e-03,1.052345458959635591e-02,-9.794152684630207162e+00
1.974951815929991937e-03,2.867977294715913852e-03,-9.790521607252538061e+00
-8.371669292115881816e-03,1.206324353739713457e-03,-9.790764330996363896e+00
-9.763928216714966996e-03,-2.414269518779863823e-03,-9.796572077714142068e+00
1.608724700479662040e-02,2.569364505352087630e-03,-9.796450990619112176e+00
5.318208741827562536e-04,-2.675394223132909494e-03,-9.798398419951261928e+00
5.103418849483353642e-03,4.618269338777713715e-03,-9.785288808021331164e+00
-1.359590895498490179e-03,3.664845892379067684e-03,-9.795264120245217754e+00
-2.107588229818710586e-03,7.053301522042456240e-04,-9.794323716298503513e+00
2.258939622221663689e-03,4.219310153447464358e-03,-9.802230966277770463e+00
-5.917694899267718703e-03,-3.881738882281139560e-04,-9.792326827176900395e+00
3.338057865107594245e-03,-2.661571367962549915e-03,-9.801245191486282593e+00
-7.793870151095538476e-03,-2.825123929176944718e-03,-9.798883170895285488e+00
5.289021649897392499e-04,5.354296143946747459e-03,-9.793932864717483255e+00
2.661918195185274290e-03,6.088999402019082408e-03,-9.800532047521647527e+00
6.348163149397571120e-03,5.349092917820395809e-03,-9.808970609488369519e+00
7.462349324680756305e-03,-8.711407381104258399e-03,-9.804419569807832247e+00
-2.128376557307675668e-03,-7.284185498642814852e-03,-9.789216195102916629e+00
-6.150659187957881191e-03,-3.912057049188467570e-03,-9.804701676561563772e+00
1.218673659248354453e-03,-1.226229374012479962e-03,-9.795835835657921820e+00
-5.302231398251274104e-03,7.198092215558482207e-03,-9.793585085274273183e+00
-6.069442522494518551e-03,2.968754109760285594e-03,-9.799687355429613334e+00
-3.820362067754574410e-03,-1.836909582710456994e-03,-9.790165136682608349e+00
1.347641321741124528e-03,-2.115184703121692367e-03,-9.794948950507682994e+00
-5.160123600925236621e-03,-2.170356965745313602e-03,-9.798016248625893709e+00
-1.168871162725875889e-03,4.798901945388996636e-03,-9.790632314963161775e+00
-3.897880371128425460e-04,-9.334527585624825558e-04,-9.809699152324315108e+00
3.067591087303155311e-03,4.658074970877163282e-03,-9.773556541352130367e+00
-5.107619417170182604e-04,6.772568898356859032e-03,-9.793122230613626300e+00
6.081545560201017785e-04,5.182405563146913821e-03,-9.798146905072984580e+00
5.413236468258100570e-04,-3.267511739121473514e-03,-9.803349827691933527e+00
2.277368994026215553e-05,-9.159814075244415363e-03,-9.790164704832680087e+00
-1.811427029404303647e-03,6.516153339898940813e-03,-9.802411555520572861e+00
1.132554100128658862e-03,-1.429752805655248524e-03,-9.797225364038588680e+00
4.417001989403818033e-04,-2.401073911353721752e-03,-9.803419327289194740e+00
2.786698474845495602e-03,-1.780099329273479732e-04,-9.782982065550925199e+00
-8.122008867198207346e-03,7.895841218242105608e-03,-9.810108698188443554e+00
4.252767632269674296e-03,-2.391704444153416442e-03,-9.798655211338338944e+00
-5.656944280710090277e-03,8.209833885591740496e-04,-9.790082223405699224e+00
6.701135435759403812e-03,-4.107578471653509401e-03,-9.796549898200016315e+00
-7.458291395662706297e-03,-2.826947002120145432e-03,-9.799715788703307950e+00
-5.971283007378117187e-03,5.342884656015946428e-03,-9.807833034358427682e+00
4.084040108481398930e-03,3.059632134311937070e-03,-9.802890043520896768e+00
-1.338050045981715834e-02,-3.196577355594555029e-03,-9.799569095311834843e+00
-3.832405132156956593e-04,-2.495522590809233585e-03,-9.788959559495367557e+00
1.297658718623826606e-03,4.847668754895066885e-03,-9.799362490788990243e+00
-5.016545445021378113e-03,5.826848711649517884e-04,-9.809562188032501240e+00
1.938836039290489687e-03,2.924473632960692890e-03,-9.797722445000042413e+00
-5.111115187453414178e-03,-2.444373268341960316e-03,-9.786676010997512165e+00
1.034764851899033387e-03,7.018853755252503143e-03,-9.802745571475089292e+00
-1.890982899358075245e-03,-2.196420156721663134e-03,-9.801151997344669908e+00
4.100446175676337568e-05,-6.894259929684816782e-03,-9.795869283126046767e+00
1.173947254409692630e-02,5.999648319661880953e-03,-9.789174680531974815e+00
-4.435200428632317393e-03,1.291328114198064030e-05,-9.795595680445250863e+00
-1.010435749858828525e-03,1.958807934606054783e-03,-9.794571171894766337e+00
-1.292103059178887226e-03,1.101438928500531175e-03,-9.785131352843267294e+00
5.862825255051344088e-03,8.247717817628286152e-03,-9.790177700315728870e+00
4.580901374948608690e-03,-1.967695061770874214e-03,-9.793422217069725377e+00
-5.688743704989163846e-03,-5.277823739217576970e-03,-9.791392127187879879e+00
7.864393354781408149e-03,-4.980862600312249743e-04,-9.786593365802849220e+00
-6.978637445989555824e-04,8.723550530943291123e-03,-9.807307748005008818e+00
-4.200414296316760596e-03,6.377675000566218264e-03,-9.802472390947180259e+00
-1.064653925134984719e-02,-1.226454610865322170e-03,-9.784742370627878216e+00
-2.551329984954155638e-04,5.957817825399721462e-03,-9.792598575582546871e+00
-6.914583910805888363e-03,-6.756669292976698543e-04,-9.779785834696061997e+00
-2.593225329122561020e-03,2.097727215446808582e-03,-9.787973932192061355e+00
2.257085321106243846e-03,2.034330081356943744e-03,-9.797153920578756114e+00
-9.421991036459072960e-03,-9.005583699642781591e-04,-9.802146988389965898e+00
3.236815680609725896e-04,-5.401218988496943318e-03,-9.811982934906591680e+00
8.402353747053536645e-03,-1.610653743711343679e-03,-9.792218941683669797e+00
-2.825902262351770878e-03,-2.665491897303493528e-03,-9.775503453328177272e+00
1.549048556613910480e-03,-8.671566964680313405e-03,-9.790582608472524484e+00
-1.571723299468984203e-02,9.352016061790178331e-03,-9.789198755791245432e+00
-8.621102586468953541e-03,5.148861468907961307e-03,-9.807366834453615567e+00
-1.849950443408839972e-03,-6.419109707800859689e-03,-9.790675877432423846e+00
-2.912809727540573504e-03,-2.683509460977695407e-03,-9.795232804139216043e+00
3.395070915795895205e-04,2.068084998213926429e-03,-9.816855154900231639e+00
7.530270615538717585e-03,-1.088207913726344477e-03,-9.796275467109033741e+00
2.902868287563791210e-03,-2.859989538449092018e-03,-9.787612481679127896e+00
-5.478347850320316494e-03,7.475391651661311785e-04,-9.796827633481179021e+00
-5.485201295030607029e-03,-1.869536058487519933e-03,-9.781754372426387789e+00
2.766511867109603447e-03,6.612007206375642744e-03,-9.793720787193851862e+00
7.251580821435310055e-03,-3.775746507988937337e-03,-9.793365714311189407e+00
5.437845909607298515e-03,2.708847127756631567e-03,-9.781047409879814580e+00
7.383347910872720197e-05,-6.489782395244511962e-03,-9.803459821412877417e+00
5.660915610936155702e-03,9.777668241657018824e-03,-9.792294535223179608e+00
-7.608670746783618988e-03,-5.285790472564553741e-03,-9.798929347647831634e+00
-8.233229272446449193e-04,-4.143762617104774885e-03,-9.801974384506525695e+00
4.226398272323579619e-03,2.085743296108822503e-03,-9.782411604531123572e+00
-3.611029724433450594e-04,-4.880162063624701382e-03,-9.794402090793408178e+00
6.735928075496064663e-03,1.114524550332584435e-02,-9.791034258903803078e+00
3.337169711364085765e-03,-3.880654551069159580e-04,-9.784105422428993393e+00
-9.795644671779566923e-03,1.711831247138816819e-04,-9.794884133864185216e+00
2.250725989751920040e-03,1.435163936270382988e-03,-9.808162920345676383e+00
4.451330529803115311e-03,-4.916004575441242259e-03,-9.788594826677472938e+00
-7.508360894343031437e-03,3.853949774717036793e-04,-9.785896084853083821e+00
-5.614506707440543656e-03,-4.239958215366279766e-03,-9.786776767587214820e+00
-8.423403951632209979e-03,1.084769759036393125e-02,-9.796161468280754292e+00
-4.373788231775001950e-03,-8.371542309104364980e-04,-9.797180042015927626e+00
4.861591030637265470e-03,7.629627835803680543e-03,-9.805651828433425976e+00
4.415068969708305265e-03,6.180554805915515308e-03,-9.787632720507055240e+00
9.127059867427032847e-03,2.142670069675071867e-03,-9.796598396848381185e+00
1.450723634257947712e-03,9.040730059519349812e-03,-9.797156185263947492e+00
-3.211365486038939877e-03,-1.733220987389372681e-03,-9.803418960943437455e+00
-6.685887160657136633e-03,4.225331106029133095e-03,-9.780914442199261316e+00
1.906452243109338970e-03,3.213673445233574191e-03,-9.796098627478780685e+00
4.996793637713031169e-05,4.907788879249040903e-05,-9.801238638582701057e+00
3.588770178076773187e-03,-5.998833329732946966e-03,-9.801397200921741160e+00
-1.283306838381577213e-02,2.599125547188045615e-03,-9.789765837083372446e+00
-3.335843257025458437e-03,-1.157315574520560372e-02,-9.789319735613895901e+00
6.918337393593276992e-03,-4.473312098568834640e-03,-9.790624328608407367e+00
-5.753787161329437447e-03,8.380650237470444255e-03,-9.781109403809299607e+00
4.094592179222436568e-03,3.403760226976528316e-03,-9.795638906024763060e+00
1.093593150403441953e-02,-4.233680670465843517e-03,-9.780046460957629861e+00
3.212046598720577975e-03,-8.623540256658010451e-04,-9.792389145785916682e+00
1.198429173849831740e-02,1.643365300325528048e-03,-9.798703671221657530e+00
-8.476934520522467348e-03,2.599478023465988386e-03,-9.802787253540655499e+00
3.563170000061453499e-03,-9.569484875387930176e-03,-9.785098605444924047e+00
5.729955370013096669e-03,3.811197314047990847e-03,-9.784821074322328727e+00
-5.207265417551332036e-03,-4.277703337690324376e-03,-9.799175631505717021e+00
-2.008565034825127507e-03,2.353853586360624541e-04,-9.797364954246209123e+00
-5.172166904591449232e-03,2.564226025412137417e-03,-9.791672949362157041e+00
-1.727152731158089396e-03,1.225700986767562116e-03,-9.785668900964459738e+00
-6.453728099288349833e-03,4.254877754949861098e-03,-9.797184903889013086e+00
-7.658037353056650239e-03,7.751658760567881057e-03,-9.792103281450952323e+00
2.514598302099172768e-03,4.540381352093002774e-03,-9.794049989917985144e+00
-1.140933669573123387e-02,5.720973181549301491e-03,-9.788586927696309559e+00
1.957720525778618593e-03,-3.469519269132150061e-03,-9.806045114748837221e+00
-5.635315982416812947e-03,1.903027670524340973e-03,-9.806372262789761152e+00
2.145053531416692832e-03,4.514542908628162588e-04,-9.792279286815640305e+00
-7.370021367985798988e-03,-4.382388219719641001e-03,-9.789748729686849060e+00
-5.255182744334128356e-04,4.536875237285719828e-03,-9.807736137007948329e+00
6.753235024356621114e-04,-1.319159743798986031e-03,-9.794266609919809241e+00
-3.652606026016571791e-03,1.441193404213144628e-03,-9.793192343506227360e+00
4.282340451715038569e-03,4.021334977830299043e-03,-9.788045220725551943e+00
1.465129270100226601e-03,-8.096280179665916663e-03,-9.788844657605718425e+00
-4.681277659473188045e-03,1.493066391022272862e-03,-9.783549724406704229e+00
-4.103808665439786195e-03,-3.161469122125259534e-04,-9.796009031013861446e+00
-1.972820003527249368e-03,-3.614720996067002836e-03,-9.787182721207644320e+00
-1.611447551344121843e-03,-2.381936846434312260e-03,-9.795015355243362976e+00
-3.750029171850214390e-03,7.168800116213817561e-03,-9.792337277622907621e+00
2.195916441710420424e-03,-3.217254543697115662e-03,-9.790390343503791115e+00
-4.817378323233074619e-03,4.133319555684242426e-03,-9.782552089351760571e+00
-4.077784968197733346e-04,-4.097516348860876650e-03,-9.789140696073221903e+00
-4.189631650560143167e-03,-8.837325251572611742e-03,-9.815777797446779473e+00
2.278704935102658820e-03,9.310900996236024657e-03,-9.789043690360557548e+00
-4.809421643317762264e-03,1.164825324003840226e-03,-9.795192490703309218e+00
-1.461411537129496830e-03,-5.996491475459018138e-03,-9.805477907560071316e+00
3.267930409408809208e-04,-6.504989622041393305e-03,-9.802169134280136475e+00
4.290737562536219192e-03,3.487190652923437360e-04,-9.789314567060195316e+00
-1.907067107815853604e-03,-2.586905451544040026e-03,-9.797903249497643685e+00
6.010202336366838108e-03,-8.283121905674324659e-03,-9.794704740715530988e+00
-4.766566275344017410e-03,-3.265977352393266680e-03,-9.802318048519898852e+00
-1.187795860600570063e-04,-6.002981374895032668e-03,-9.787559022419470622e+00
6.918603369362203749e-03,1.085338351038279102e-02,-9.794291450413650679e+00
-6.570109894305538453e-04,-5.182738517892055731e-03,-9.808569908249694436e+00
-3.324324149953957266e-03,3.119044316774173911e-05,-9.795486293302060332e+00
-1.018903164379875203e-03,1.155801129673621642e-04,-9.785017103599935595e+00
-2.414466334219984682e-03,4.353786027977219614e-03,-9.791349584099233283e+00
-6.542747018593407862e-03,-3.243675147246541466e-03,-9.801984354491482421e+00
-9.045661080588611068e-04,7.689915099555258426e-04,-9.804234361546452448e+00
-2.615453700003436514e-03,1.569632206079274797e-03,-9.794711805569031426e+00
-1.475921877407534912e-03,3.561897353486123251e-03,-9.792091918973325093e+00
1.031419149893538336e-03,1.959067975919877996e-03,-9.796679088996251394e+00
-2.233385744663933005e-03,6.396528166753108133e-03,-9.794286808547875367e+00
-1.690217743064213827e-03,-4.617219344275880037e-03,-9.805740683106080269e+00
2.761352120345195085e-03,-1.359996665031999903e-02,-9.789323424262635243e+00
-7.035480176697726969e-03,-1.236443978317688583e-02,-9.798072015476844143e+00
5.846483188196891639e-03,-1.419669317777436449e-03,-9.788807140602367340e+00
7.382238308304285047e-03,-3.896300931169504461e-03,-9.790596397894926639e+00
3.333031111683308189e-03,-4.186392960654081175e-03,-9.800199366236842735e+00
5.177780037217403521e-03,2.675518087168254813e-03,-9.792872384489180959e+00
2.833429612090460179e-04,8.315520021285872226e-03,-9.791416754971191239e+00
-9.040529894718124515e-04,6.654477118207899854e-03,-9.791935438556103932e+00
1.257654215762395861e-02,-2.181819389916523320e-03,-9.792768984786814457e+00
-5.250380514992289936e-03,-1.130423413607932167e-03,-9.794535013647951871e+00
-7.747513616038883893e-04,-6.409140678800473098e-03,-9.783785854216155542e+00
2.235182684137340149e-03,1.196409498300319467e-03,-9.803703737243578686e+00
-5.854029506784892006e-03,-1.041833039902042646e-03,-9.783701936920795816e+00
4.713829743225939235e-03,-3.007813531560100864e-03,-9.794206901152376687e+00
-8.961505694761343760e-03,3.557776706905754326e-03,-9.799648806588933780e+00
2.007033682478141789e-03,-5.339064056252993719e-03,-9.795618513795433913e+00
-4.349812917904661777e-03,7.269562949459444689e-04,-9.790826583739441702e+00
2.361628908288346609e-03,-4.654278261438027559e-04,-9.793860315935024374e+00
-5.029341523652493436e-03,-2.356991689781919204e-03,-9.786443977972169250e+00
-7.400960757749263340e-03,-6.863431764593449017e-03,-9.780294672900680553e+00
-4.160677403739651732e-03,-1.194824698346350295e-03,-9.804659489873442269e+00
3.066007074413003471e-03,1.038013790989250184e-03,-9.797941410273789842e+00
6.311858697228357783e-04,5.075815481579739642e-03,-9.790882738984068467e+00
9.141995930375875282e-03,-2.948705418261124336e-03,-9.784066461236559320e+00
-7.353084290961840741e-03,-7.635502087358615958e-04,-9.789402950621489907e+00
-6.096465189215014013e-03,-3.375749404100728077e-03,-9.796921503728077241e+00
6.229336108982329485e-03,-7.804247381233537194e-04,-9.798562879228391864e+00
3.345471806516454242e-04,4.254097636343621112e-03,-9.798855170219560762e+00
3.067912105225028565e-04,-2.397458660024645496e-03,-9.790363781221575579e+00
9.111454949774774187e-03,-2.164381621175028893e-03,-9.807458232422037625e+00
4.403283787805717386e-03,-8.951614382529313445e-04,-9.793001265566140034e+00
5.084973333548293596e-03,4.472137802759453690e-03,-9.797329432162172225e+00
3.342316277914950725e-03,-9.538011531260218428e-05,-9.788058826842357618e+00
4.016452744045370779e-04,-1.795417178170281153e-03,-9.783752715546281564e+00
-3.114997777072499221e-03,-7.014621948238775224e-03,-9.790483056189438926e+00
-6.643204598039366936e-03,-1.360242541678879707e-03,-9.800209520592968460e+00
9.384954595981402289e-03,-7.694321291227455839e-03,-9.817685564361770645e+00
2.899333546847782800e-03,4.679093409406110196e-03,-9.786378945953661201e+00
-5.696893106566893947e-03,4.991066812463918791e-03,-9.785779717828260615e+00
-8.492401787940806468e-03,3.297852058650885786e-03,-9.792654315890262140e+00
-3.855551161221331888e-03,-3.888610241481787501e-03,-9.808932987602997144e+00
-8.567295100738956184e-03,-4.826191706327811744e-04,-9.797098008361157184e+00
1.072014284402734476e-02,2.054406981921852796e-03,-9.792147107390789529e+00
4.292213847085821210e-03,2.654744091563473064e-03,-9.796631389423296810e+00
6.474092792347886823e-03,2.782537392727550533e-04,-9.789652599132310229e+00
-2.551753933820170741e-04,5.478748229425308910e-03,-9.793435073203152541e+00
7.336549062097155044e-03,-1.341170833202508326e-03,-9.791016235125262313e+00
-4.970849235441944861e-03,-2.898987419205432958e-03,-9.791183735719203085e+00
1.120539919539999436e-02,-5.199036006731245531e-03,-9.783897251854309474e+00
-4.422459426603943147e-04,-4.578003497667938737e-03,-9.795505933994261838e+00
-5.839416361740040751e-03,-7.929295536223450458e-03,-9.815028788650206337e+00
-2.296941499067644676e-03,7.455282401963812637e-03,-9.799572271601050488e+00
-1.875659074250674843e-03,-1.559928152056245122e-03,-9.803059935266970726e+00
2.294250024114881381e-03,8.715652312415951347e-04,-9.784002375583233047e+00
-2.343863394251659380e-03,5.950188496339525387e-03,-9.790065029272195574e+00
-9.022059492812489409e-03,-1.316911637362090659e-03,-9.802640816586057682e+00
8.745967630633478054e-04,-1.659727509537599994e-03,-9.793025920012315311e+00
-3.392915060643251959e-03,6.294771218073369262e-04,-9.806692911551111891e+00
4.805754744746281761e-03,-8.197025659864611014e-03,-9.808688042569075449e+00
-2.627648618158049711e-03,2.254913416675682555e-03,-9.787254474801565962e+00
2.597942294027823468e-04,7.966212415904217609e-03,-9.791708003685203110e+00
3.215409296289317535e-03,-8.355017240374202486e-03,-9.794964562509582251e+00
5.681513134859837721e-03,-7.220867306252134500e-03,-9.800089556568101656e+00
2.738705693514822091e-03,5.575563968302612965e-03,-9.792781844179085482e+00
-1.687984987271877544e-03,6.744073406890754331e-03,-9.809792164017489213e+00
-1.097937987699008737e-02,2.564136106614925067e-03,-9.800242417942707007e+00
5.923642394111429919e-04,-5.679932537731538500e-03,-9.799706709385253234e+00
-1.119251619428606945e-02,2.644708260655672782e-03,-9.787369202870436879e+00
-9.544918975273992967e-03,8.485452946635497736e-04,-9.791845044843986656e+00
9.376795952072651888e-03,4.962172272308749271e-03,-9.790309203555546347e+00
-1.442842834235443916e-03,-4.788128093295614292e-03,-9.801510772109407910e+00
1.704981537707936715e-03,6.462754043857802614e-04,-9.788022987466085567e+00
6.684339098979907683e-03,1.643317123259330301e-03,-9.791031103736777652e+00
2.337608645990842983e-03,4.200068763142878261e-03,-9.802343916178321237e+00
3.660168650009228836e-03,4.255127887303563998e-03,-9.791186124409840374e+00
2.558003202356607265e-03,-2.813229692294488436e-04,-9.805961069209134351e+00
5.059909189502815804e-03,4.132177934382950252e-03,-9.799840047637154328e+00
4.758741434771752407e-05,5.473102478946240612e-04,-9.785022757540700056e+00
-2.554773305345098798e-03,4.235549270980452398e-03,-9.804664805588400256e+00
-4.933040994717129493e-03,4.835168819536064810e-03,-9.794884908504004173e+00
-1.345752582233132426e-02,-2.615223482928704692e-03,-9.795894854795388795e+00
9.356236086223167258e-04,6.689276268334666846e-04,-9.800124774788235626e+00
4.533611765674820313e-03,1.566667764221457704e-03,-9.799838791647230707e+00
-1.376855198465555367e-02,-6.150847671171972252e-03,-9.806251607749864263e+00
-6.213182240410697679e-03,4.647751001566156372e-03,-9.788299348522986776e+00
-1.182625601140328137e-03,-4.179759609722341965e-03,-9.798638837749503949e+00
7.653465596395116807e-04,1.608743761203149276e-03,-9.794929805641377385e+00
4.919731875655071127e-03,1.021351734026008581e-02,-9.802451139013621528e+00
-1.442553019517077255e-03,3.065330602300993159e-03,-9.802408785090852561e+00
8.281557426961967672e-03,2.754088071489346583e-03,-9.788762996092740920e+00
2.997960726436850812e-04,6.121405704691619196e-03,-9.787637552420386911e+00
-7.942777338044135910e-03,6.041934001126626541e-05,-9.802914359815938283e+00
1.630468650107850517e-03,2.876273619669712615e-03,-9.789314090008971903e+00
1.070256325403366043e-02,3.568289256424451322e-04,-9.785513343158408262e+00
8.114387015808674497e-03,-6.756537709872946842e-03,-9.804725226474493738e+00
1.956077871211561302e-03,2.835613175926939098e-03,-9.790787268359553153e+00
1.111545303515601955e-02,7.245263274529786975e-03,-9.789980956783773891e+00
-6.248902399739839075e-03,-4.367452199681418935e-04,-9.791899882934675503e+00
-1.612594817388078410e-03,1.171956960502689923e-02,-9.789106512484725187e+00
-4.208040973807903803e-03,-6.622706643615942565e-03,-9.788378091946260184e+00
6.404611707307807100e-03,-1.454256583442126117e-03,-9.803840389570629199e+00
-4.015610255652737881e-04,1.199482359364018036e-02,-9.805145716920705468e+00
-4.298866453403894002e-04,-2.243023631564854039e-03,-9.798948207062350590e+00
2.708478768570471863e-03,-9.410237188708019812e-03,-9.803216237742276462e+00
-3.272856802097006204e-03,-2.073536495927252345e-03,-9.789438501777656398e+00
-2.502255880208393256e-03,-3.340066796655778714e-03,-9.800376390973317697e+00
-2.420371494913838039e-04,-3.398787282217272023e-03,-9.785204994601425454e+00
2.589787106089112834e-03,-4.156435261112381707e-03,-9.794560519134536847e+00
-2.616265180036514773e-03,-1.591490010277210165e-03,-9.793700281697805821e+00
-5.156241565454750507e-03,6.299888335367297316e-03,-9.799592075382983936e+00
7.089660223764561800e-03,2.181221508649732691e-03,-9.781562467377977299e+00
-7.657732699233553431e-04,3.181267749505813092e-03,-9.804707186781138617e+00
3.916025454815082359e-03,-6.086402437553422619e-03,-9.800322471959823645e+00
-2.559205559980132737e-03,1.203766137207701141e-03,-9.794826756212550833e+00
2.801804888062144408e-03,7.705599493958486569e-03,-9.795007235596747464e+00
7.832594335088973944e-03,5.790123185040700095e-03,-9.802109178057486716e+00
-2.944423437587959189e-03,7.764088756613995133e-03,-9.790516444977106048e+00
-6.370029701303668059e-03,-2.688915585440954017e-03,-9.793651338205993540e+00
-3.288022180515913669e-03,-4.340738598645365286e-03,-9.794347977904976688e+00
-3.935339941788947547e-03,-6.375257171353700819e-03,-9.797454776730834425e+00
1.289698534924351228e-02,-3.481051760427147229e-03,-9.791866872206076877e+00
8.241997636447371406e-03,-3.881745121345246598e-03,-9.801963442156679918e+00
-8.917965677157614623e-03,-1.741631908434585147e-04,-9.779767161902121586e+00
-6.455679057870014961e-04,1.875280383367539756e-03,-9.806897710010611391e+00
-5.664267894185609845e-03,-2.377862150458754948e-03,-9.796174914039983861e+00
1.680598667141984526e-02,-5.657736791926355237e-03,-9.793414978776732838e+00
-2.445045079663768928e-03,6.306996760252652108e-03,-9.803514060856391765e+00
-6.071873238773750105e-03,-2.227804114479264939e-03,-9.807851295544006476e+00
-1.793089706287191156e-03,-5.860196023639277843e-03,-9.795241231599064236e+00
-5.516557334197254130e-03,-5.544304603819125675e-04,-9.793106104410805202e+00
-4.956257153168515568e-03,7.849524588232320577e-03,-9.810242601068260626e+00
-2.464759073413025619e-03,-1.034477717737501820e-03,-9.788954370369717495e+00
-1.001776242531220813e-03,2.583370555580476353e-03,-9.786456497386582853e+00
-6.583731716596303782e-03,-1.438959796615894848e-03,-9.791142401263130068e+00
-1.145085507492005564e-02,-5.111069053664394311e-03,-9.807192630038743530e+00
-2.058882366726688239e-03,7.760289481317354104e-03,-9.782771040259060413e+00
-2.738673278342913450e-03,-8.773523693476999652e-04,-9.786800291318670020e+00
-2.155893603720608100e-03,-5.030878422612233315e-03,-9.787124687632299924e+00
1.339826814000253004e-02,-1.543292600289759451e-03,-9.789156991827992371e+00
3.723200294052080288e-03,3.096216993298090206e-03,-9.774497265348593089e+00
-3.455945366583200624e-03,2.098171388717206230e-03,-9.801412747796417690e+00
-9.719383661175725123e-03,-3.294873197869246841e-03,-9.797512602784831159e+00
-9.498991567242480449e-03,-6.225241548043647204e-03,-9.800736050440667313e+00
-1.150904026217283455e-03,-6.474056548205112116e-03,-9.802851261916572412e+00
2.392834070126515747e-04,4.126869768105921772e-03,-9.799364807339724592e+00
-9.248913865685100960e-03,-2.210887783407037188e-04,-9.798935789288256260e+00
5.423317711637842820e-03,1.406750302461248769e-03,-9.796782166728494445e+00
4.868720867123477614e-04,-4.737955459422184615e-03,-9.792252300072840754e+00
1.925934115199234072e-03,-1.490360792086756246e-03,-9.797712089184967610e+00
4.586480273844363836e-04,4.248744571375007574e-04,-9.792209095238060712e+00
5.249745901492611433e-05,-4.305426608578460414e-03,-9.786737555381920473e+00
-5.395595641353980766e-03,2.231515203220808992e-03,-9.796614262730628298e+00
3.480454707265803228e-03,4.204480604925281764e-03,-9.786990011129375944e+00
-3.823121856313485469e-03,-6.672266405036987938e-03,-9.794529128014007213e+00
3.077434312184924598e-03,3.026347196170719837e-03,-9.795654108872115629e+00
-6.907080822614810808e-03,1.073893054358620713e-03,-9.790304121726103759e+00
-8.151437232823643270e-03,-6.365390873071532889e-03,-9.790897295881993756e+00
2.937718215551621877e-04,-1.553835918512867266e-03,-9.791236492949675352e+00
4.705598276058211085e-03,8.315059804026220247e-03,-9.795798349389531978e+00
2.048222444990338564e-03,3.750833817581837159e-03,-9.799676588545734646e+00
-4.792941092604921342e-03,5.336429373763725871e-03,-9.792123745971402116e+00
7.845908130816601003e-03,5.066968716196297400e-03,-9.791592264422407155e+00
-2.973502538467682598e-03,3.149692983211426715e-03,-9.787158484292577398e+00
2.872764294550817177e-05,-5.558231939096164829e-03,-9.796503655816653833e+00
2.971654822235312394e-04,6.956270056136224650e-03,-9.793515788041279535e+00
-7.561795244962498224e-06,-1.689394609544910735e-03,-9.788506691519978986e+00
-6.602838214246030402e-03,4.448425558650766914e-03,-9.808933487612312874e+00
-4.727875055589898443e-03,2.880811695324138593e-03,-9.785983395741697066e+00
7.526927531357307209e-03,-9.155715964184598515e-03,-9.797071771768989024e+00
7.105319999704321626e-03,1.770564229033348138e-03,-9.808114183077108805e+00
-2.959427080630088695e-03,2.108997037304726190e-03,-9.793066340755522958e+00
-1.123202638429352147e-03,-5.609199115259781362e-03,-9.797913617234554451e+00
-1.069593736583225813e-03,5.402045476702516287e-03,-9.808254482383686579e+00
1.265354572598910432e-02,7.290528652076432026e-03,-9.801415041928214222e+00
-7.394778213206463190e-03,-5.145288668983389983e-03,-9.812639675962634200e+00
8.317608621460005625e-03,3.840760283976373153e-03,-9.788716528425089436e+00
-5.984372697084200214e-03,-3.548418167309544489e-03,-9.802483769266402192e+00
2.862646960853246735e-03,-5.844073208755960411e-03,-9.798481938578904149e+00
4.161735330280446504e-04,-4.666402252305320783e-03,-9.794443798726669925e+00
1.523527540243814092e-03,2.127384716955867030e-03,-9.797067383813647723e+00
-5.385882022797553598e-03,-3.051003934187751943e-03,-9.794684598113537533e+00
4.421734891758772375e-04,1.029135508945618104e-03,-9.789968505935405574e+00
4.479132432385958887e-03,9.851907448463649922e-03,-9.796242290920011087e+00
5.684404154772847856e-03,-1.819703490877456510e-03,-9.799814725537183691e+00
7.125209289714515368e-04,1.453821313065607019e-04,-9.792330848647337049e+00
-1.963563628040783209e-03,-2.765758724502706198e-03,-9.786421432402770293e+00
2.394631899327662183e-03,-1.696433321502665431e-03,-9.796510664712197780e+00
4.930703217275863789e-03,-2.234594492480034087e-03,-9.802817515183205543e+00
-7.646722382863482999e-03,-1.087612571930944745e-02,-9.800488663945584378e+00
3.841658857225355335e-03,-5.966238423988492546e-04,-9.806400615341289040e+00
-1.095082962317532431e-02,1.144215426345713150e-03,-9.789989949948516568e+00
-3.833345736064610459e-03,-1.264506712730360067e-03,-9.797140831719941545e+00
-4.246349867094690277e-03,-6.609534980821566569e-03,-9.799336818802625970e+00
-8.641282889603332101e-03,-4.510733176796119688e-03,-9.804227333098808117e+00
-1.366826641651410282e-02,-4.290476814705056555e-03,-9.794451138056368578e+00
-1.128436417506421385e-03,-8.421610762071434983e-03,-9.798396811392343864e+00
-6.406549902280582812e-03,-1.083889604851775816e-02,-9.798694334747194645e+00
3.023388234284611360e-03,-1.261013816641615940e-03,-9.791462837749243420e+00
3.106675732342316712e-03,-6.149788046902220605e-03,-9.788567054273441315e+00
7.018230925501748457e-04,8.220683372790251256e-03,-9.785698731046919008e+00
1.221977212235846912e-02,-6.657926538227840543e-03,-9.804473689975663930e+00
-1.982173489046909574e-03,-7.479848552783018890e-03,-9.796024127327864761e+00
-1.013586834775578871e-03,-5.765469354277580859e-04,-9.809920483146347792e+00
-2.626546606937135535e-03,3.995599819578199755e-04,-9.784695925867445965e+00
8.379861632967465501e-03,-1.842127761342331020e-03,-9.802427706938177110e+00
1.470984145975528373e-03,-5.130346064789432538e-03,-9.797509662725710555e+00
-1.010178830699031902e-02,3.110238415940579700e-03,-9.800444995583635688e+00
-7.946774916833043495e-04,6.926410797031002644e-04,-9.785853092276605381e+00
-1.564360326168491404e-04,-4.511134212167476273e-03,-9.799316601475847932e+00
1.133169316256563315e-02,-1.129106019475713089e-02,-9.787290317085243885e+00
-6.425695623822763776e-03,-9.293859786510132214e-04,-9.790887415513205738e+00
5.973989865241646421e-03,-3.981351341251645158e-03,-9.800652903314952979e+00
1.539615011626026611e-02,-6.364598391074094072e-03,-9.801478134829446631e+00
1.972114894332817510e-03,4.456387895070149097e-03,-9.805088750812583243e+00
6.154285238651890574e-03,5.237413559228455001e-03,-9.800523692689230515e+00
-2.908840185555971406e-03,-4.512602842786157809e-03,-9.803257892753876490e+00
4.082110151671329047e-03,-1.808529739483892215e-03,-9.800384852949560965e+00
8.414519702449461958e-03,8.120290857513655629e-04,-9.790523553482220365e+00
-3.773840588120799550e-03,-1.577427001475015375e-03,-9.781970976445398591e+00
7.548169135548985637e-03,-5.114329303219230030e-03,-9.797815726824431692e+00
4.677749670477946743e-03,-1.808885634921668069e-03,-9.797839091712074122e+00
5.374970724986975583e-03,4.123549593402855290e-03,-9.799040561611692013e+00
4.155794945723340766e-03,1.774586474226552864e-03,-9.800567616006867766e+00
4.920278871360163862e-03,7.369285320571144007e-03,-9.779921424702669341e+00
-2.878048591324186035e-03,1.618244053962149655e-03,-9.796175492478322866e+00
2.227624184700951299e-04,7.324638191806553131e-04,-9.795318281543172745e+00
7.273478326871874724e-04,-5.743155544741509935e-04,-9.796798211209100771e+00
1.789164024818913406e-03,-2.098445016366824614e-04,-9.798407884783838284e+00
1.146142718077065886e-04,-7.075383843384900305e-03,-9.794074300882792627e+00
-4.148405668503615286e-03,-2.170830707793129557e-03,-9.795625157985263343e+00
-5.707156320695418693e-03,5.951399308546674767e-03,-9.801378853166278660e+00
-6.812613208055109948e-03,-3.265449681037404552e-03,-9.784806439083109098e+00
1.045215555247635056e-02,1.652143294738398849e-03,-9.796117050573505125e+00
1.143838157147607313e-03,4.714257333164283939e-04,-9.783200681336747806e+00
1.320478247737925806e-03,-2.139059173378558918e-03,-9.797238885747729498e+00
5.182646671464123840e-03,5.917371440062739983e-03,-9.798672270165052822e+00
-1.187876219586786290e-02,4.380646979584608934e-03,-9.783189082459550434e+00
1.116340084890875099e-02,1.450079783824511758e-03,-9.803086001246713366e+00
9.194065969486637851e-04,2.846415827496471661e-03,-9.791593142515505832e+00
3.688279720185557494e-03,-7.892199556145860183e-04,-9.804376340000890977e+00
-3.097139230524573010e-03,-1.522225685849928813e-03,-9.786542332008506762e+00
8.011540125267254189e-03,-3.959053094665208753e-04,-9.800488289721025481e+00
6.195655562823627113e-04,2.544870756419793413e-03,-9.790099128267828021e+00
-9.708017699138270923e-03,5.199572683556849323e-04,-9.802147025488112675e+00
5.795844571665463747e-03,5.050714644883806496e-03,-9.809297491648015566e+00
-2.578471222600533315e-04,4.222540381509297890e-04,-9.802390160874082881e+00
-4.857894333067937459e-04,7.153676594551819541e-03,-9.798344376473673734e+00
2.624773503189064584e-03,-6.900563613828415363e-03,-9.787792329599264818e+00
-1.192649870500340527e-02,2.160075366245727772e-03,-9.794206206930631708e+00
-6.074815165815978038e-03,-7.873351799645852359e-04,-9.794076971499496409e+00
7.619160753138629625e-04,-2.606111068511594766e-03,-9.793954378122784021e+00
-4.138916571533178719e-03,-3.563966500186971278e-03,-9.802026576839903527e+00
-3.537754414097196362e-03,-2.710772959813783755e-03,-9.811176640439372321e+00
8.716947364309634173e-04,1.297353549321769717e-03,-9.797100030816229932e+00
1.512377564087853503e-02,-2.878467620919544084e-03,-9.805592310762241581e+00
4.459566038785737520e-03,2.162253682379194214e-03,-9.785071927473946829e+00
9.871087977217267787e-04,3.132493127492267260e-03,-9.802830705260870303e+00
-2.456686117368520311e-04,-4.523934959781099503e-03,-9.801317065362459502e+00
4.297476164509936650e-03,6.026241021671254090e-03,-9.791267525568780883e+00
-2.809806491685741796e-03,2.339944259140252277e-03,-9.786991873892089799e+00
-4.037285712048370619e-03,-1.094770815352002352e-02,-9.798286441912352984e+00
-1.100116802738390458e-03,-1.815387021865462686e-03,-9.799597232785863810e+00
-6.589048462609096990e-03,2.930983712472549343e-04,-9.796189650635890089e+00
-3.502091143093625202e-03,5.811981599078727516e-03,-9.792126257580214599e+00
2.685244138167561852e-03,-2.493441481688720048e-03,-9.782086371518829537e+00
-6.974260857243575308e-04,-1.154590866410683909e-04,-9.779154125556924981e+00
1.890096813833886530e-03,-2.246324173901822260e-03,-9.789103141589825086e+00
-1.218803181205286440e-02,5.546443503303231416e-03,-9.805627762649313794e+00
1.745604693491248360e-03,-1.081686317987371566e-03,-9.789348965426620808e+00
1.968078477532297184e-04,-4.030183648972459655e-03,-9.797781023028459657e+00
4.537740585009889666e-03,6.052409160603169566e-03,-9.810894997466316880e+00
6.173434605038472661e-03,-1.213633665930622697e-03,-9.800073743165148343e+00
-4.031622336148360346e-03,3.028180483772540798e-04,-9.804699508750314152e+00
-1.630339204857555796e-03,9.693200884660141056e-03,-9.787365864195018972e+00
2.569641353932938625e-03,2.031174106614284849e-03,-9.794244347799940797e+00
4.434908999263744659e-04,-1.794466711662567621e-03,-9.781741131602483819e+00
7.097522129630108069e-03,4.855731985633622745e-03,-9.783497232797964571e+00
1.752499071641192355e-03,-5.336381995867567514e-03,-9.804250387972007985e+00
2.138354670997150500e-03,-2.441133281282285503e-03,-9.803959755092677142e+00
2.959716450845199971e-03,1.657293302624519848e-03,-9.805518454249570581e+00
6.655253019618018878e-03,-3.265507408488295231e-03,-9.772652317334411975e+00
-1.745655110770593689e-03,1.188582097975752171e-03,-9.803621104052627544e+00
1.803072404819983272e-03,2.977114709741071358e-03,-9.798856994542269661e+00
-1.671090371183887521e-02,1.599526234991038767e-03,-9.793441356187395641e+00
-1.010304418421897193e-02,4.787737477503340930e-03,-9.797261627406326667e+00
2.744064874759455028e-03,-8.786723998290396284e-03,-9.802073424577599781e+00
4.901394029583022553e-04,4.231876610512880568e-03,-9.801247436673994784e+00
6.838381029088468760e-03,4.022192719384822500e-03,-9.804879145450618338e+00
1.253518056928628298e-02,-8.448966441441644118e-03,-9.798496818530203711e+00
8.507857734703873007e-03,1.181040783629776041e-02,-9.803324325102449777e+00
7.361897197187832094e-04,2.739765297480409138e-03,-9.787545977202288583e+00
1.089023950845754724e-03,6.178739475997561612e-03,-9.795539701458105597e+00
4.995772827697243963e-03,-5.862793171438989565e-03,-9.789552261720178450e+00
1.222198416699203215e-03,-6.607978975290182411e-03,-9.788962012381000832e+00
-1.100403682556550314e-02,8.219644058018277591e-03,-9.799306244163844326e+00
5.198590854202098273e-03,-2.609954122434390584e-03,-9.784561937602294535e+00
-2.936397645617611334e-03,4.451469966737173494e-04,-9.796322144571488977e+00
6.870840963988494518e-03,-1.834534416334244068e-03,-9.785935879414664029e+00
-8.694200547904934115e-04,-5.327030004933587352e-03,-9.785809504191869124e+00
1.091857820997523985e-03,-6.377685376078665730e-04,-9.804981199956793958e+00
1.288720231849695141e-02,1.231439029019913180e-02,-9.786646566871773700e+00
-2.390693208597819298e-03,9.904159990639664971e-03,-9.794927673816935965e+00
-2.026707753788152544e-03,1.544361561379153577e-02,-9.789798030668906748e+00
-7.273183543918499555e-03,1.009771126515328181e-03,-9.801034610333420716e+00
4.950214914424493247e-03,4.209840045592557790e-03,-9.797169367187047229e+00
2.579633957017594958e-04,-4.067774004784112905e-03,-9.795685063876460319e+00
-2.498195631880435058e-03,-5.255393085558820413e-05,-9.785881249433840523e+00
2.275398005048716310e-03,1.170728131983291297e-04,-9.787461996435036227e+00
-3.398183614052789018e-03,7.068080271219523208e-04,-9.801627022132613831e+00
2.916299677350472387e-03,-4.796938275106896405e-04,-9.793203747482404964e+00
1.789239180131117302e-04,1.074562299439506437e-02,-9.788747970989085445e+00
7.752521068580137294e-03,5.807802888406833272e-03,-9.796091942004890640e+00
1.132819602325627062e-03,-7.027188119410978685e-04,-9.802812787087919588e+00
-6.213019481087710648e-04,2.793811892145509155e-03,-9.793318616135769261e+00
3.838079774825665751e-03,-8.987426444973952398e-04,-9.794817263029699461e+00
5.099985715048450594e-03,-3.827047639415343244e-03,-9.790316114241766954e+00
-9.488508765332638942e-03,-3.764065114481211869e-03,-9.790522444382638412e+00
-6.705690599755805177e-03,-2.722896347049928549e-03,-9.793238010706218688e+00
3.959188594415181776e-03,5.792298430388951452e-03,-9.791807917814013607e+00
8.345483817140906049e-03,-1.112959012462898245e-02,-9.792322405306181921e+00
8.487247973860132574e-04,-1.802936670149484725e-03,-9.791346379879131590e+00
-7.159339160081715269e-04,-8.668660963195195385e-03,-9.803115981976635140e+00
-8.103325889661457983e-04,1.955082479176623641e-03,-9.797280018255483114e+00
-5.321155617967036205e-03,1.507768051809961582e-04,-9.790079414233504806e+00
-6.543170961798320737e-03,1.652531525406831375e-02,-9.781582619959008795e+00
6.959828224635518021e-03,8.345305156996300202e-04,-9.787668958864955471e+00
-8.733966094417238910e-03,3.171424199778521795e-03,-9.796303692284897835e+00
-3.414315347985117516e-03,8.943487725422980331e-03,-9.790505774354926416e+00
-1.164791227612979336e-03,1.989159957115373394e-03,-9.789799344733216557e+00
-4.073500743649554126e-03,-5.147205831796773786e-04,-9.804354399466834735e+00
-6.501002958896001313e-03,1.438647080065918885e-03,-9.794230337474282067e+00
4.512544170485396043e-03,1.140295479520287217e-02,-9.789135211545632487e+00
-2.743298229420215381e-03,-3.938376613639721878e-03,-9.806010258609934027e+00
-4.058105821485193457e-03,2.629000132440501101e-03,-9.788221288371030226e+00
2.283244450959678699e-03,5.322512574572019846e-05,-9.802690714756831625e+00
-9.554011321780110644e-03,7.904907415010684751e-03,-9.796820553193244407e+00
-1.831908874686698002e-03,-2.747836806699361853e-03,-9.801393177678075830e+00
-1.526664791923737746e-04,1.081584540788057928e-02,-9.793235493529040880e+00
1.354304403794525519e-02,-9.993451631376160538e-04,-9.801276107010751915e+00
-4.059211827469455872e-03,3.103894498251961228e-03,-9.805655053779496200e+00
-8.718149331357871387e-03,2.392978006879303149e-03,-9.802079848907904847e+00
4.867717990746488893e-03,-1.710289175245287285e-03,-9.800700118736729749e+00
8.244307313387244304e-03,1.890321225356475922e-04,-9.787648168135561377e+00
-3.612010947444792459e-03,-1.071564552666812625e-04,-9.793452409263290193e+00
-1.832575055496890202e-03,-1.078570769931649909e-02,-9.793840900236631342e+00
3.707276781884212124e-03,-4.782831522036005978e-03,-9.789760295826575032e+00
2.749593290354183451e-04,6.479022742339586582e-03,-9.787836724402703581e+00
2.175321264763590418e-03,-1.104915445473527629e-04,-9.796714970238463494e+00
2.714884989476209717e-04,1.475326270552500599e-04,-9.798865394117489913e+00
4.975549885065594716e-04,4.535046393192901891e-03,-9.804746097153177686e+00
5.842842808341757030e-04,-8.070105797461412170e-03,-9.805592778410096244e+00
-5.752753769164077255e-03,8.961889418775088184e-03,-9.789845322944206174e+00
4.993049826523222531e-03,-3.023756128372355988e-03,-9.785644454713468221e+00
7.274200029835278108e-03,2.186619014279843690e-03,-9.788295184363477119e+00
-8.324628943243865542e-03,2.081325427081396045e-03,-9.802161679237261893e+00
3.218713905683794237e-03,5.125815552260062913e-03,-9.798719138410682206e+00
-1.800214035156337761e-03,-4.695491815100765950e-03,-9.813684090043603092e+00
4.686672873595471370e-03,1.154038954574790679e-02,-9.800471531442957129e+00
3.537895202919581414e-03,1.189433179824309766e-02,-9.809978201578291035e+00
-5.599100465148387773e-03,-4.643486649884766173e-04,-9.796770602945544582e+00
1.618053143020452408e-03,-1.979603012558442052e-03,-9.788135901731264354e+00
5.258522873911499439e-03,-3.926769114099780932e-03,-9.801286163756868675e+00
-3.766831909213420263e-03,4.619884120275653469e-03,-9.791469624127019600e+00
-1.154365742001007807e-03,-3.377697974777318576e-03,-9.785697617922785696e+00
1.126938733446717928e-03,-2.505097673992802074e-03,-9.795605645647670556e+00
6.205523337446399064e-03,3.766295190626342635e-03,-9.798753178001289754e+00
3.613075376297855169e-03,-2.842430515093009001e-03,-9.801271849232973565e+00
1.940626449235647796e-03,-8.884198801693349778e-05,-9.786010964533192080e+00
1.679324960673253889e-03,-2.067103691877556805e-03,-9.786945291540190439e+00
4.184140762072859933e-03,5.739503451018748356e-03,-9.801167793222905544e+00
3.901645892965005784e-03,-2.098156462084536326e-03,-9.800341510205701212e+00
3.337305091108930017e-04,-7.373672932643840147e-03,-9.811002801376170979e+00
4.815764374636984568e-04,2.445970315952147693e-03,-9.786812299218524913e+00
-6.517335324392804254e-03,-4.988910322210919450e-03,-9.793839870308639561e+00
4.379101356638053118e-03,-1.505286925665239894e-05,-9.800201814510758780e+00
-9.904529536246583620e-04,-3.021777194891576632e-03,-9.805913928133069390e+00
-8.635835841671424956e-03,2.722633013367352708e-03,-9.784970898069625278e+00
-6.288942256500260758e-03,-4.642851691710916766e-03,-9.805929063935586498e+00
9.497359464104177321e-03,9.964963117637710630e-03,-9.788022689907679208e+00
1.087174629474421585e-03,5.535643920380151246e-03,-9.802555751298626774e+00
-3.827887476737923747e-03,-1.859886103442430667e-03,-9.796017520305298376e+00
2.346191390673029592e-03,2.509746367310043691e-03,-9.801374163851445331e+00
1.771996867731430404e-03,3.100731507287866895e-03,-9.778748798023203292e+00
8.851180409233685292e-03,-5.257662883457605435e-03,-9.793308622452196133e+00
-4.629431730927818962e-03,-2.350265728491764128e-03,-9.801651009162132056e+00
-1.436141223925229641e-03,-5.367429034421626795e-05,-9.777169053893530304e+00
1.788890186055028383e-03,2.948424442002341682e-03,-9.778445610474470584e+00
-7.020403471773030077e-03,-1.423202251516840272e-03,-9.793089656613418015e+00
-3.230555169874279545e-03,-1.594894420472312913e-03,-9.795487946007268576e+00
3.817005455011345492e-03,6.530025712551346118e-03,-9.794867181584862692e+00
-5.117609997538393428e-03,-1.893373606890466762e-03,-9.785570679734078681e+00
2.312049861542456348e-03,-9.290985863420220606e-03,-9.792520329179570382e+00
1.174565192586907603e-03,-2.540683992929760292e-03,-9.783821333179792745e+00
7.013127830288244484e-04,-9.428310635786291095e-04,-9.797259838096760376e+00
1.258168509552523920e-03,6.635013454586327283e-03,-9.799024290329946041e+00
3.051429941411303113e-03,1.007285140960741988e-02,-9.792185247284592720e+00
9.972133661670561436e-04,1.955519580592458406e-03,-9.803597838003424769e+00
-6.758935797436153121e-05,1.133640807708507928e-03,-9.793147627983119108e+00
7.253965402776744488e-03,-6.275564191970009302e-04,-9.796611373598739902e+00
-1.406934582155839686e-03,-7.143449947479824265e-03,-9.801996067000535717e+00
7.091609015637753699e-03,-2.299678971011743980e-03,-9.797597264589811061e+00
-6.465039116224228707e-03,-2.717503372544649663e-03,-9.802374416638873100e+00
2.121815197677679333e-03,8.341843224373618471e-03,-9.788317292943723658e+00
-3.665454789745589519e-03,-1.099850643370437527e-03,-9.792377406237047666e+00
2.973482999720236230e-03,-1.291052056643883159e-02,-9.790873634813500814e+00
2.217680289946105405e-03,-8.530536114902917714e-04,-9.811365667678453306e+00
5.984295344067064272e-04,-7.571445815208651016e-03,-9.789068537673109915e+00
-2.027634825294979005e-03,4.647904684163624636e-03,-9.800837727181626491e+00
5.051712539401806944e-03,-3.354974214375609862e-03,-9.791694717082469523e+00
3.433362717106441309e-04,-4.717836229740791053e-03,-9.786521917098495393e+00
-3.146606662295040133e-03,-1.126777419464495558e-04,-9.794534223704541631e+00
2.482681725247428989e-03,-1.728186244359459145e-03,-9.790606972147744003e+00
-3.747529699296921462e-03,-3.025538573662147224e-03,-9.785932434003399294e+00
-5.271216833546064212e-03,-2.849797877850348236e-03,-9.787516761369108309e+00
2.863629052068162630e-03,2.297586700170638381e-03,-9.797164035710562047e+00
-1.064746828364936636e-02,-4.867100965309282233e-03,-9.800747013479153225e+00
1.974499363644997580e-03,-8.046629646595282112e-03,-9.794472104851687178e+00
6.463039097434355139e-03,-4.403430334698451958e-03,-9.795199112891964432e+00
6.953701649172328372e-03,1.577075465428598108e-05,-9.801244676508577669e+00
1.123631215447814732e-02,-8.341464370279751128e-03,-9.789105947210481773e+00
-8.411356415541569945e-03,-3.461612211739192348e-03,-9.797710845083077658e+00
-6.796694558855813015e-03,4.152443481530456587e-03,-9.795439087646812482e+00
-2.853180860381449111e-03,-2.796097782149326201e-03,-9.786519010911208127e+00
-3.124850897505376205e-03,-1.935873359179540558e-03,-9.791075227820504878e+00
-1.681798320943080462e-03,5.458330541473991465e-03,-9.791463772396886256e+00
-6.664555839249492776e-03,-8.296309695864321002e-03,-9.787472798390087547e+00
-3.422619906751238339e-03,9.718211524893709263e-03,-9.782833082973128924e+00
3.448124730800765283e-03,6.537290231513970609e-03,-9.808915369136741447e+00
1.087480951477135145e-02,-7.229792717336594281e-03,-9.794786485594444869e+00
-4.316548403377353134e-03,6.647695262983981286e-03,-9.803610025427470731e+00
3.705112067680908609e-03,-2.404546990242179948e-03,-9.796362161051993311e+00
-1.249421839853595865e-03,-5.971253651727659838e-03,-9.798881292786443709e+00
3.693004869797201443e-03,5.617948524609498416e-03,-9.793761206649014284e+00
4.201602053881901139e-03,-6.088213233194360828e-03,-9.792098801383541939e+00
6.333784444545146643e-03,-7.583771274703625734e-03,-9.788069791933114772e+00
1.643225879164658502e-03,3.431570039774396556e-03,-9.807596755587193016e+00
-3.376605219785350047e-03,-1.580003348168028225e-03,-9.791387068819034312e+00
-2.365191574627102840e-03,1.938023817606719179e-03,-9.792733253129842552e+00
9.997545962076500106e-03,2.746238587906424736e-03,-9.793796418056016861e+00
-3.983676449387254202e-03,-8.659917268134316882e-04,-9.789120846397006304e+00
5.726421524558151024e-03,-2.183617170696313531e-03,-9.796311311947826894e+00
8.998255817051335368e-04,3.586852498424848018e-03,-9.788575107127927666e+00
-2.304375088252131731e-03,-1.576774031672734284e-03,-9.797726527530862484e+00
3.363943137520481646e-04,4.230484844619923114e-03,-9.800895653517088135e+00
-8.764694603546537358e-03,-7.474152675386019212e-04,-9.802136386349770802e+00
-3.390026133185791799e-03,-1.067800183446498919e-03,-9.799850320926219993e+00
5.317033142196194578e-03,4.310012315040216355e-03,-9.788242441290069706e+00
5.642566458201402069e-03,-1.157063180429814377e-03,-9.800567688218976059e+00
-6.952930991451488144e-03,-3.211824280403354458e-03,-9.789628517126068630e+00
-2.093749678895352479e-03,4.613586555410827822e-03,-9.787241179699302407e+00
-1.749884903856191443e-03,3.714472733520516375e-03,-9.786645659598924851e+00
8.115405745131816289e-04,-9.639141498709365846e-03,-9.804758841527458912e+00
3.079659545318606025e-03,-4.416846678016724675e-03,-9.784308499583067587e+00
-2.297971654529099537e-03,6.592688575393253203e-03,-9.786792996834927649e+00
-2.101243585018519773e-03,-1.777964009406578314e-03,-9.796189959825802873e+00
-1.166347546905043475e-03,1.987948986961607292e-03,-9.805092762563322850e+00
4.269030584795371897e-03,1.219175969998414783e-03,-9.793058006851714126e+00
2.110781825599545268e-03,-8.142584087745007027e-03,-9.808103689812663006e+00
2.486687654749282148e-03,-5.371666484602603472e-03,-9.803478873962546913e+00
1.449064926981268129e-03,8.878318104721923468e-04,-9.778050656135741647e+00
-3.822308107596280799e-03,-1.197364894729028521e-03,-9.802571661657909274e+00
3.177581954696013719e-03,-7.307745631257879775e-04,-9.793980084113570683e+00
-1.866468208017879648e-03,9.575751228459878153e-03,-9.790384244320883056e+00
1.370470999929919616e-03,2.102366433622781822e-03,-9.796825353572502948e+00
-2.917492144124671661e-03,5.570132498674231457e-03,-9.797268717027185048e+00
1.885145624714835381e-03,-6.139567111735763291e-03,-9.802620696445137227e+00
8.824857818726829575e-03,6.506969798160718976e-04,-9.803256256275931335e+00
-1.414902975245148093e-03,3.810890690587441119e-04,-9.802458098424617461e+00
-4.645698403186568522e-04,-4.196102232410871095e-03,-9.788738157315577837e+00
7.138659573139617687e-03,6.078918365424269832e-03,-9.794275418363096009e+00
-6.493804684022828552e-03,-4.765952946061326884e-03,-9.787498786683240581e+00
-4.723611600708295562e-03,-5.121319900769802543e-03,-9.806435183021992685e+00
-5.704164289129705703e-03,7.320187966433242162e-03,-9.800198822330800752e+00
2.455505979124866008e-03,-6.210417172636206740e-03,-9.792143508782398698e+00
2.810151946218233856e-03,-7.850317792403306918e-03,-9.800843500150060450e+00
-8.539272412983021573e-03,3.651563679265653305e-03,-9.797597876390391036e+00
2.403460963782840486e-03,-1.058209370895952378e-02,-9.793938940368871471e+00
3.078825490153229948e-03,-7.575390145292658101e-04,-9.791836999817041587e+00
5.475741216964320757e-03,7.146169981906901015e-04,-9.798086968916688733e+00
1.694435425520921011e-03,1.703832460125736300e-03,-9.795041183344444846e+00
6.624809604992037103e-03,-1.324248972675142128e-03,-9.799466676892002681e+00
-1.203523247709318948e-03,-9.469883078722171263e-03,-9.803887306761305709e+00
-6.665045004168783458e-04,-2.912152567925295216e-03,-9.791973416974022015e+00
-1.609118939717077684e-03,-1.913590431693321667e-03,-9.796035560883847637e+00
7.559870596655525986e-03,1.557109036127543545e-03,-9.799148630460964071e+00
5.948246558647941190e-03,-1.633090626380054398e-03,-9.795748321781523771e+00
9.062007568761207147e-04,6.329352902668073863e-03,-9.798247057290305762e+00
6.112576932769354585e-03,4.300983635649921998e-03,-9.801021224888769368e+00
5.166893355897365925e-03,7.021007298457331881e-03,-9.792167371397594522e+00
4.129147120590207637e-03,4.872333463599230578e-03,-9.805063247933745174e+00
1.000821750277293420e-02,-4.472085673113100623e-03,-9.793261813265026205e+00
-2.104846448047321093e-03,2.836790790593539478e-03,-9.800231538904405681e+00
4.598051975607186860e-04,4.024694062377889847e-03,-9.786605645411793120e+00
3.748504164973780022e-03,6.184282844836860339e-03,-9.802944351130603806e+00
-5.681631406878418465e-03,2.282368606661761955e-03,-9.799151177366697496e+00
5.093967291291768944e-03,9.681719006650102433e-03,-9.793915739826172029e+00
-5.616018017381130788e-03,-2.326723253945977253e-03,-9.794637852163601721e+00
-2.016011072246454757e-03,-4.196160780548742822e-03,-9.774023481088031318e+00
-5.496033445981307435e-03,4.471606609132236336e-03,-9.806798521578260264e+00
8.737390778872772962e-03,-1.593575733063707246e-03,-9.793661269767104827e+00
-1.388464810618223865e-03,-5.983811659741022568e-03,-9.782843011161409308e+00
-2.827025481602040303e-03,4.205048531885204575e-03,-9.777291815814640685e+00
-6.573472015340903370e-03,3.286513618038290271e-03,-9.797723593016707255e+00
1.285367613884270781e-02,-1.793125584969909548e-03,-9.792851135575999066e+00
4.051304497212165169e-05,-6.853262573734464390e-04,-9.796651616278861496e+00
5.883560807397234492e-03,-3.898804311114066005e-03,-9.780025011014958025e+00
-1.607549648166667258e-03,7.491128558405531560e-03,-9.787177836177489709e+00
-4.864727401986968132e-03,8.707207944642388411e-03,-9.794906978060870628e+00
3.798497400550612281e-03,1.402824882316220864e-02,-9.786922242247378279e+00
-4.741439962832329560e-03,-1.025291755757123989e-03,-9.786750946076796964e+00
4.983469234596361354e-03,-6.706656873289238742e-03,-9.800566867213541755e+00
3.378829548188964568e-03,5.687476786526307095e-03,-9.789953325704313869e+00
1.921870482806136001e-03,-3.999455194531568655e-03,-9.787828088517263936e+00
1.059697953591295060e-02,3.612362575407020680e-03,-9.800138765804936369e+00
-9.690366831029117653e-03,1.501072100438529885e-03,-9.792858963811980288e+00
1.645517543305408787e-04,-6.925584711556046760e-04,-9.795760009053319450e+00
5.428473958672561106e-03,5.957961504363603299e-03,-9.797445328416534593e+00
-6.470723631375396682e-03,1.905485610198822625e-03,-9.801213920302210170e+00
-5.865577790369982426e-03,1.819781026371497783e-03,-9.796154566148116416e+00
-2.288972004969948293e-03,4.797450787902699659e-03,-9.782819823694969941e+00
3.306935439540855098e-03,7.630742549721956794e-04,-9.807940921839085391e+00
-5.854024891629037303e-03,-5.769256709450732920e-03,-9.805193174408358914e+00
-5.918437507180317192e-03,-1.009484574614687505e-02,-9.789429788575297664e+00
7.680288507772720964e-03,1.088970471869741500e-03,-9.783351512956297569e+00
-2.831584856772593681e-03,-3.333659221973954510e-03,-9.784983866753794501e+00
1.007562748470297760e-02,1.525445524508784985e-03,-9.812322848645182560e+00
2.446986932600155040e-03,4.129487324804427539e-03,-9.788909591082630257e+00
-9.525105431307254525e-03,4.772769191424112295e-03,-9.792147799022419719e+00
-4.571172656605513099e-03,1.466122253716324424e-02,-9.782656977887461025e+00
-3.908445577394148961e-03,7.600327090418019897e-03,-9.788443525981639581e+00
1.911423464853449555e-03,-1.381686484268693639e-04,-9.791388864826082283e+00
-2.900794953610780560e-03,2.998865276655428465e-03,-9.783153979390863952e+00
-1.510007614114749347e-03,9.173966628119513411e-03,-9.793806114028438259e+00
-9.011929926459838437e-04,1.319465173683230692e-03,-9.798610279653692245e+00
-5.182167801905137022e-04,9.339136977004952253e-03,-9.795365420754146513e+00
-2.044601409274127233e-03,1.274989893802366998e-03,-9.791674282786926753e+00
-3.268000069260061733e-03,3.427300099246902132e-04,-9.790819348126676758e+00
-2.474458024543420807e-03,3.187443497646280394e-03,-9.790795131906456561e+00
3.891642076087403149e-03,1.348208524878114455e-02,-9.786298824271653984e+00
-3.566749865715205386e-03,-3.850246368418247501e-04,-9.801324875572024808e+00
-6.241501629248455635e-04,1.671463852928359436e-03,-9.789728606423922841e+00
8.579812497747080560e-03,-1.579486206675756975e-03,-9.815487817041283591e+00
3.439939208274478757e-03,-1.618207049026023454e-03,-9.805680196330955667e+00
-2.427079445452187787e-04,-9.702583950558105186e-03,-9.803451114693446655e+00
3.274808694566183035e-04,-1.071342852687411779e-02,-9.789674191604756714e+00
4.528881070542186034e-03,8.370481614140552577e-04,-9.793023639551012849e+00
-1.334566302575133749e-02,-1.502734130649072217e-03,-9.795820883661408018e+00
-5.147125716104005745e-03,3.134657915199602629e-03,-9.780948768038912888e+00
-3.607096143860793569e-04,6.827941481022326703e-03,-9.792821467032668536e+00
6.827316319323253543e-03,2.479000677772449576e-03,-9.798122821607391231e+00
-4.217012634884217265e-03,-3.869415268293346487e-03,-9.797442365147981391e+00
2.454631329605530456e-03,-1.326657795991821034e-03,-9.802840558194223064e+00
-2.351984549210708322e-04,-1.756991291597646051e-03,-9.790313740132029707e+00
-5.092771364799006384e-03,-1.087677942851639212e-02,-9.794976270619045522e+00
1.950284190760675964e-03,5.521057026958306468e-03,-9.791036935533361074e+00
2.684061523052489839e-04,3.620606143402733002e-03,-9.799046911728503062e+00
-1.975188373906998796e-03,-4.482500442227196208e-03,-9.796356653712869900e+00
2.515004634147542575e-03,-1.692619258146087918e-04,-9.804651827742983272e+00
-4.738995526258181316e-03,-1.069428221113656336e-03,-9.785275407414902205e+00
5.137897610823723843e-03,8.181930487269225422e-03,-9.798009576563959655e+00
-1.753259175905620649e-03,4.152007532566913406e-03,-9.791969650044858753e+00
3.887623871206628747e-03,-2.834280203336264712e-03,-9.804820343257635074e+00
8.052676270690719770e-03,-5.379439895408864858e-03,-9.788572172080932887e+00
2.419025201550227891e-03,-1.040874974511769337e-02,-9.803109649622513189e+00
1.672226249740671250e-03,-8.840857694582435547e-03,-9.784135161748670484e+00
-7.031163177981060225e-04,1.646992302019355335e-04,-9.793004152015530650e+00
-2.352123741237050489e-04,1.350142733934495999e-03,-9.789760714238312289e+00
1.377692406400349322e-04,-1.709803560342284048e-03,-9.792730957411626136e+00
-4.818382763975882083e-03,-7.751018248329879373e-03,-9.789475278823815074e+00
-6.015895681898608162e-03,-3.854824220485124700e-03,-9.806084450519932716e+00
3.009027726377678548e-03,6.782735784944561412e-03,-9.796887466873151595e+00
1.621096040614524803e-03,7.620054277781137739e-03,-9.777083559419123659e+00
-5.105080235635359003e-03,5.975464014139473439e-04,-9.792509682419519024e+00
-9.094666669492920685e-03,8.379218135267051375e-04,-9.798305317282602900e+00
6.238568185894002556e-04,2.608274772264303557e-03,-9.790524677937092690e+00
1.004295899256210450e-04,2.123231157000878173e-03,-9.793759657701485821e+00
4.827782695894505295e-03,-1.152145628486197148e-03,-9.800464117826695798e+00
3.445838717875651398e-03,-6.091157695371472898e-03,-9.798456572919011620e+00
1.001416620175046290e+00,2.336157446781520798e-03,-9.788022431775891263e+00
9.967341723638090123e-01,9.537818161104379177e-04,-9.804784876634016655e+00
9.990821303222261474e-01,-3.979795898304063460e-03,-9.795984517581782569e+00
1.005416459195809686e+00,3.482682759665242135e-03,-9.786932334545847212e+00
1.002239686974102151e+00,1.696526241994564645e-03,-9.798697524318262353e+00
9.915710137242393918e-01,6.465672686869793680e-04,-9.803149900138425465e+00
9.930980631483546928e-01,-5.263954227695519066e-03,-9.794428242243670368e+00
1.001254601706645708e+00,-2.481771332221268094e-03,-9.805848078815543545e+00
1.002213859119731598e+00,3.141399911979723958e-03,-9.783759140852364311e+00
9.957994787247721469e-01,-1.660715288685494671e-03,-9.799005241064982386e+00
9.994961097008896456e-01,8.001777680520088046e-03,-9.795618078064876499e+00
1.008217915264054909e+00,-9.373593821957961923e-04,-9.806511388725391853e+00
1.005085962303127634e+00,-5.266576123263610500e-03,-9.788273534434933865e+00
9.982958829052105409e-01,1.961112753587878070e-04,-9.796388368712328543e+00
9.933598615884604577e-01,3.454818367097216465e-03,-9.799236195838396668e+00
1.002075301226638571e+00,-2.052048108231676227e-04,-9.795296641437282403e+00
1.006099616874107650e+00,7.046918804078013479e-03,-9.801614817868797402e+00
1.006014880243632614e+00,-5.085732039565799348e-03,-9.794849457203310905e+00
1.000798177470150652e+00,1.925213318141947953e-03,-9.804141494905666221e+00
1.001295993860836342e+00,-3.764774434386473217e-03,-9.785807423323420906e+00
1.001945012661956458e+00,-6.595678739488968108e-03,-9.783936469870424091e+00
9.994264873823440753e-01,-1.846400356602583394e-03,-9.810583129926303769e+00
9.988077618534779711e-01,3.191411288161929549e-03,-9.791332270691288642e+00
9.970577538680051033e-01,-7.656099870138985582e-03,-9.787936351419167735e+00
1.003711034310937222e+00,-2.572221554797058524e-03,-9.791127541433862547e+00
1.002757912765701143e+00,-4.534258847776586124e-03,-9.787316778165276787e+00
1.002527234087323693e+00,5.552137503256359720e-03,-9.803137739577843845e+00
9.976590023068226953e-01,2.353630448866550050e-03,-9.801347534155777197e+00
1.000756300946714195e+00,-6.225506540674764951e-03,-9.795778705514599949e+00
9.992892541709870180e-01,-1.189963680747266762e-03,-9.786238899025825333e+00
9.920265683839338822e-01,-1.708251453871136027e-03,-9.783665336226002651e+00
9.958350484104133704e-01,-2.062900772673028314e-03,-9.783466586530504827e+00
9.922756864969838331e-01,-5.689633295924625012e-04,-9.787468146748828701e+00
1.011479091001761699e+00,-4.497450970641874227e-03,-9.783187717538496031e+00
9.967037003973471254e-01,-3.588046174806670992e-03,-9.791695881137824742e+00
9.950311889367819962e-01,2.596965469026946745e-03,-9.800947154699821695e+00
1.003700879267256152e+00,-5.403298355377903275e-03,-9.785197246242415048e+00
1.001417953025485197e+00,-7.538542060679292826e-03,-9.793430674501836464e+00
1.000887249064613016e+00,-3.334890351536401194e-03,-9.802552334801987399e+00
1.002968985594954177e+00,5.232169210785089092e-03,-9.791408967345924808e+00
1.007045109719246545e+00,4.075064569183940201e-03,-9.790969694468834916e+00
1.012393132746598923e+00,7.339743207195203838e-03,-9.799380359032017651e+00
1.001973056138891538e+00,4.255900831668757260e-03,-9.791057443061507826e+00
1.004545367579466220e+00,-3.000317675227834324e-03,-9.793861762681251193e+00
9.878107666880191484e-01,4.873184998053126278e-03,-9.779548283528386676e+00
9.967443641083584271e-01,-6.828531976157970959e-03,-9.774781194048545174e+00
1.000154306550626204e+00,-6.377087279664316911e-03,-9.792848018789923614e+00
9.972284231242887209e-01,1.367115299568445264e-03,-9.781775874944468541e+00
9.995357777129350030e-01,-3.247225694876141721e-03,-9.786639420362750030e+00
1.003593256613020346e+00,-2.493746460520930661e-03,-9.791731883516048285e+00
9.992693725647989744e-01,3.976445543892526829e-03,-9.797801756613228719e+00
9.973356522941586588e-01,6.835123201749201786e-03,-9.799135429936864483e+00
9.949010010714839369e-01,-4.183424857596641962e-03,-9.789520506890388774e+00
1.002325949851994302e+00,-4.777332113431912754e-03,-9.797016071797669312e+00
9.935643649139508371e-01,-2.037060800488809179e-03,-9.805613072613970971e+00
1.001749584360281498e+00,3.796134051791333428e-03,-9.801957059953359419e+00
1.003006723522657184e+00,-6.741956429381018925e-03,-9.786507354707350004e+00
9.920137838961498034e-01,1.063762050464948407e-03,-9.789627618615432070e+00
9.994939242981800698e-01,-5.778505121655061645e-03,-9.791488083203175208e+00
1.009792922911091351e+00,1.123037904620709238e-02,-9.797508112029539973e+00
1.001554861801183804e+00,1.033250224587305491e-02,-9.799560135701570474e+00
1.003852100682558257e+00,3.209225994665963321e-03,-9.791219693972276872e+00
1.004456990567232921e+00,-5.899420811873641937e-03,-9.801869250776249487e+00
9.886408668083372930e-01,4.452621150136318665e-03,-9.773504157105822543e+00
1.000549700423153832e+00,-4.378378568468046660e-05,-9.802795010105887386e+00
9.921451501622142732e-01,-7.941802373012108590e-03,-9.782500986437938195e+00
1.002316033271103635e+00,-4.149019225481532201e-03,-9.777556909895476878e+00
1.002318892495209113e+00,-3.225862071446909066e-03,-9.786184512187311668e+00
9.950779218565152240e-01,2.179635738335198181e-04,-9.782285888134067520e+00
1.003642905740408375e+00,7.946443426289045812e-04,-9.803351838890387526e+00
9.965636396084587290e-01,1.313973701000464237e-03,-9.791866832785910191e+00
9.997145683025197016e-01,4.384768652300704596e-03,-9.804736786100326285e+00
9.913350161738666566e-01,-1.157489060632646951e-03,-9.792502804265630800e+00
1.001325227054577827e+00,-1.143669388596069755e-03,-9.799205378535834399e+00
9.987829738799942625e-01,-6.559959415931907595e-03,-9.787300448240296546e+00
1.000666066398943954e+00,-6.781763857570261012e-03,-9.802539155731649245e+00
9.980993992408394577e-01,6.189500136457405828e-03,-9.783646358537188448e+00
1.003495509270705410e+00,-4.765322067152168162e-03,-9.797700812267345682e+00
9.961859157482108040e-01,-1.002372624928799666e-02,-9.773867768584587168e+00
1.003669810684631347e+00,-4.483489480782039405e-04,-9.786830586717362834e+00
1.001081651979800036e+00,9.308024611500043555e-04,-9.790527237827324925e+00
9.902496414517729661e-01,-6.759746496477481159e-03,-9.810133419363017637e+00
1.000069568356646066e+00,1.133338801848966576e-03,-9.799921328179335589e+00
9.986591600675690517e-01,8.702187158529912188e-04,-9.803698831087112708e+00
9.981290765316163105e-01,2.322611717383927469e-03,-9.786821804604246111e+00
9.950157282171835371e-01,6.463626962787984848e-03,-9.810121276214465169e+00
9.973497452501652871e-01,3.808280763862435369e-03,-9.802203756841182170e+00
1.002305887326353950e+00,6.748440747508016504e-04,-9.792584389162417580e+00
1.005216650637374531e+00,3.929704632917030427e-03,-9.795694694464899044e+00
1.000944671290259214e+00,-3.356005673439361580e-03,-9.796680273086503021e+00
1.002161145636206063e+00,7.771305446941012031e-03,-9.798754660428343755e+00
1.009371084398142715e+00,1.053204974810096825e-02,-9.808175743451105433e+00
1.005461243914227198e+00,8.038401938654123752e-03,-9.778345405885406905e+00
1.002302368011384281e+00,2.345614916874433353e-03,-9.797660694205136522e+00
9.994136407055296267e-01,-1.028060819473866497e-03,-9.801059596126851403e+00
1.005413586120294633e+00,-7.636739328893603568e-04,-9.786924367135870995e+00
9.893525356342260935e-01,-1.507005795001780833e-03,-9.810721746253703301e+00
9.999189070673871749e-01,-7.200530724267582665e-03,-9.797475699559017315e+00
9.957511448592673009e-01,-5.087066232651536171e-04,-9.802961044969261906e+00
1.008249046934276416e+00,3.880722992937496191e-03,-9.797536584809014570e+00
1.002772036205894057e+00,3.338576899889384580e-03,-9.805041284559766979e+00
1.009839274096543615e+00,1.358037180032791585e-02,-9.778610187904620332e+00
9.962327273643415415e-01,-7.245346554701862516e-04,-9.780443121305031795e+00
1.002014322368092625e+00,1.544427780066993982e-03,-9.803800520091590087e+00
1.002906750643522527e+00,-1.660362541964784978e-03,-9.800392988104658087e+00
9.983273314092340200e-01,-9.749220043883597558e-03,-9.781541102548411359e+00
1.000311124618375347e+00,6.183192615834787360e-03,-9.800361406968978173e+00
1.012144945029994636e+00,-2.180992904730140285e-03,-9.781279409558344184e+00
9.966121794165418990e-01,-2.223437826162429792e-04,-9.785842371215599300e+00
1.003721393404268802e+00,7.862448414145467232e-04,-9.799686077617579372e+00
1.000905918597395194e+00,-2.676976934135372969e-03,-9.794553851358861252e+00
9.987754369349078898e-01,-2.525237942050469371e-03,-9.793686563286202684e+00
1.000356833369935305e+00,1.962053111958638168e-03,-9.776762218177312391e+00
9.932355045538713290e-01,7.088585756297872530e-04,-9.799542768627787837e+00
9.971390466314480339e-01,-6.601345260635696835e-03,-9.804849868024483328e+00
9.910955067531581619e-01,2.714964603240772271e-04,-9.817571692083467028e+00
1.011024379996818157e+00,1.231189527912194756e-02,-9.797132378862492885e+00
9.979055167534045534e-01,6.599102454627392075e-03,-9.800453955585666677e+00
9.967059694824805804e-01,-2.099318039650772006e-03,-9.795311174523396502e+00
1.003829881202618513e+00,-1.057846987849389185e-03,-9.785072284541596943e+00
1.005575717937408298e+00,-2.982721514748102893e-03,-9.786058714426074445e+00
9.993934028245458068e-01,7.102659866380081274e-03,-9.789553776823028741e+00
9.935449210604654358e-01,-1.129372148371933461e-03,-9.789276419776330229e+00
9.997067142475066781e-01,1.963853055699747111e-03,-9.794150567017853248e+00
1.005351879347526456e+00,-4.689621120845978560e-04,-9.789954406612247695e+00
1.001116650514344508e+00,1.267121413539238348e-04,-9.784747408163948279e+00
1.002996685103304531e+00,8.471086013581697466e-03,-9.791729817847796724e+00
1.000382219956895691e+00,-3.656365732360198489e-03,-9.791838843682072024e+00
9.974924337999895307e-01,3.127733672730889387e-03,-9.802285427407232632e+00
9.947608505753390284e-01,-2.636351504701897781e-03,-9.792175764618008316e+00
1.000417419804495500e+00,-4.072450355954489870e-03,-9.786047464487165115e+00
1.004776994038066640e+00,-1.675288678554894602e-03,-9.798529437861285274e+00
9.999742906833352096e-01,3.544955984509981159e-03,-9.793617159397651761e+00
9.981694931340109322e-01,-1.504326409942045428e-03,-9.797968638177366074e+00
1.003456107990168711e+00,-8.752720144189112331e-03,-9.785558205933787335e+00
9.978930705120976352e-01,-1.161444724033438430e-02,-9.789520741977266738e+00
1.003039390399514286e+00,4.162853002570567236e-03,-9.784262790049663039e+00
1.002286521591436719e+00,-6.808579893179892394e-03,-9.787094000052448450e+00
1.001174865522834079e+00,4.489377905899758110e-03,-9.794735856355131887e+00
1.006930691262772681e+00,8.552151203015395317e-03,-9.798288740994554047e+00
1.006977480876330100e+00,7.840686422233858477e-03,-9.798851270248933432e+00
9.975248618642429399e-01,-8.412680182082403046e-04,-9.795242922167332722e+00
1.000516308782671171e+00,6.728868389700402852e-03,-9.782078265270270023e+00
9.948686027589094261e-01,1.853148492675935630e-03,-9.779894744707808840e+00
1.008352016838910625e+00,9.535008293437320648e-03,-9.795560641743382035e+00
9.990366677572075638e-01,7.786483763973966847e-03,-9.783294986643442215e+00
9.997129978931589278e-01,-7.990948361430735489e-03,-9.799683659150552728e+00
9.895552743630431358e-01,1.146674362473807567e-03,-9.782811530833996017e+00
9.987006610126173412e-01,1.032735402072736640e-02,-9.788168666234092541e+00
9.930074971198866729e-01,6.820018790391664185e-03,-9.791446752903311790e+00
1.004549629346087158e+00,-5.560387318141999692e-03,-9.789335616670172158e+00
9.984276962381852805e-01,-1.185466925514137328e-02,-9.789690984635917914e+00
1.003692924400090503e+00,3.335203988526398993e-04,-9.789821863106634936e+00
1.001375835808719694e+00,6.339648291095606632e-03,-9.810370185346146243e+00
9.920929102139363076e-01,9.404802948087556897e-04,-9.797882856383690608e+00
9.931742835675493319e-01,5.993983928121350210e-03,-9.780179235608361665e+00
1.008073753314507437e+00,1.621484240333527027e-03,-9.815903871029648897e+00
9.998112487476410459e-01,-2.475543167468694048e-03,-9.781210604808450171e+00
9.966079128810774179e-01,-1.708564821630190406e-03,-9.791922222262952502e+00
9.980048959093842376e-01,-5.177002893617308615e-03,-9.792492818323005110e+00
1.007292337575175667e+00,-1.998294039435745319e-03,-9.795614147098012481e+00
9.962518884834028476e-01,3.602442747681556829e-03,-9.794854451780834026e+00
1.008025920911832074e+00,1.268078605135485514e-03,-9.776901191671267810e+00
9.921730843216038931e-01,9.548252727294748209e-04,-9.789677947163335503e+00
9.867768342891085620e-01,4.181240546453746099e-03,-9.792316958875472821e+00
1.004595983661752845e+00,3.984846136668823181e-03,-9.791491994954423461e+00
1.005139636519878366e+00,3.674184911886901970e-03,-9.796298519519275771e+00
9.967296624188132226e-01,1.090476817288216910e-02,-9.789381415527239838e+00
9.981224028625794720e-01,8.120640269589698155e-04,-9.784539270433398883e+00
1.013547177810387057e+00,-9.589785210461237606e-04,-9.782976823255907561e+00
1.003335808681490748e+00,-5.221383466183207936e-03,-9.780575417320836351e+00
1.004992809900101092e+00,1.694968399022542260e-03,-9.797066390820189596e+00
9.969101873208101594e-01,-5.330951681997933393e-03,-9.802563266465092795e+00
9.939922572738444373e-01,2.415882839722046944e-03,-9.781756055525990590e+00
1.005576583342412844e+00,3.707097964685859316e-03,-9.801094054288208568e+00
9.986380082981778372e-01,-4.787094161555934847e-03,-9.806355793476791760e+00
9.986193955899095309e-01,4.299014836263854479e-03,-9.796800799920696079e+00
1.008358377321244559e+00,4.446404661821994932e-03,-9.793265674939133802e+00
1.006642768098883423e+00,1.425205670731768222e-03,-9.799598161044581701e+00
9.996705847393769773e-01,-9.435683882701699108e-04,-9.808124419859927556e+00
9.922298558387300238e-01,4.076418609267838493e-03,-9.782838685546103363e+00
1.004834675651328224e+00,1.177947903670699837e-03,-9.796125482924566086e+00
1.002884065089835852e+00,2.038355734376365649e-03,-9.792227576872464923e+00
1.005280404256350790e+00,-6.868847867698452993e-03,-9.799910115267243427e+00
1.000816156224375586e+00,3.642750718291525372e-03,-9.798577094911507857e+00
1.005521607946457729e+00,-5.139703210440715224e-04,-9.800569489405486223e+00
9.944779941921653155e-01,-2.172911973973228918e-03,-9.801364807621537167e+00
1.011184851072830071e+00,1.849005333523122884e-03,-9.798342231718926598e+00
1.003537763582535991e+00,3.893859840579233338e-03,-9.784636864176794901e+00
1.006424596820025830e+00,5.050605120397825935e-03,-9.796644280078535161e+00
1.009277384727867988e+00,-3.487270779276601361e-03,-9.804377664209823706e+00
1.000735171533631007e+00,-9.259216286757160352e-03,-9.793953179187386837e+00
1.001971347152172731e+00,-1.014298012679571434e-03,-9.800123435234210589e+00
9.932854832763333697e-01,-6.579605867202334771e-03,-9.782074614249811617e+00
9.954264496941895857e-01,1.443875488238631011e-03,-9.799594391234011326e+00
9.996814824903268448e-01,2.661078523210693727e-04,-9.774403056989591221e+00
9.980197147826623816e-01,-2.613488437263659057e-03,-9.796968769954702339e+00
1.002200391129255186e+00,-6.137819079484689751e-03,-9.784529470498759096e+00
1.001086101598170686e+00,4.164982125059629552e-03,-9.788453303597576038e+00
9.949617883742868374e-01,1.069380764589564388e-02,-9.802006310983935933e+00
1.000274860013361966e+00,2.916664764901341286e-03,-9.799985034207960410e+00
1.006847697951409160e+00,5.822103779849620991e-03,-9.799444190950639566e+00
9.982849833732663214e-01,5.315398346487506913e-03,-9.797857050629376729e+00
9.933941750245756097e-01,-8.678099343361724352e-03,-9.792655513325353667e+00
9.926342647018678855e-01,-1.506819628784531611e-04,-9.803250762331797930e+00
1.003876053586279404e+00,8.586185736518807399e-03,-9.787260715869512850e+00
1.001014689088463694e+00,-1.022171395042457444e-02,-9.796088127698654446e+00
1.001941278362270316e+00,-5.102581170832072577e-03,-9.800206936639744626e+00
1.001743123676581915e+00,-4.391455504400435320e-03,-9.803779928099858765e+00
9.979981474498554883e-01,-1.444541968552186945e-03,-9.792222300313961014e+00
1.002873863711387648e+00,2.672816237053620390e-03,-9.791360690935023925e+00
9.998216590459607644e-01,-1.482009502747909336e-03,-9.794093715970562997e+00
9.921732098953213175e-01,3.688147596704180985e-03,-9.795832432722082928e+00
1.004351447832618982e+00,-7.789739152845526551e-03,-9.791414619755469673e+00
1.000027102149636082e+00,2.981570802068874652e-03,-9.786609564347136470e+00
1.005887039196287747e+00,3.958309509440440595e-04,-9.802552136116215564e+00
1.011039086576927648e+00,-2.204445396488997097e-04,-9.797702247113855734e+00
1.009039759959677207e+00,-8.305235218448480446e-04,-9.792393295018435140e+00
9.993886185984743875e-01,-8.208141265877834467e-04,-9.793835944990554765e+00
9.939038781042620618e-01,-1.051316521287232891e-04,-9.790608131225488009e+00
9.975335134060120401e-01,-6.067847677606934449e-03,-9.794190330431520763e+00
1.007122887062360528e+00,5.437790840497890542e-03,-9.794940830341538174e+00
1.002145733821732332e+00,-3.678623925793338373e-04,-9.790809039695481886e+00
9.934829934738678148e-01,3.055784634666035087e-04,-9.797642858890494466e+00
9.990841877146233729e-01,-2.172899053389984545e-03,-9.800106661660750618e+00
1.004195561438518958e+00,6.465025788200205736e-03,-9.798815193099894572e+00
9.975311154817519954e-01,-4.316368824286632121e-03,-9.787481594972287979e+00
1.005323868957010536e+00,-7.083923951378624968e-03,-9.793488689952821957e+00
9.948947634066993562e-01,8.694252375296520827e-03,-9.794906736885952370e+00
9.988138868069050824e-01,-5.280122198893839706e-03,-9.796678413785137707e+00
1.001058431782744229e+00,1.184393123420793064e-03,-9.800103892453797982e+00
1.003160980154504944e+00,-7.741868811967942375e-03,-9.796952575212198866e+00
9.895700159989212485e-01,4.505163178507913709e-03,-9.785864829441749180e+00
9.962983643351008833e-01,4.192104170850411392e-03,-9.800097252304979634e+00
9.898167629711814852e-01,-9.945965207836802643e-03,-9.785093101348371292e+00
9.946867799298453328e-01,-1.220792810433501442e-02,-9.790451867524074814e+00
9.990275626924568497e-01,7.906581894659194800e-04,-9.792685465578928827e+00
1.000009095224227096e+00,7.979309292890346059e-03,-9.795543805243278612e+00
1.003630693872176849e+00,5.198852772539286349e-03,-9.803827722795725563e+00
9.994004770598757803e-01,3.572293316077090105e-03,-9.793386150987624106e+00
1.000315393407398723e+00,5.858129633942817625e-03,-9.810535551909035590e+00
9.954429806034018613e-01,3.080008716361797103e-03,-9.780290196618425469e+00
1.005201336660943578e+00,6.656531078400614162e-04,-9.794925906323209475e+00
1.000790991088138071e+00,-2.056796623612608659e-03,-9.792436873297146960e+00
1.008354229632687504e+00,1.080478346908168808e-03,-9.792556504806858797e+00
1.005169739713307475e+00,-1.369982017597365137e-04,-9.788059221915917263e+00
9.997114483521479800e-01,2.799167510312404721e-03,-9.801042105756549105e+00
9.924043594899245591e-01,-6.669873283158349840e-03,-9.790998381756510938e+00
9.993607962414534640e-01,8.084457227480510528e-04,-9.794029368177708861e+00
1.003550707212245596e+00,6.082828756796262109e-05,-9.791150995398091084e+00
1.000897451747456701e+00,5.606034046353024908e-04,-9.804832036675367846e+00
1.005064078028124586e+00,5.835936621645571726e-03,-9.796380569077141942e+00
9.980491848694725832e-01,-8.026369956782324804e-04,-9.791463068701723671e+00
1.008035305634386036e+00,3.018170677007221258e-03,-9.800877175606711234e+00
9.922078089679929880e-01,4.704211626972727017e-03,-9.794845272062433494e+00
1.000575631683528366e+00,-2.422308202777268254e-03,-9.800041552694819913e+00
9.977970762847994113e-01,-1.319360701145020839e-03,-9.790520177627954013e+00
9.964378165597790327e-01,-1.973869514097538035e-03,-9.802130617198049123e+00
1.003748061950791914e+00,-5.094501911502549198e-03,-9.804423670244540645e+00
1.001519064926244207e+00,-4.808177898046539327e-03,-9.785805620606653932e+00
9.905301674939941403e-01,1.760387457391429341e-04,-9.780274807814699045e+00
1.005643281285832025e+00,-1.086927792207526000e-02,-9.800503740761264737e+00
9.926265187554697000e-01,-6.947336554597271889e-03,-9.781293593936654318e+00
9.931088167290853530e-01,2.952590186550118831e-03,-9.781491563621447227e+00
9.992232481360754370e-01,-2.916197966237847258e-03,-9.799926189231578988e+00
9.985909675115831607e-01,3.428041836598684586e-03,-9.783285927864984188e+00
9.960258291614381143e-01,3.158386475078738941e-03,-9.792633121878349556e+00
1.001147629054979893e+00,4.624068846266488585e-03,-9.799934948588150618e+00
9.914365941151932482e-01,2.480904800938264852e-03,-9.794240661685542193e+00
1.005702453419460074e+00,2.363663425631858323e-04,-9.804260650816814859e+00
9.979918503320611700e-01,-1.066196806831780364e-02,-9.793081497122969381e+00
9.967059195474076150e-01,1.317928746494459631e-02,-9.797765785496199697e+00
1.000573641536488978e+00,-2.260917345207379050e-03,-9.794108905215956895e+00
9.985781181993264033e-01,-8.877236219024657940e-03,-9.799369867074911866e+00
1.001704739042290404e+00,-2.428826948136710018e-03,-9.793459310422656827e+00
9.959212006742936829e-01,2.674209389011253640e-03,-9.793970489331503160e+00
1.001453343266069718e+00,5.326055707497045870e-03,-9.791781228022513162e+00
1.008994407081502676e+00,9.367940907497363824e-05,-9.813468943861009208e+00
1.001315514067625756e+00,-2.963547899943405790e-03,-9.784281292979875033e+00
9.966863500015196164e-01,-5.412702277506609844e-03,-9.795470264949758032e+00
9.993760183589676105e-01,7.457276672983791620e-03,-9.797217450410526496e+00
9.988582743802588704e-01,7.570070226525828401e-03,-9.799981089485383379e+00
1.004286342609232996e+00,-2.379670669701765794e-03,-9.794722256807645522e+00
9.949672273635437048e-01,-1.780365516152503666e-03,-9.796555216978026337e+00
1.004870134703871987e+00,-9.086958452556276322e-03,-9.808574611030600465e+00
9.966961180531882514e-01,1.210981595875396197e-03,-9.795711850392594400e+00
1.011209092945945409e+00,5.331937367511586402e-03,-9.785857602792731313e+00
9.932240104132504799e-01,8.727648070567969180e-03,-9.799562377435671934e+00
1.008916029742896292e+00,1.913294317438130098e-03,-9.812234537792598132e+00
9.991499216859481836e-01,1.970307818432903181e-03,-9.797378932490270032e+00
1.002533758634335026e+00,-4.816120639370040542e-03,-9.801281731910984618e+00
9.960570640994691471e-01,1.265184667607702337e-03,-9.801903385467729990e+00
9.969707958223346100e-01,-5.808560210099021886e-04,-9.784987269533925058e+00
9.995434664683485737e-01,-3.448569979845949891e-03,-9.789027439235168160e+00
9.955413165987649915e-01,1.304011133269972200e-03,-9.797635945033956517e+00
1.002193184574353690e+00,-1.298714348880483389e-03,-9.787986532679017415e+00
1.002504247107847357e+00,-5.182980866890495378e-04,-9.800980597115055204e+00
1.001479145544871496e+00,-2.762259396821256825e-04,-9.791974507371698166e+00
9.978849297501242166e-01,-1.489269156456676704e-03,-9.799399213696974087e+00
1.003359174378494201e+00,-3.533632463925944628e-04,-9.797673058802571333e+00
1.004002032792615573e+00,3.148498829135852432e-03,-9.787938356482005275e+00
9.999603110111987547e-01,-5.673076153941820216e-03,-9.783708631313208670e+00
1.004549966325079202e+00,-6.391218272868314475e-03,-9.808441257436413707e+00
9.995137498799424591e-01,6.544152268989094799e-04,-9.794800298283437456e+00
9.975622472885791181e-01,6.717109492150996793e-03,-9.803634240920491294e+00
1.007814040308540937e+00,-9.733793106685957944e-03,-9.783413294630138424e+00
1.005777939123340348e+00,4.512188466601868564e-03,-9.786148131115172788e+00
9.970407450690388362e-01,4.177149414320960904e-04,-9.787466259985039940e+00
9.959768588478504769e-01,7.019809307469986493e-05,-9.787695856948287698e+00
9.947289427251490013e-01,5.340198138786543015e-03,-9.809795903013709406e+00
1.003328510400252949e+00,1.650833517776146816e-03,-9.794932092392702572e+00
1.006202512747943700e+00,1.984553796429097596e-03,-9.793521963816466780e+00
9.921676021268843737e-01,-4.769439483878879123e-03,-9.807453045809138459e+00
1.001006637154782331e+00,1.238136996512423935e-04,-9.793233356333015394e+00
9.964093437537637765e-01,4.935555320245079911e-03,-9.795747905074394524e+00
9.946790890500469828e-01,-4.272520515508946432e-03,-9.798798635190278716e+00
1.004399699951320057e+00,4.100033829069951036e-03,-9.806994615844102370e+00
1.009525723401987873e+00,7.639703942153747672e-03,-9.790765043130909007e+00
9.988177499831526474e-01,3.675599994440698315e-05,-9.792509905475382581e+00
1.012530033189226630e+00,-3.485425581859769462e-03,-9.806813137604107666e+00
9.961552283831576204e-01,-6.698848161965699835e-03,-9.789373991945057085e+00
1.004558500020488410e+00,3.663332660904459245e-03,-9.798671208677191657e+00
1.004972314425956581e+00,-1.133385044130042277e-03,-9.781959854474953531e+00
9.954826144766466545e-01,-3.903970480247198008e-03,-9.797692549418590247e+00
9.992551865149519319e-01,3.257520118551139685e-03,-9.792783002936102932e+00
1.004283613693450095e+00,-3.145810356153281532e-04,-9.805143233709655348e+00
1.002306708120217937e+00,-4.369612248399863436e-04,-9.793961417480124609e+00
9.943664475592022267e-01,-5.254626441828071613e-03,-9.799843602914904750e+00
1.003036813107597958e+00,5.664082010955861189e-03,-9.800384087349383933e+00
9.890148433426571017e-01,1.213254632428524923e-04,-9.813596994542852059e+00
9.962462900982627101e-01,-1.996582398054151924e-03,-9.802662655720332907e+00
9.997880601224308217e-01,-7.977693467028906110e-03,-9.789033487711174431e+00
9.920241642959244377e-01,-3.587122752323479435e-03,-9.809342781256338739e+00
9.992782058456068928e-01,7.028246950670131304e-03,-9.779467168573999558e+00
9.919010919577584406e-01,-2.934291944494666726e-04,-9.790334222250553609e+00
1.000095992292346025e+00,8.552460778151691964e-03,-9.793801320573159330e+00
9.889890753228126608e-01,2.687482374480442467e-03,-9.791931987637584101e+00
9.968515198357550400e-01,-4.480232498615928718e-03,-9.791401677114377478e+00
9.993611282800571871e-01,-1.457468506374972944e-03,-9.796493885455141992e+00
1.000706529929243915e+00,9.188830515384799336e-03,-9.794944966453412505e+00
1.004429979228778302e+00,1.265290663590627838e-03,-9.802809689359424539e+00
1.009699957619574873e+00,2.742062412188859405e-03,-9.811936803842725041e+00
1.004273842913770753e+00,-9.558269047274085134e-03,-9.787012883091595228e+00
1.004552815880607186e+00,3.688989968686888238e-03,-9.802246477110108103e+00
9.992666960822272904e-01,-2.502001194548922770e-03,-9.797166361906281651e+00
1.002605750397498996e+00,1.032472603526768916e-02,-9.794453186519664456e+00
1.003386918038842834e+00,-3.408485078408059719e-03,-9.804908663080832198e+00
1.006459586998879718e+00,1.537483761948279398e-04,-9.809239406216978097e+00
9.985447770279600732e-01,-8.012549106452634571e-04,-9.795790408786281489e+00
9.923706825641827045e-01,-7.241095976960472066e-03,-9.784728691283149260e+00
9.981684167659931051e-01,1.576741406706629088e-03,-9.779823038274191305e+00
1.007466452187862460e+00,-7.929941261433753582e-04,-9.796379729799800984e+00
1.005758839095639345e+00,-4.697409326700823992e-03,-9.804433293069152455e+00
9.897670193056009591e-01,1.399797547044977827e-03,-9.785930877105277759e+00
1.003032154431827472e+00,-6.439067774911453289e-03,-9.805864753784284460e+00
9.962942728473710430e-01,2.068313696770791681e-03,-9.801956718308312944e+00
1.004102330532336440e+00,-4.566659593449522853e-03,-9.800317379486637392e+00
1.003958297378997333e+00,2.082475746799657568e-03,-9.792167843242749470e+00
9.992513827671878346e-01,7.558064527514321909e-03,-9.805876476179822276e+00
1.005407502379676021e+00,-5.892170037312109308e-04,-9.797061719852962369e+00
9.986272198258090427e-01,-1.480801333383857101e-03,-9.798734212098539231e+00
1.001645692418144273e+00,-8.074510969452622366e-03,-9.810450829747701107e+00
1.001904516308386395e+00,-5.627974057876706897e-03,-9.800931813134994286e+00
1.000364617845921122e+00,-9.997574630376468430e-03,-9.777667010903781986e+00
9.990690681186442657e-01,5.234055220827700354e-03,-9.800761337979057686e+00
9.966319959346894297e-01,1.957794542906921356e-03,-9.788456341100459923e+00
1.004174865611976442e+00,-4.924407831016426899e-04,-9.795123924964688200e+00
1.003630199572539627e+00,-1.938600622122449652e-03,-9.801972616895870516e+00
1.004991909280636309e+00,2.619447732447273414e-03,-9.804357297597322329e+00
9.855168517108368054e-01,2.846499698794112041e-04,-9.795502700667869433e+00
1.001428956968844597e+00,5.675715710524691614e-03,-9.798099197146298067e+00
9.860056889164799943e-01,1.135513696864851214e-02,-9.788142816547537706e+00
9.977855026894990598e-01,7.510238028623764626e-03,-9.795292937938155475e+00
1.004368170742031330e+00,-5.784006934540873897e-03,-9.791033841726292763e+00
9.991057559411504752e-01,7.385664016629730697e-03,-9.776918357919569758e+00
9.985206782543540882e-01,2.912351134965357989e-03,-9.807517932818262452e+00
9.996561571303981264e-01,1.052012203280696181e-02,-9.796545855434453998e+00
1.010320432876264718e+00,-3.645474114334235332e-03,-9.804776968130108017e+00
9.969654520179992430e-01,-4.484954476743762720e-03,-9.801448811581751741e+00
9.970010590822250274e-01,-2.595685467205942256e-03,-9.786031329568913861e+00
1.010226595818857431e+00,-3.454150544337730288e-03,-9.794515396036768351e+00
9.989659773024692768e-01,-4.488027374867396141e-03,-9.793428134614075020e+00
1.007533785032648010e+00,6.304280011628772377e-03,-9.789992195413702802e+00
9.978754982247034500e-01,3.246418722412271109e-03,-9.807603899648771772e+00
1.008208898956830524e+00,-1.089267627642848645e-02,-9.792492041561040139e+00
9.989694866535295814e-01,-5.878419326491384454e-03,-9.793672971045648268e+00
1.007555997832415562e+00,1.007154011446761976e-02,-9.802041271103378861e+00
1.009030407943318552e+00,-3.928160668293805696e-03,-9.789938486652678407e+00
1.003422349016750426e+00,1.343013215157508452e-03,-9.802353553759104443e+00
1.009228463949249477e+00,-2.739638086831634300e-03,-9.776019532933064582e+00
1.008413666529306862e+00,-8.424372873762013547e-03,-9.799397012025805154e+00
9.996579172484094666e-01,-2.547993724765848164e-03,-9.796575792262387949e+00
9.999738107003155463e-01,8.469176994417551910e-03,-9.808777002263612488e+00
9.921725496454337767e-01,-6.034415309832152127e-04,-9.811051893523449863e+00
1.010892431271082970e+00,-8.065049666272302437e-03,-9.802436498448766855e+00
9.958508370063163806e-01,-1.913374288702075071e-03,-9.804853549415804892e+00
1.006008507417571529e+00,2.661879472302280860e-03,-9.804313402781017928e+00
1.004859981284398351e+00,-5.754040964827442095e-03,-9.789534321988032417e+00
1.002018287087591775e+00,5.013640452803191407e-03,-9.790672234025370457e+00
9.999090465121160953e-01,-8.266704880038657985e-03,-9.803727558607546300e+00
1.002245702867069488e+00,-4.572759062702463906e-03,-9.798838050664032906e+00
1.003475322945131643e+00,3.886265122097731740e-04,-9.786154498201115715e+00
1.007135750091934900e+00,3.295428062327900639e-03,-9.798099051119171676e+00
9.943226107369902422e-01,7.100606298760541888e-04,-9.805551212312490605e+00
9.982583169780947507e-01,-9.649470413704350344e-04,-9.798032760363925675e+00
9.920738504387797141e-01,-1.609528291484574585e-03,-9.799113734547397314e+00
1.002658194275666936e+00,1.342159384938369261e-04,-9.810563653080468072e+00
1.005953017914968717e+00,-1.569453662312331015e-03,-9.798259776363256179e+00
9.969635472314831715e-01,-1.243497101787011984e-02,-9.785572525716951020e+00
1.006291317885194214e+00,1.572463176663972152e-03,-9.796270216381479656e+00
1.009622022971319089e+00,-7.254543002215032427e-03,-9.803295065330281943e+00
9.962074368735417407e-01,-1.052709327583554446e-03,-9.797882640969323376e+00
9.967815713076961792e-01,1.982703217612716198e-03,-9.797199810039412426e+00
1.001315181482887562e+00,-6.175442881413494662e-04,-9.797985862761999343e+00
1.003631536081548203e+00,-4.260870201807821257e-03,-9.799108179981473654e+00
9.957449306410357526e-01,5.290762535340227946e-03,-9.791185887693989898e+00
9.942030094818850028e-01,3.933863175531916593e-04,-9.794795728880879793e+00
9.942676337132576592e-01,2.418275109597109711e-03,-9.809416677341758373e+00
1.002168112953653711e+00,2.273779593278307202e-03,-9.799327705260916233e+00
9.902370432406418788e-01,2.607088398540037370e-03,-9.782388775191217078e+00
9.949876063667821846e-01,-6.182671505600210830e-03,-9.782253992639509121e+00
9.915337310138524485e-01,7.438945430483268582e-03,-9.789369881554392805e+00
9.966960019291665196e-01,-8.057673831803769532e-03,-9.798052061379452837e+00
1.001678111648074188e+00,7.112981726480774834e-03,-9.793986365229578439e+00
1.003863481787277356e+00,-5.656181748978249789e-03,-9.795810632694189835e+00
9.918191426846787451e-01,-4.798996324636808572e-03,-9.783582253205713286e+00
1.000571028773592941e+00,-4.579218869605054983e-03,-9.792663329189474908e+00
9.974084746177959149e-01,4.697930661580561502e-03,-9.798889692964690923e+00
1.002007442125808057e+00,1.102114442982115574e-03,-9.801889227504339885e+00
9.963423508176861843e-01,6.178624437621951446e-03,-9.802482313659925950e+00
9.966997559530155204e-01,9.114983079379005218e-03,-9.802405132500288332e+00
1.001283518472206202e+00,4.146350293900654717e-03,-9.806190759035295912e+00
1.006956132100915058e+00,-5.484179527091258277e-03,-9.797305052901611688e+00
9.970979543015523472e-01,8.392943195610002086e-03,-9.787262362748780475e+00
9.993097523929295178e-01,3.598023321482958416e-03,-9.794029591650065925e+00
9.900812329508285048e-01,3.130402589093296290e-03,-9.805162281993281326e+00
1.001293586019734727e+00,-1.819002605569331832e-04,-9.802380939539819593e+00
9.946632422529153583e-01,6.686841456450196008e-03,-9.803896378719558768e+00
1.000178188130671941e+00,-3.125068240403841308e-03,-9.788434326706605404e+00
1.001545015854501175e+00,-6.960964297452151492e-03,-9.798325309498038038e+00
9.935887381198300616e-01,2.099536861266033689e-03,-9.805235693946832143e+00
1.002283576266974396e+00,-5.546388369929208979e-03,-9.789295620988834656e+00
1.012726356608945499e+00,-5.436094282724076611e-03,-9.791627067917914928e+00
9.990434210808147864e-01,-7.309914280077317496e-04,-9.806318644089447645e+00
9.948555006588639671e-01,-7.030692983850820969e-03,-9.788958871053837996e+00
9.998234639414191882e-01,-2.965896652175255190e-03,-9.782179028982870506e+00
9.952854755707440937e-01,4.475531902310454259e-03,-9.789940913158531544e+00
9.937161375425207499e-01,3.386957037946146127e-03,-9.804467758218789797e+00
9.999694021455997062e-01,-4.044173564814095099e-04,-9.796058095427946810e+00
1.003987006101711321e+00,1.392055380443644802e-04,-9.787711550707047792e+00
1.005703593106579197e+00,-2.383743912305187845e-04,-9.798098126001656638e+00
1.000670751876462594e+00,1.034241564460720506e-02,-9.780614545564292328e+00
9.942456073990485477e-01,1.069491332724205497e-03,-9.802357136321363740e+00
9.991040819395119454e-01,5.047331067339200575e-03,-9.802028487202669282e+00
9.983975273592041733e-01,6.634390571448285819e-03,-9.791039363897148462e+00
9.891623954863290047e-01,-1.355475026757082960e-03,-9.783765834978645159e+00
9.929181549430819986e-01,3.035409333316452327e-03,-9.794722370016749835e+00
1.000358574002615297e+00,9.091163225798271769e-04,-9.792609793633454629e+00
1.010604168374291012e+00,-8.454233586177408930e-03,-9.774854188106582242e+00
1.001633523025326378e+00,2.004944198135758492e-03,-9.794743776477488950e+00
9.978671134534115028e-01,6.279736179777869846e-03,-9.792254151284261354e+00
9.933000599516483842e-01,3.323766311527493605e-03,-9.790567664983772289e+00
9.991965942987020011e-01,-4.119565137641898259e-03,-9.782404925273510798e+00
1.005357155309713590e+00,-2.527692846800532584e-04,-9.789545395870977273e+00
1.001537726045010679e+00,1.932002242911394496e-03,-9.788506146828838794e+00
1.006433758991772676e+00,-2.080111666681278698e-03,-9.803215686701488352e+00
9.933120921819259541e-01,-5.777653320464833271e-03,-9.808503600763158303e+00
9.944539660678005655e-01,4.496086081382925405e-03,-9.784370451369941435e+00
9.969541954039097265e-01,4.263484767071792046e-03,-9.799017345836890769e+00
9.946055256033234926e-01,-4.839704635430639758e-03,-9.800046801309724387e+00
9.990999452053958008e-01,3.910837915145586388e-03,-9.794090774187147019e+00
1.007690278388264193e+00,-1.401581698687624257e-02,-9.785816301463263756e+00
1.007127738318668309e+00,-2.760685944970891603e-03,-9.789935479382405603e+00
9.997588790238933765e-01,-3.027090822583268937e-03,-9.798526957607084142e+00
9.980950598938762575e-01,-4.550794579342282847e-03,-9.793920110452992489e+00
1.005438042069562776e+00,4.393691508572145250e-03,-9.779300755934123401e+00
1.000971494657075800e+00,7.917697130447856960e-03,-9.806780759468940900e+00
1.000734176483101479e+00,1.101317006900419913e-02,-9.788025195823776059e+00
1.004766995291753284e+00,-6.767513831191470861e-03,-9.794430817269972778e+00
1.000837031080203721e+00,2.524670591851511069e-03,-9.793597871306934266e+00
1.002197856122133190e+00,-3.644580853601081440e-03,-9.812047227491596857e+00
1.007341460779411557e+00,-7.820453597168880097e-03,-9.795537758274859286e+00
1.011981781519243340e+00,5.608726311957710174e-03,-9.792465361222944864e+00
9.973960156875254501e-01,-9.908382982561504682e-03,-9.788478864117179157e+00
1.001118935474508476e+00,8.188703878586089599e-03,-9.782585517401253483e+00
1.002117821677773302e+00,-2.386477199751275546e-03,-9.792862463777852966e+00
1.000326447846973998e+00,-9.348803004873828051e-03,-9.789583014681555895e+00
1.001645301295678303e+00,7.102169625910210570e-04,-9.792813774865644305e+00
1.001218616851916154e+00,3.141021773270854817e-03,-9.783091108682672399e+00
9.941251489582304535e-01,-3.197398075964839187e-03,-9.799395776457801688e+00
1.003719312693505561e+00,-7.658806951095538038e-03,-9.794757407863794896e+00
1.000773843280151620e+00,8.139976493247307737e-03,-9.800016592413662408e+00
1.008731689364966710e+00,3.261928372970807326e-03,-9.787127073118764287e+00
1.000315037645128191e+00,3.945879680881636889e-03,-9.781572194515348428e+00
1.000199990204371225e+00,-5.918555495763293088e-03,-9.785422047991019667e+00
1.004679737415006491e+00,-4.004130604679720200e-03,-9.793053273545920590e+00
1.004644548393158976e+00,1.569544520914575338e-04,-9.808716261516428503e+00
1.008799410595347501e+00,-3.480368068896144500e-04,-9.806424150111213933e+00
1.003998933433464691e+00,1.832696080956650216e-03,-9.784238574740308891e+00
1.007250011885962637e+00,4.207382025470712307e-03,-9.788270572223771282e+00
1.002073725164965179e+00,4.048393613081452749e-03,-9.808412063342853315e+00
1.013852415250885874e+00,3.117303105201765789e-03,-9.794823552812413681e+00
9.976587242127282762e-01,2.028805473130992562e-04,-9.776605077003670985e+00
1.000189220620004038e+00,-4.316999026890346036e-03,-9.796563766348700852e+00
9.966635412093453050e-01,5.236986866403069846e-03,-9.796294115720931117e+00
9.962262579809738616e-01,-6.663920361787969635e-03,-9.803419188498994075e+00
9.915276302191913249e-01,-3.844007928824596208e-03,-9.802088945678324450e+00
9.956490665398579631e-01,-1.054534216692770178e-02,-9.800477856016861722e+00
9.962718013711473475e-01,-2.479437521000248286e-03,-9.808224864512315122e+00
1.006297837340610846e+00,-4.306140488212884150e-03,-9.788976652944329615e+00
9.988960715126508072e-01,2.677432302459765556e-03,-9.793996633050038980e+00
9.972478169704923623e-01,3.388373688383327417e-03,-9.810880655954898444e+00
1.007188129219541928e+00,-7.486119654179610935e-03,-9.800152748472898523e+00
1.004448190821464859e+00,-7.881822142743549753e-03,-9.796954255241258736e+00
1.011982583727524032e+00,-7.967718148635154901e-03,-9.798698156202227949e+00
9.930720106119452772e-01,1.102000708503478657e-03,-9.791712077533388126e+00
9.980240434126786964e-01,2.295344856231180952e-03,-9.783721503549603682e+00
9.970856615470083950e-01,2.558104015590830123e-03,-9.784511538970432909e+00
1.008914246194120734e+00,-2.744107964617622294e-03,-9.795558662066621736e+00
1.002727161092400010e+00,3.716439846822869840e-03,-9.795312712809526090e+00
9.952666646755955471e-01,1.278726424730847015e-02,-9.806942780677871951e+00
1.002050628209579353e+00,-9.280353377849410101e-05,-9.814773801922763496e+00
9.994068025335768324e-01,-1.032124693760056409e-02,-9.787794263601066191e+00
1.005560769166740531e+00,-4.951406542607636983e-03,-9.806310047910107741e+00
1.007334095505682203e+00,-2.033350906325990561e-03,-9.792379850143115405e+00
9.938955060735145119e-01,-7.098273601573298550e-03,-9.785886785547610600e+00
1.003704320393391525e+00,4.094922587028727683e-03,-9.795065581892137274e+00
9.980119433011616081e-01,1.088553130368560828e-02,-9.793386224824732977e+00
1.007847532304608329e+00,3.007989246315041689e-03,-9.791861686826303313e+00
1.003587227153084349e+00,-7.876201722915593048e-03,-9.797500702545807627e+00
1.002546896309200797e+00,3.363071551890100489e-03,-9.791931735119495883e+00
9.985555539406165693e-01,1.046609261982310406e-02,-9.800501610346666226e+00
1.002853872795995249e+00,-5.444575710753858655e-03,-9.803180851669338836e+00
1.005541778612204507e+00,-1.294511631292406080e-03,-9.782093288955698185e+00
1.002932215581815001e+00,-3.176356654807472105e-03,-9.791741548303845022e+00
1.003306648949689572e+00,3.101205367967824721e-03,-9.779190640698748993e+00
1.001081136318355158e+00,-3.579514297107783474e-03,-9.789926051437374710e+00
9.871004911449240415e-01,2.301361038217510785e-03,-9.792178827576757172e+00
9.973953908424485482e-01,-2.715347025757912629e-03,-9.779209558842552497e+00
9.962025513351123740e-01,6.483052772987903285e-04,-9.799038533919310012e+00
9.929737303629883050e-01,2.764577579684739279e-03,-9.794596317548347031e+00
1.005488734353521041e+00,5.961281264241420109e-03,-9.798148557214140908e+00
1.005667350684319450e+00,6.897065311474481590e-03,-9.802461853279796244e+00
9.983774734008242779e-01,-5.439775453095948773e-03,-9.805861637070584891e+00
1.005764264916005457e+00,4.561487958750863776e-03,-9.795602228378982090e+00
1.003878751034100070e+00,-6.562751112654974673e-04,-9.796737572717178821e+00
1.001560464004491280e+00,-6.048508103103763557e-03,-9.799526410482510386e+00
1.001610289100627105e+00,5.432367517032002293e-04,-9.801680439089512475e+00
1.008160993601177724e+00,8.575682513485269332e-03,-9.786168028262331120e+00
1.005055660553942687e+00,-3.312194784155064308e-03,-9.781786610369080037e+00
9.920475384820862663e-01,7.929653353895445983e-03,-9.785593177586250135e+00
1.013324462117976665e+00,1.176470436745797503e-03,-9.787689626409632027e+00
1.005717085308792225e+00,-2.374388704320552681e-03,-9.803741910891925926e+00
1.003130485776876135e+00,7.040199301593047868e-03,-9.793152101738931137e+00
9.914066815912827568e-01,1.174003552077322772e-02,-9.797969167822097702e+00
1.000621138227072215e+00,-9.988187024619758422e-03,-9.792766632593355780e+00
9.967169470183974145e-01,-4.565029156554710130e-03,-9.789413079387706773e+00
1.002455854407579006e+00,-5.391566594551817047e-03,-9.778046565589136208e+00
1.000416782419595085e+00,-3.381062830598696375e-03,-9.789717639133373339e+00
9.909887880354081302e-01,-6.954898766376541594e-04,-9.781359483711151270e+00
9.986721688184657664e-01,4.238748025357976651e-03,-9.792959050743911931e+00
