gyro_x (deg/s),gyro_y (deg/s),gyro_z (deg/s)
2.408446838677659463e-02,4.358266911822431672e-02,4.839974462256729087e-02
-4.548700943687455575e-03,2.780281858754246604e-02,3.721328209814966231e-02
-6.617720351291681014e-02,-5.646269887788956526e-02,1.516204248846210294e-02
4.120474682305168800e-03,2.695670131749110590e-02,-3.460583088923380179e-02
-2.276190912463371685e-02,1.167161420840620231e-02,-1.654883847024762530e-02
3.480060718821622462e-02,2.783319795132991117e-02,-3.578581366978123013e-02
1.032178394107697433e-02,-2.176590308092105075e-02,-5.636482310424278247e-02
4.180545955188709299e-03,2.753290120849261752e-02,2.265193299473008612e-02
-8.513448752467556863e-03,-4.801193423230511875e-02,-2.068950795931962308e-02
2.441965730598417983e-02,3.442131072698409455e-02,1.254836057230564010e-02
-7.588709578969175806e-02,-2.594273560639293909e-03,3.947205380424809867e-02
1.836196716941577295e-02,3.770815623448722179e-03,-3.784465327642470844e-02
1.796506659335204634e-02,1.662104119367316044e-02,5.456958047463406070e-02
-4.124415995063610701e-02,-3.948659799627889273e-03,6.266360538796494906e-02
1.322282256202690805e-02,-4.842865492605792632e-02,1.196978653294459606e-02
2.233179388747182081e-02,-3.846941799530563533e-02,5.799597359232566696e-02
-6.658888673871490860e-02,1.899729517484897642e-02,-2.177721321541481111e-02
-4.709931410245751793e-02,4.109863569519442428e-02,2.926149973224473344e-02
-6.495560395172222945e-02,-7.704072388682110112e-03,1.896897065202515732e-03
3.744348041619459388e-02,-5.106476482865895256e-02,7.338874063254927083e-02
6.450063263442488981e-03,-2.486540998272460459e-02,2.107063264590796139e-02
8.419722617608506321e-02,4.803583168718327662e-02,4.668866585892872401e-02
-3.103917263263661352e-02,-2.827970253107002854e-02,1.284650701773806108e-02
-4.245328820291932592e-02,-2.047429793559464237e-02,4.613667858871094846e-02
6.384993646270040180e-02,-4.696826787102485745e-02,5.050206881123021213e-02
2.117284634111941434e-03,-5.139354275106842312e-02,-1.362173827776248271e-02
7.614156215761042068e-02,5.462449893002538359e-02,2.250302741445945817e-02
2.439037323671207694e-02,-5.272425000515856136e-02,-8.024768810995590307e-02
4.857549103331589707e-02,2.284979335880193627e-02,-1.806678623801930353e-02
8.125671765502147023e-03,1.154701651006897166e-02,7.386850886837244279e-02
-4.757158103164924740e-02,1.097319007941763118e-02,-7.267603556418700261e-03
6.376521922527847441e-02,-1.453046393368237314e-02,5.248535498286405893e-02
-7.511590990521092859e-02,2.983627450087767904e-02,-5.217997292045632729e-02
-3.750179014541401429e-02,6.914676356773666321e-02,-8.948403324173433496e-03
-6.718376965756661656e-02,-3.119924134270790281e-02,1.636161579905020180e-03
2.830173327013628393e-02,4.469296174335788546e-02,6.044865600397408834e-02
5.231632442915713083e-02,-2.240362935185746113e-02,-4.642097091781214463e-02
8.591451500575220113e-03,3.350745037832083845e-03,-5.188693984220363320e-02
-3.821540813781709126e-03,3.246286105497830227e-02,1.644596476365343561e-03
8.408597905155988650e-03,8.297891023341896072e-03,-3.435865535085396577e-02
-4.203446674317607508e-04,-4.550771643697185814e-02,3.347688405278477497e-02
-1.421318140119348303e-02,-2.838744149478609688e-02,-1.940315790279784416e-02
-5.493464155848200303e-02,4.631041485946701952e-02,2.926354389273162250e-03
2.849955739870946650e-02,5.083562002494577958e-02,2.963608903728453398e-02
3.829715337153735688e-02,8.108909037277181597e-02,-7.161562482993159839e-02
3.487032240927576132e-02,3.850136997952762624e-02,7.178878217712791887e-02
-5.229660446605366962e-03,3.837031269647950965e-02,-8.334445446484649300e-02
-2.262218107362982955e-02,2.181368160021033079e-02,-2.932119989136891536e-02
2.526587097363659079e-02,1.290249638413166989e-03,-8.817477415541619123e-03
-1.707390320736760711e-02,2.674274194247720435e-02,-3.665496215971967425e-02
-7.074604860071207792e-03,-2.288366051165383139e-03,-7.636286861045751134e-03
-5.602093984037583886e-03,-7.577264495564389225e-03,-6.509069244668526030e-03
7.047431063858728036e-03,-5.920804107560138224e-02,1.390559477842691870e-02
4.850699921855414903e-02,6.599973773382450393e-02,3.393227794989959328e-02
1.186969277951190234e-02,3.690260580616198244e-02,-1.867396281963949051e-02
-1.797995862696943545e-02,-4.108796813634864320e-02,-4.108795658574891652e-02
-1.761059515071131468e-02,4.663063069910333008e-02,2.818512670570449963e-02
3.494534173702632668e-02,-3.770851832947828136e-02,-8.554611857698650457e-02
1.335371527857485106e-02,-7.847889002000880965e-02,4.093886125331717973e-02
3.643523721859737857e-02,5.287958309848662074e-03,3.672366669759223601e-02
2.504670255896281061e-02,-4.521470707607162104e-02,-7.065614007517226347e-02
-2.678960355459748203e-03,5.538225485131233715e-03,3.865260424110213144e-02
3.485748919552213165e-02,-1.943072965144370529e-02,6.286061795129468943e-02
-5.946043761781771853e-02,6.092234498961022864e-03,-5.687719382100498572e-02
2.328247515284054964e-02,-3.076062280962384501e-02,7.590073539471402578e-03
1.887046157588399484e-02,-2.870619559769228401e-03,-4.057417888467563377e-02
-9.380122244690347263e-03,2.588248084702498078e-02,8.879378078200354796e-02
4.745746200798360570e-02,5.415117638949621531e-02,-1.113651320362657321e-01
1.695205006996014854e-02,4.956109985912095228e-02,1.891695834828711204e-02
1.982778042653826969e-02,5.461027431173705315e-02,2.907724667614086309e-02
6.524032637524651047e-03,1.990266566442828663e-02,7.634770830755341353e-02
-1.314291663733782069e-02,7.919403589618101424e-02,-3.042569297081591448e-02
2.217508826419699580e-03,-2.075103518030397415e-02,1.014069260309295034e-02
-5.036130581014863078e-02,2.019717601036288748e-03,2.572291247948193388e-02
5.987648757554824702e-02,-1.740259079925848135e-02,2.218050107037765860e-03
3.139551485421640531e-02,-3.717939576026579179e-02,-5.444610896626445734e-03
-5.321771796245409331e-03,-1.074872841699666716e-02,-4.546251510561542808e-02
9.347517709056883672e-02,-4.079875979255503243e-02,2.278415268400246427e-02
-1.228585869004067237e-02,-6.725046145307207734e-02,-5.195217485438657218e-02
4.072883451715314691e-03,2.642050219364223962e-02,9.180603975302550901e-02
1.729053180429959355e-02,-4.215019928603928184e-02,5.288821401436859249e-02
-2.190054639774726558e-03,2.779949251208299263e-02,1.528103461830372482e-02
8.580166876853260322e-03,-1.168198175529539667e-02,3.349051679131710701e-02
6.601316513790408957e-02,7.647456436677328717e-02,-4.573015764751797024e-02
1.439766068029716718e-02,-3.677200011906281429e-02,5.898032796514510873e-02
-4.329311926508617320e-02,-5.044407909537643869e-02,1.567815977281539902e-02
-2.387223732613989041e-02,-7.903882792570959825e-02,7.190029010622629724e-02
-3.546859512544147178e-03,-3.362062539517336052e-02,9.036749732105558638e-03
-4.365995665650065916e-02,-1.380045871598893116e-02,-6.221544110172044784e-02
1.754418062689124935e-03,-7.446820610428583898e-02,-8.174580193148255070e-02
-4.343720313064541177e-02,-7.397077026079326711e-02,3.498024025475175020e-02
-1.167882855764063900e-02,-3.559304520345335510e-02,-3.661289787292525133e-02
-1.795124286323960400e-02,-6.687373512185540436e-02,2.007927019559262866e-02
-4.098529214167606627e-02,2.119624575937249095e-02,-1.914327248983881818e-02
5.264673098451641900e-03,2.825457447839710076e-02,-3.850898960254372366e-02
-6.709885877806610888e-02,4.253439151536980364e-03,3.171651056753087977e-02
-5.652869278669194614e-02,-2.711175071097954650e-02,-1.299740539468827866e-02
1.520988761239796747e-02,-8.579531976798464646e-03,-7.533012398450267093e-03
1.582734056810809059e-02,-2.185493735029200857e-03,1.043800843276620864e-02
2.097804527981910958e-02,-1.090428803365707695e-02,3.280627401736191384e-02
4.665483743074504835e-02,-4.420825461616586377e-02,5.787221124075778850e-02
-4.208151128824277887e-02,-1.347651050980634181e-02,-3.657105159971258540e-02
-1.106731311855569250e-01,-7.379104990105628606e-03,-5.955548304014864069e-02
6.743069134797007036e-02,-5.933017679008261575e-02,-2.822558150661102355e-02
-4.635548416089807326e-03,-6.748679840285252453e-03,-6.291518162490995769e-02
4.723032259801709172e-04,-3.597175915426781972e-02,-6.413950038708800261e-02
-5.876352510437241050e-02,2.666333464957883551e-02,-2.547822743275469232e-02
-3.041210609506339937e-02,-5.288125642075212213e-02,6.106218287457600841e-02
7.650265194819665104e-02,-6.489354817551853949e-02,-1.231378576616910456e-02
-4.396427988848749385e-02,6.243846204043264868e-03,2.021328975104808717e-02
5.753519138260848424e-03,5.672759109952972556e-02,5.329747608834410622e-02
2.353171019731615382e-02,-4.651307667778148414e-02,2.768298651720878245e-02
6.342591168028566609e-03,2.670089392970009801e-02,1.192800079141542562e-02
4.909522899969060578e-03,1.887913946852708830e-03,4.447849354717992032e-02
1.057492151787962041e-02,-2.490468516834249552e-02,1.912207907720570726e-02
3.611487232993485647e-02,4.971854583693956220e-02,-3.982582668887933025e-02
-5.003306790219924638e-02,3.267281047912520831e-02,-2.159849120616903068e-02
-8.589106701377634788e-04,-2.016584601218653506e-03,-5.591928344110575627e-02
3.632628441678969339e-02,4.015347585699111099e-02,3.786177949429453404e-02
-3.069612538111201640e-03,-3.861995534583553651e-03,2.582932352807577880e-02
-4.209688430160168221e-02,-2.879207990798977879e-02,3.729290212767077256e-02
-7.338651840902922496e-02,-2.609606150264612637e-02,-7.046617208022267626e-03
1.080794033860802339e-03,-6.753318795262827938e-04,1.217409795919946643e-02
8.365876082918258239e-02,-4.075905763251669311e-02,-9.085479283188581390e-02
9.278925538088157732e-03,-8.718795031000423079e-02,5.733459126106002501e-02
2.528237252297163562e-02,-4.752665395846374097e-02,5.238001551327748501e-02
1.305963585614151705e-02,-3.844023913744568088e-02,-3.007450130370598051e-02
7.211151063447993059e-02,1.904040115769927224e-02,-1.413936326390402738e-02
-2.228022641908022211e-02,-2.305983718712443717e-02,-2.124993783489289093e-02
-8.900022844501793984e-02,-3.554473744120973527e-02,-1.257420962237462414e-01
7.282512640861593667e-02,3.322110980866753438e-02,-9.476912005763572441e-03
-2.044980072874597044e-02,-2.029133087794587377e-03,-1.413675932530607249e-02
-5.105799960200085516e-03,-7.887046326738489377e-02,-1.387754511117603043e-03
-7.683174524838638775e-03,2.444988487235814998e-03,-1.619842711884067477e-02
-6.887406708492546312e-03,4.900630209520568520e-02,1.430827220474594798e-02
-5.127780134940633505e-02,2.046115536711063873e-02,2.540099460596560721e-02
3.615584079245492966e-02,1.391427931344801396e-02,3.435933374252221617e-02
-8.823203556740828735e-03,8.888632777783418227e-04,-4.417790153150465832e-02
-1.582246610953075630e-02,-8.298324220178300223e-03,-2.249667596224742133e-02
5.371057499555326187e-02,1.557647020703546367e-02,2.242015597686769848e-02
1.130057823075372031e-02,-2.359678168193775002e-02,-7.797651431884723358e-03
-2.410466186777192668e-02,-4.559795102891298774e-02,-1.023001743495855487e-01
6.694954176602620211e-02,3.908479184325290567e-03,7.925248723557261343e-02
-1.046674265500393414e-02,3.920755331516837666e-02,1.574678471049345899e-02
-3.988231906487347406e-02,5.736766074861845283e-02,-6.934950462777692958e-04
1.789088973562100605e-03,2.874381719711446501e-02,5.180509787552967788e-02
6.245126038049202133e-02,-2.188040033782177179e-02,-6.265249302503855811e-02
-1.089121635192624379e-02,1.753699864004432118e-02,-6.686640799543064340e-02
5.878482001289483949e-02,5.999510259935143114e-02,-4.461109107307990873e-02
-3.469088668843264139e-02,-4.335323481491987901e-02,-1.018817946474753246e-02
-1.752318523888583141e-02,4.011750345245041448e-03,3.216897558914048189e-02
1.292269889271923655e-01,6.682584384726020232e-03,5.139502857641112428e-03
-1.938640180184394643e-02,-3.916683486266205744e-02,-1.384906853723742379e-02
3.747181307261493628e-03,2.523777316991737338e-02,2.940844869013933827e-02
9.939434001638125862e-03,-5.241545802999274251e-02,-4.287440417331316034e-02
9.449488887627126993e-03,1.070670404927530073e-01,1.465496843689981059e-02
-1.140572387856864968e-02,2.369685196999106805e-02,-9.598830021057108350e-03
-6.686784919860075393e-02,1.615738160967938528e-02,-1.028601412187612855e-02
4.391174142443617784e-02,-3.062833041868309736e-02,-4.500080353320038752e-04
5.578670191990369592e-02,-1.429602295681461910e-02,-3.362587408495531366e-02
-1.360475033528994043e-02,-2.318251154156686020e-03,1.939514392620269798e-02
-3.762754675119289738e-02,1.509691313791210708e-02,3.426821040731661827e-02
-3.897768015717752860e-03,-2.758172615348040979e-02,5.388139056251042142e-02
6.891550964387718747e-02,1.660916886308188081e-02,-2.558222313071425308e-02
8.988900273649002085e-03,1.841494226254431626e-02,4.519945819136571979e-02
9.209170664718568933e-02,7.600142887172716202e-03,-3.225917229048591572e-02
-4.461745287791952369e-02,-5.374500811671921452e-02,-8.680023013862640455e-03
1.169339801448448651e-01,4.163115703116866684e-02,2.417667529452292158e-02
1.093170032530990654e-02,-3.016223536931589982e-02,-8.683810628590032596e-03
-4.000772334884673820e-02,7.322379931941544462e-02,-8.003476531347714779e-03
4.364251994369633056e-03,1.166176743866669321e-02,-3.173783241037892583e-02
-1.422801744376832843e-02,-3.555509104146430122e-02,-5.167148662774179169e-02
-2.570527109056609111e-02,-5.750986563823586722e-02,3.164014800713420977e-02
-1.685308913182081980e-02,-2.898146688423401326e-02,8.909400699697597736e-02
5.264146132909179598e-02,-2.945670549146051781e-02,6.842748216230327973e-02
3.421645221018768807e-02,-1.576099579285476088e-02,2.479626324928217544e-03
-3.466885054994542359e-02,7.372288440383599657e-03,4.775043891649903560e-02
1.863510789960723044e-02,1.635780839664836839e-02,-7.241124822579994569e-02
2.776582573982493141e-02,3.651279241741221121e-02,-2.867762000617838855e-02
-3.759904231762203203e-02,4.994269260163760465e-02,-4.778320552943383231e-02
-2.106243375511143365e-02,2.610704510102043741e-02,2.050407060590663313e-04
2.095300876247392988e-02,8.326931786700235427e-03,2.046716102952348543e-02
4.537390338319966659e-02,-4.659662452337749033e-02,8.163740485763480714e-03
4.225746001786263861e-02,4.400370061911531433e-02,-6.434582923701430424e-02
8.418944789607626933e-03,-3.386708240925827285e-02,-7.899452200331899890e-03
-3.012328530554593520e-04,-2.670382668791047853e-02,-2.760950362738653213e-02
1.810367577454013305e-02,7.491482730319843492e-03,4.287343094366681887e-03
8.504201090537361757e-03,-4.844338000982761211e-02,-1.051643232007270362e-02
8.498323208690929456e-03,3.230890229118624918e-02,5.581543803875844978e-02
-4.965550084241220768e-02,-8.009207956901544939e-03,-3.579297057685393302e-02
-3.023736066395036476e-02,-8.949198886044200385e-02,-5.005854227246615828e-02
-3.841956184374673011e-02,-1.025388481611630258e-02,2.885555637561617107e-02
3.151350771658969346e-02,-3.065318668446315870e-02,1.213861371856840045e-02
-5.392127264736953744e-03,-4.564648263911835757e-02,-3.282750518692362229e-02
4.922129409521514010e-02,-7.079348687815434880e-03,5.593907391441878957e-02
6.166842487753212976e-02,7.396733855188034057e-02,-3.314106462246830588e-04
2.875213696498618229e-02,-3.539595898297261817e-02,-3.860537651257083674e-02
1.839704710060003842e-02,5.535598064512467498e-02,-4.846176159233687303e-02
-4.621515196970561734e-02,6.511029347386773636e-02,6.406464771833053629e-02
6.357220371428762978e-03,-4.638437351004122064e-03,-4.323432961939987183e-03
-6.805726211382565061e-02,-5.018590280473949478e-02,-2.118997729348726794e-02
3.297920753226086382e-02,-2.142051964373055742e-02,-4.309532233358336073e-02
7.306159383886651204e-02,3.077549117494390515e-02,-2.319008158185326823e-02
4.660990663243923249e-02,-2.696765650158002708e-02,2.421590279018551173e-02
9.776909501784961098e-02,2.148940151757266354e-02,-6.232425297148298099e-02
-8.741489635816061810e-02,4.907897043756438010e-02,-7.025846738043331485e-02
4.593647161577738003e-02,-4.076835282223984641e-02,1.985027179668680600e-02
1.973924703190429661e-02,-4.476997442471027794e-02,-8.673857581107023706e-02
4.580984718450011040e-03,1.137109417189038629e-01,-1.887517156798895063e-02
2.530710760387812341e-02,-2.068261505879773893e-02,7.386444396497600200e-03
-2.554525399623681914e-02,3.699371105086868977e-02,1.458257215449862421e-02
-1.163101695118384966e-02,2.650909152850203232e-02,-4.528970351421723883e-02
-6.117867507752417638e-02,-2.741763553537830342e-02,5.430654828315592368e-03
-1.389511889179458233e-02,-6.313823538445041683e-03,3.256915133306644700e-02
-1.304122794978309664e-02,-6.196561053778594508e-02,1.329633556645713288e-04
8.364151412276981876e-03,-3.668853419052244685e-02,4.048037357042865575e-02
-1.649528424526258003e-02,2.018646084122269202e-02,-1.291430625343580399e-03
1.338055066765595977e-02,-6.902225403514221369e-02,-2.778480799603107870e-02
-1.513420398308266274e-02,5.354834606901716365e-02,2.835632119554061786e-03
-7.367657816826055084e-02,3.935897421175805350e-02,7.651662303636164869e-03
1.076039379210825576e-02,-6.509102414232691147e-02,-2.902749589914133815e-02
-3.257278932631332835e-02,1.651206046746092268e-02,6.067436794501260972e-02
2.256344292878949276e-02,-1.491543992434397198e-02,-1.739921762657596627e-02
2.999979636204998246e-02,-1.081729105937262805e-02,-3.722368351961911903e-02
-3.418436950604980540e-02,-3.061072472928500973e-02,4.998688766070547539e-03
-3.059188502590805270e-02,-5.099901212894835528e-02,9.624869215752075366e-03
-4.740590307749904114e-02,9.141745440637236153e-02,3.687141701951932461e-03
3.046335689241113504e-02,3.781731481748320384e-02,-2.253528115285644007e-02
-4.918142956683919063e-03,8.810308056829852658e-03,-2.270461337562534009e-03
-4.931871919427682077e-02,-1.999442959141636486e-02,3.222617682008691725e-02
-3.929571074952552950e-02,-3.678674845957698863e-02,3.951767561586563143e-02
4.244590375697228357e-02,4.538229393671667361e-02,6.052462243906498590e-02
3.870823855971045752e-02,-1.585394760457445318e-02,1.949235169555860528e-02
2.563366014428522261e-03,-8.806649148279216410e-02,-2.802873682895948987e-02
5.774245128611212724e-02,3.853623979333314908e-02,5.186276673928041925e-02
-3.071214401242292058e-02,2.512907583985220933e-02,1.884920839065857764e-02
-2.692684305700759895e-02,3.539144326197644908e-02,-8.464934181350068643e-02
-4.942410447711764309e-04,5.797261895072987337e-02,-9.239838084100645069e-03
-1.492338856495655820e-02,2.410908548782791580e-02,9.891263291265941018e-03
4.671382431866855089e-02,1.437985087970701688e-02,7.326423796594645592e-03
-8.728576346082630999e-02,7.290540004219774571e-03,5.470882171801407651e-02
8.753764572652844578e-02,-4.917378220388169546e-02,1.128236170964963189e-02
6.245305111881150478e-02,-6.595206144489210165e-02,-3.696031201604349503e-02
-5.593875272648921558e-03,1.164164963848651410e-02,-3.249473752864215359e-02
-3.716639762136878227e-03,5.378191016830116689e-02,5.938577510728929205e-03
9.560569840260489324e-03,4.377572057190117633e-02,-8.988278368948800223e-02
8.636321615713571029e-03,-7.098968979613218266e-02,-1.270839825888187558e-01
1.752095683652868732e-02,4.993651369298674966e-03,3.971337638251427188e-02
-3.096575445824121739e-02,8.114391960120726291e-03,2.579312229797525724e-02
-6.267020511622176104e-02,1.026713458959108496e-02,7.970160982963174490e-02
-1.357181539741545914e-02,4.368105683635036679e-02,-1.024928431532969036e-04
2.413280458985436749e-02,-5.963288598359392165e-03,-1.739220494724061025e-02
4.180484930545683847e-02,-4.616939495343699157e-02,1.673960996048422592e-02
-2.202391358845064845e-02,9.577458417941228999e-03,-9.275376706560464757e-03
-2.166568616817138651e-02,-7.824265212881244269e-02,2.194186222117910229e-02
-5.085986378166732630e-02,-3.084209432952477598e-02,-1.962123898266662520e-03
1.986846718495974620e-02,2.552080039340400355e-02,9.395581714895599734e-02
-2.176611093264703076e-02,9.466944568847201688e-03,5.548721048469175410e-02
-2.580385192032625535e-02,3.955304069829658487e-02,-5.097792093252893203e-02
-2.549997710572021042e-02,3.892407463344043500e-02,2.346014343119092599e-02
3.829780057113131575e-02,-8.197827679678070315e-03,1.218372091950297234e-02
2.210937882463489060e-02,4.080220474152043697e-02,-1.107528258519752257e-01
-7.021899951610684198e-02,5.492865242634873552e-02,-5.744295763200162747e-02
2.282036512821175242e-02,1.969194056960672443e-02,-1.344488024347641718e-02
-9.694543595686730755e-03,-7.040427301319421294e-02,-1.744851811017185741e-02
-9.823012912638978689e-02,-1.496878926070954741e-02,-4.143381017663088674e-03
5.920666752474180311e-02,6.653132509790607441e-02,8.894944390790818223e-03
2.416249035838136799e-02,-2.897228727681582308e-02,-5.052547011830217649e-02
-6.217081848878648620e-02,2.943790703968659703e-02,-1.143624728951631031e-03
-9.744158119057193951e-03,1.143869277972853205e-02,6.423441854562023101e-02
2.962739438429064578e-02,-4.944322476529577903e-02,-4.518188334128060528e-03
7.880297277292640235e-02,-2.222760749241307898e-02,2.854749413335935446e-02
9.049742718321349827e-03,-7.466914486153021328e-03,-3.489070324886367480e-02
-4.205198060080656865e-04,-2.128006172944597874e-03,-5.239514919082877836e-02
-3.763792167279278456e-02,3.005271477973015665e-02,-4.531239397786088891e-02
4.539111667904128372e-02,-4.691103134823191440e-02,-6.799336376517142733e-02
-1.203927141845372896e-02,5.526091853144561583e-02,2.285951150835044063e-02
1.395744943776590016e-02,3.013580365150787116e-02,-4.810790685969978248e-02
8.174086737136017702e-03,-2.783776325277004943e-02,-5.963992557905611891e-03
1.005335661484021113e-02,-5.529668204524600984e-04,-9.770273698533636642e-03
-3.393444877888879274e-02,-2.000971939972447360e-03,-5.257635491020223178e-02
-5.723233861653424792e-02,1.373007605780507574e-02,-3.776298975323845106e-03
4.483663637345890185e-02,-1.185713417465052155e-02,-5.458192699310253360e-02
-5.128306951958121890e-02,-9.113201460939880649e-02,1.698530636979850295e-02
4.069742161577294404e-03,8.335206271099196429e-03,-3.344150145386519824e-03
7.699104340209332598e-02,-2.293407260006030679e-02,2.048282836821286451e-02
5.738430956791354398e-02,2.327611422680450973e-02,1.988859806325317392e-02
1.625098342594393994e-02,5.621164573390457359e-02,3.077174702441835830e-02
2.186596695233651924e-02,1.688364963207181907e-02,-7.163647374910001031e-03
1.568627861296336551e-02,2.806009288676688390e-02,2.774914590161463301e-02
-4.310896223821012591e-02,5.696487615191495046e-03,1.372361548710052115e-02
-5.900515443814097205e-02,2.256615760430100148e-02,-2.567935927223271783e-02
-2.838021975785774698e-02,-9.063789206594841108e-03,1.009802088029939232e-01
-5.134814522612472093e-02,-5.297833656721809975e-02,-2.202347146849234841e-02
-6.572683522104692810e-02,3.324350762589357161e-02,-5.877553556449774397e-02
-9.225186771694537935e-03,-8.743281662421288278e-03,6.589716420452547407e-02
4.905581754252451993e-02,-6.048030710832687229e-02,-6.689176274223838925e-02
-5.910326707595089761e-03,-2.700715970629393500e-03,-3.628947518804641337e-02
2.188925357145869374e-02,-1.784083147971066846e-02,-7.598766607487554905e-03
4.917530932488738821e-02,-1.874283188049952545e-02,8.647311857559862938e-03
-3.452530833506222557e-02,-2.759597792912976341e-02,3.580563717484195468e-02
-4.875683172764595785e-02,-2.328834994518443058e-02,5.109863771915180986e-02
5.963667941922883714e-02,2.446940736548450582e-02,2.868425194265437211e-02
2.647091113868641626e-02,-3.597311925544714739e-02,2.319846176648834510e-02
-2.402148187008091434e-02,8.004248642178643514e-02,-1.674462944415335149e-04
-4.496192925629236004e-02,1.027102969412541089e-02,-5.710291839593120700e-02
5.776413847733906717e-03,-4.467038397401382893e-02,-2.625949642187312000e-02
1.346111094413782010e-02,-5.743843093911099595e-03,3.981794036274581561e-02
4.312824633575330219e-02,-1.185988216509076265e-01,-3.505913083564659444e-02
4.278981150768434993e-02,2.149400830895059275e-02,-1.130020963006305584e-03
-3.880896280009345223e-02,-6.854601837117592356e-02,-5.978571413559708586e-02
1.728176508189262694e-03,3.526726489334714582e-02,7.139985931393942609e-02
4.813026345318977689e-02,-2.207131729758532793e-02,-1.697834710081948945e-02
-1.773621559672072800e-02,2.337974318528921944e-02,-5.274158886109219652e-02
-5.746212472427467480e-03,-5.977053039181112054e-02,1.813033162076350957e-01
2.052791936190554237e-02,2.460490636369900425e-02,5.865641507547680530e-03
3.427118548388987697e-04,-4.559472993853952438e-02,2.599232315917675978e-02
-4.558193765169271661e-02,-8.933489003167958270e-03,-4.079243016142912459e-02
-3.241047380669002248e-02,-7.921057841376426267e-02,3.596619097555513178e-02
3.023458361715237758e-03,-2.073682299412816024e-02,-3.223651984310943464e-02
3.039247977094219032e-03,2.705283864075265846e-02,-3.589276726832364879e-03
-8.636933132576694871e-02,-4.706627511933751673e-02,-3.116776608980153986e-03
-2.283535036555039630e-02,3.069133905524603495e-02,-1.879041805842102814e-02
1.794821120201911882e-02,-9.853448411917771488e-02,1.593421647298261939e-02
-6.083570758391468325e-02,8.546101902720527194e-03,2.705755350194206238e-02
-5.028789306520724950e-02,4.178976839856290981e-02,-9.713043238455706940e-02
-1.273957605656601301e-02,2.679062560905381279e-02,6.566336670526580314e-03
-4.139520797427485854e-02,4.071717333101554370e-02,-5.854729043901159280e-02
-1.126938048289228417e-02,3.559552429767965515e-02,4.174743150928075797e-02
1.219986320558569780e-02,-2.337055363534800909e-02,6.587185650541968994e-03
-3.000983417094474012e-02,-8.505065695877640775e-02,6.185883977803045136e-02
7.413553434140548624e-04,9.767904019800540544e-03,8.954250899437615719e-04
-6.901443222713106451e-02,-1.585543704130598641e-02,-3.065026051602431304e-03
-6.924136703500180859e-03,-1.552415802539748937e-02,-4.947682162094009517e-02
3.276245887551453018e-02,-1.223723125388732035e-02,1.584990539326109910e-03
1.807159147580322811e-02,6.673371050780581293e-02,-1.833448648958685770e-02
5.471415331995656967e-02,-2.042606866004748750e-02,-1.995044217928652885e-02
2.568250223772042349e-03,4.747008944087259541e-02,2.785047461807245786e-02
-9.627624405625767601e-02,-4.204374132107611961e-02,3.015684938877937274e-02
-2.057382333200903635e-02,-1.859275211731121688e-02,-2.862343600559272283e-02
1.307529381051786461e-02,5.059193735865809977e-02,-1.645289307112366914e-02
-7.789929417397868996e-03,-3.995964268840760530e-02,-3.137726403376148165e-02
-2.033160033121991783e-02,-2.081945247912863131e-02,-2.105087226398773617e-02
-3.886252590443756150e-02,-2.131301277834629984e-02,-3.864375942432839856e-02
-2.955847819617396163e-02,2.246234537177778726e-02,-7.203227428336113347e-02
-3.845328644837900378e-04,4.267725771866111989e-02,4.755086149994068589e-02
-8.056882417659469095e-03,3.559325259841560063e-02,4.957331846789668484e-03
2.809893000844239028e-02,-9.665987267965511776e-02,3.383467214693716696e-02
6.244043896948942539e-03,-4.183012862646239699e-02,8.313700924271145987e-03
-3.241539085214582144e-02,6.834604236146318845e-02,1.168955945804682831e-02
-2.604573698633366741e-02,-2.341653721449698036e-02,-6.635636165107858253e-02
2.848442146446666934e-02,-2.404925646992757057e-02,-6.907936715973116149e-02
-2.275848694052012497e-02,6.990124147236501106e-02,2.828517864721948744e-02
-1.454243228326256542e-02,-6.230718170481845328e-03,7.708289949089348891e-02
6.111212768766916860e-03,-5.200368232679140890e-02,-2.311789887026147530e-02
1.814510860384799598e-02,-8.149384525057078166e-02,4.812220047168358494e-02
-7.949135294802832721e-03,-1.311086918748043811e-02,6.731045766487650517e-02
4.254008574229464854e-04,1.064333669102557334e-01,3.424790233924587812e-02
8.471712557440645719e-02,-6.714398899582320335e-02,6.450882581447897612e-02
-1.330170817096911276e-02,1.011900074233985786e-01,-9.168885970615293923e-02
1.541998075624593026e-02,5.291962763545843967e-02,-3.903572897692382526e-02
-1.122341563584912660e-01,1.983065654803241318e-02,-4.589776777910793693e-02
1.384691251681320796e-02,2.059221291459062408e-02,5.767624874917178651e-02
-6.590866100335845967e-02,2.334338521735584288e-02,1.063837143385948890e-02
-7.972494918869674901e-03,-4.839731679706407025e-02,-5.319655529536615468e-03
-3.307991123777170167e-02,1.005695000831999079e-02,1.795303110652972031e-02
7.369356170773744275e-02,1.008765953954839437e-02,-8.740034862872369734e-03
-3.139494286941282419e-03,5.486127190728610353e-02,-2.009850600337081267e-02
-1.242535486663146754e-02,1.625470304779401756e-02,7.137688490107156614e-02
5.109241617826830451e-02,-4.429334247616183856e-02,-2.682948330933081563e-02
-4.585276895439464179e-02,1.566726962687456370e-02,1.272965985566583066e-02
-2.774416137050227452e-02,1.228015082752732454e-02,4.021116460641354501e-02
-3.560934330441293399e-02,1.845438285452976127e-02,-2.077524835396763608e-02
3.435268797262681917e-02,4.417452511658952717e-03,6.927776690650649938e-02
1.059024304620614920e-02,7.588145074220079001e-02,1.574623661180237291e-02
-3.194453311048902483e-02,-2.060439973255152185e-02,5.247264907807924067e-03
-3.935091823689329353e-03,-6.193498246933246826e-02,-6.667045409721894522e-02
1.473181616767274549e-02,-6.914176209939178197e-02,-3.124058115814787318e-02
-6.329077720855046107e-02,-6.061261065617583321e-02,4.392737054903810695e-02
2.935767683736501335e-02,-2.111560943373447935e-02,1.619317872764353822e-02
-7.452982854494165366e-02,-1.994907981391375474e-03,-2.666721581983680020e-02
-7.240669972021920864e-02,-3.180631577675194308e-03,-8.135671671188825227e-02
-2.318060632077744224e-02,-4.295584485494714083e-02,2.510250135408501407e-02
-6.788128554184094665e-02,4.876791275880574400e-02,-1.353163920775472253e-03
3.583389545112038166e-02,3.727990109265068991e-02,-5.080248021055493168e-03
5.478209426264379900e-02,3.683711153395073656e-02,-4.132321790372820575e-02
-3.768441175571407564e-02,-8.767223060619796712e-03,-3.876578924284696664e-02
-1.341864980213844198e-02,1.074906650883668616e-02,-4.833239282641395296e-02
4.005545186879997700e-03,6.009145614406728730e-02,-1.198507279325248913e-02
-4.899809986895627481e-03,-6.164000415777930869e-02,1.181413534081275814e-02
3.404809741577412285e-02,1.754246096419277180e-03,-1.032314706685158977e-02
-5.404658349075459889e-02,1.798358124956513787e-02,4.405873978995113183e-02
-1.806127986967127896e-02,-4.426125214159500748e-02,3.145027644521993827e-04
-5.365085118615588872e-02,5.523385877063385213e-02,1.884190901050310576e-02
-6.474040427393548680e-02,6.482584850299379087e-02,1.071571795533478658e-02
2.898846784167375193e-02,3.508422754159908064e-02,-4.297316992281085407e-02
-6.954311515148596523e-02,-1.985594729484359017e-03,-1.758995763657987196e-02
3.840542421895674213e-02,-9.699678232111391685e-02,-1.376755625208181052e-02
-6.074346681418162780e-02,-4.793235609048956958e-02,-5.772106536867618876e-02
7.014218691296694730e-02,2.409065282879371828e-02,-2.031581520889766748e-02
5.591130501561410865e-02,1.312927972726871638e-02,6.849023699639490703e-02
-1.306364408696953847e-03,2.977253748458198214e-03,3.891562402378941077e-02
3.841156693499367392e-02,8.071178561277891905e-02,5.860730012266808509e-02
7.355780535878549131e-02,1.023975192326717770e-01,-7.875464912331112339e-04
1.802089366995398428e-02,-5.416403022365507205e-03,-8.277396376741456840e-03
6.454804882037620817e-02,4.399983523288083370e-02,-1.095845685831768890e-01
3.846399168063931867e-02,-6.677305258243512731e-02,3.324910783464710834e-02
-4.639404264405336351e-04,3.650188485543535977e-02,-2.857144771390043858e-02
-4.140155437192015453e-02,-1.308417932907504633e-02,-3.754308427312939150e-02
-1.146699273971523748e-02,8.344897428732712952e-03,5.100283877747115863e-02
-4.228740338536205595e-02,6.841050289798358830e-02,1.171767278790162986e-01
1.031195384245962680e-02,1.001414558394372184e-01,1.408653102488799727e-02
3.942663571646239096e-02,5.162568340572330772e-02,4.124782294868221001e-04
3.574642531959706243e-02,1.660416120008727930e-02,-1.804429746512523081e-02
-4.248168401186864368e-02,-9.211081294309357570e-03,-3.536337474730870400e-02
-7.700070579996302900e-02,6.538115670264921242e-02,-8.775822413827219851e-03
-2.254413045257732187e-02,-7.798325291528193128e-03,2.665275798315673919e-02
4.405471253789024211e-02,-7.952529437430261999e-03,4.130257523060927582e-02
1.169069986835938714e-03,-2.762395593611897439e-03,4.403670064742335605e-02
-4.122402237744148684e-02,4.527798931020979301e-02,-1.756593995703608843e-02
3.239500770711328109e-02,8.625259899412381082e-03,3.036827357807390590e-02
-2.752024225256270024e-02,4.862410630498447545e-02,-4.621071820696338178e-02
5.479868877934944427e-02,5.112796388947846160e-02,4.695516889525482018e-02
5.918450686288690560e-02,-2.949916795394042987e-02,-3.113374168068192352e-02
-1.016108966776906302e-03,-2.488540556088881389e-02,1.500946930287965463e-02
3.171637628771960954e-02,7.294633812325269570e-04,-3.708667458924184285e-02
1.867195292288114511e-02,-7.235162097567251864e-03,7.071207053833715450e-02
2.678708379629589700e-02,6.544185957440128154e-02,2.945717809706642140e-02
1.363821180052790689e-02,-1.088866171869310173e-01,-4.470532961305354741e-02
-3.141108672185305341e-03,4.775568430746909843e-02,-6.420453737471272862e-03
-1.788027395515571442e-03,4.756184133050279234e-02,1.020596047921129394e-02
7.400822956136998698e-02,-5.197476306110457994e-02,-5.034807106062484834e-03
3.304534240873858303e-02,-5.931521110912636209e-03,7.259817908701968713e-03
-1.924184464943500331e-02,3.949872918244255737e-02,3.714648935350440412e-02
-7.431997149273940340e-02,-2.189208344203821821e-02,2.035608352175208996e-02
3.168007692314025320e-02,-2.694232164998792978e-02,9.889408800863888627e-02
1.110044563190775921e-02,1.996886561848024155e-02,5.847212267300587116e-03
1.600068919565904996e-02,3.774118523643519435e-02,3.425757660439514990e-02
5.028841490261558300e-02,8.349546773249627574e-02,2.602800198973076115e-02
-1.946862604658410392e-02,-5.066804618797430236e-03,3.435441565259336055e-02
-2.592528285794295020e-02,-5.387608555212192868e-02,-4.375258410529555587e-03
-1.776457346025093944e-03,2.509572515853050658e-03,2.607670112990494865e-02
-2.391096906681254922e-02,-5.233932509841581447e-03,-1.965316815828939412e-02
-3.797493188636800326e-02,-6.962632778722762338e-03,-3.031108171921654063e-02
7.003748636886433787e-02,3.776756220474629389e-02,2.651451389021059618e-02
-2.205516463161693100e-02,1.612671515813865475e-02,-2.631015878595941576e-02
2.242941198001343478e-02,-6.712155922371577932e-02,-5.556501658296032764e-02
-1.059146803382599381e-02,-1.044714383618006517e-02,-5.157265778271472728e-03
3.081943475886107786e-02,2.464848763503831724e-02,5.092538530241281190e-03
-1.026415792320662344e-02,-6.206181202320851242e-02,4.538452711538931011e-02
-6.849804936713830769e-03,-4.304717134269844814e-03,1.105490035825869855e-01
-2.208854949439849683e-02,1.241499194724475508e-02,-1.042009721788618622e-02
4.860423506058449833e-02,1.313449275109009051e-02,3.452671136544792439e-03
9.639569863055699739e-02,4.305131944623834944e-02,2.069057287729997308e-02
-8.105709304012506666e-02,5.556672392262392013e-02,1.344014526233112614e-02
1.161196100630785231e-02,2.115109250698181398e-02,-7.675718763866937189e-02
7.976856543887829790e-03,-4.709840732031676802e-02,-8.319502786031227407e-03
1.791995632985213596e-02,6.387657011013500585e-04,-1.984215147615126310e-02
1.071566793589927846e-01,-6.378663915309705501e-02,3.432029138520463485e-02
3.052540912564896333e-02,6.319231878569858685e-02,-9.842453610372611794e-02
4.448726488435100074e-02,7.539995550391301316e-02,4.977087124901356015e-04
1.440921630313437424e-02,1.724766915217229232e-02,2.031334161264451710e-02
3.346744708450375555e-02,2.164570600396954411e-02,-7.124079823385165433e-02
-2.354013939053799589e-02,-1.226125846092927709e-03,-4.051168587111767146e-03
3.611367365645675592e-02,2.093611068285867322e-02,4.710552007847014500e-02
-4.123842976692071449e-02,5.241996958378184607e-03,-1.675601394424098721e-03
2.246899675359597184e-02,-5.574831978861815446e-02,2.929025162129082413e-02
-4.571443533178797675e-02,-2.021981055182689099e-03,-6.555004795020462349e-02
7.463071208490414110e-02,-2.257732651277286062e-02,-3.399024934205362863e-02
-6.053090914034559011e-02,7.982500239092849004e-02,1.190307403766611150e-01
-2.548705036767127952e-02,1.061184681109587089e-03,-9.842983001837135593e-02
3.412253090730149596e-02,-8.521870396683529914e-02,2.904849756299699923e-02
-4.323096689886658794e-02,-7.798412177915084453e-02,-3.741119205690708605e-02
1.065269800154429805e-02,-2.382215914145245639e-02,-1.588325536421513959e-02
-1.462159609097254259e-02,-6.510588470428763964e-03,-4.484924237864838445e-03
-5.024383066214352378e-02,-3.272936682567005595e-02,6.845460487544918760e-02
3.011473101765063318e-02,2.593119415630347827e-02,1.042198213786115768e-01
-4.810589331508754139e-03,-3.274182624002715952e-02,-1.310462788322886429e-01
-2.460865322031606864e-02,3.374242099400717038e-02,3.848955008699269514e-02
9.779970213836176873e-02,-6.781565781912043955e-02,2.475407217670482635e-02
4.690067210770278855e-03,-7.672910556819109718e-02,-3.215558100557003307e-02
-5.655113101947036036e-02,1.892431771528304066e-02,8.864856569001863806e-03
3.967127527539268672e-02,-1.925904093185813737e-02,-1.311524501278609790e-02
2.745994831800144600e-02,-2.983434225058482353e-03,7.037330823383020073e-02
4.734407668660836621e-02,1.653593870291479584e-02,4.854898960864672403e-02
-3.516517970130738496e-02,-6.605429735601590913e-02,7.559988510150690566e-02
-2.508611593806518020e-02,3.413723878819546753e-02,-4.842768694312733768e-02
-1.400711663967091868e-02,3.696706683618329603e-02,-3.053666968400768622e-02
3.164651670919107346e-02,-7.487912830445628276e-02,-4.589393177680876901e-02
-3.679491938829015929e-02,4.150432412814619026e-02,-3.700396203662095762e-02
-8.171214059345664749e-02,-6.734448194975679348e-03,-3.593684903002104802e-02
-8.494958732660191567e-03,-1.005282578869812551e-02,3.154812873259481331e-04
6.526786509288081024e-03,3.282424037234985686e-02,3.847826805249190962e-02
-2.472128916883540792e-02,3.653828129955329074e-02,-4.399816306204880866e-03
2.725440840021888661e-02,-2.207158255443684991e-02,3.543333858969500288e-02
5.488106785735229892e-02,5.145559972286336582e-03,1.964102253601110459e-02
-4.517653297556702141e-02,6.586147698637477566e-02,-1.795032314528387934e-02
-3.155610600362687701e-02,-4.320371088939033849e-02,7.076143906531420780e-02
2.636275485438015209e-02,1.396403111274922490e-02,-4.106199765716533889e-02
3.297797933019259303e-02,-4.629193486312909583e-02,-4.588456500903210361e-02
1.787665312601157894e-02,-3.272918491891468884e-02,-4.302215993536941119e-02
-6.113802817539988610e-03,9.840981911601429273e-04,-5.110394791337542764e-02
-4.667041937761642889e-02,8.742004812423771754e-02,-6.815310967392367025e-02
-7.338260003411517518e-02,-5.161294459299879678e-02,-1.788306602511404234e-02
-5.846023211910466276e-03,-2.477786805553841565e-02,1.292680785857284326e-02
-4.212011865683622930e-02,1.584381593754772069e-02,-9.181587292019110016e-03
-1.020922272047130042e-01,-7.675605384040526391e-02,-4.357443072915134080e-02
5.563466326983985966e-02,8.611103220722825247e-02,-4.988523918742083368e-02
-1.386512103597204240e-02,2.580915767903230185e-02,-6.723136112520838349e-03
2.429138438621441035e-02,7.681783144533185954e-03,-1.072740530829246752e-01
-9.111946324291844354e-03,-2.140981389927730169e-02,5.450765711233043070e-02
4.210292602208436097e-02,-8.752055502992224512e-02,5.757758649962466634e-03
-1.180003977445308501e-02,4.092798240513587787e-02,-2.005040514083976811e-03
1.145920398675639718e-01,2.026734025734461958e-02,5.998434899374099211e-02
1.810149050451143396e-02,8.677105397260938616e-03,6.801561009224986682e-04
1.239587213257693950e-02,-3.942355667164766826e-03,1.148280582887701781e-02
-1.341494901028564030e-04,4.954026149770561493e-02,-4.706106702576097478e-02
-4.707753755623078629e-02,-4.561045355961516022e-03,5.330558877708700682e-02
1.268265767127088779e-02,-4.403690292995859207e-02,-8.625099128968559403e-02
5.016201664859596711e-03,4.340831216831394362e-02,3.772397095928113619e-02
5.913134599078739145e-02,-9.252794926776880882e-03,1.620790463096577830e-02
-1.295200008101424737e-02,-1.050388536598044834e-02,1.464773352152336054e-02
1.898604006716380840e-02,6.253319695259869013e-03,3.569386619936307237e-02
-6.267834817623803290e-02,3.856340831079233672e-02,1.604121312434945014e-04
-2.272898768944410508e-02,-3.365223007381403647e-02,4.671802630292470893e-02
-6.567782060729172866e-03,-7.657458045277737435e-02,1.557006622928221000e-02
-1.919369150244148309e-02,2.650088709673333108e-04,-2.164621724382869566e-02
1.962444573859798563e-02,9.111022725886864376e-03,2.040736316779076173e-02
3.830924093759542105e-03,3.394160137012654926e-02,-4.132227057743692589e-02
-2.625781911836362267e-02,-1.396351455377680198e-02,-1.755774692413393512e-02
2.923830546206108646e-03,3.268840747690930637e-02,-4.458091867140583087e-02
1.049172396410656405e-01,-7.489554891617904164e-02,3.187441230039485957e-02
3.841342822046477784e-02,-4.224308873237321571e-02,2.279542537779432471e-02
3.529288350865730783e-02,-4.731946026809633402e-03,-4.308384682833223296e-03
-1.418994409975398927e-02,-4.050469297938476959e-02,-5.816460946268431353e-02
6.013359160806339143e-02,-2.689955561202276441e-02,1.793497669602394859e-02
6.517874996402929499e-02,-1.694516823885613976e-02,-6.431266735133563117e-03
1.910101100942139529e-02,-6.399186946318066727e-02,-1.567221534016275883e-02
-4.679170201754027925e-02,-3.893737214507252652e-03,-1.272409560429320352e-02
8.307623093435216252e-03,-4.186003730826170360e-02,1.222741588515428163e-02
-6.387580930421105085e-02,-1.334171173948239114e-02,2.956076111524535456e-03
1.347492738498782573e-02,7.425941761060544585e-03,-3.330272541518198431e-02
3.709970779076640635e-02,-6.320212941977693122e-02,2.189977785656305881e-02
1.507810166243538953e-02,1.593128217869643065e-02,4.411154777665332767e-03
-7.045718217042977460e-02,2.409422554956855422e-02,-1.142165851934827218e-02
-6.135837782286018838e-02,-3.785420394022960544e-02,2.818423109935306974e-03
-4.387431124266384305e-03,2.620746516783099486e-02,-1.497482873838429027e-02
1.781765222144039360e-02,-1.738904849237886754e-02,-3.242818057765271128e-02
4.824415216196631384e-02,-4.402996306324671871e-02,-7.825608961299494390e-03
1.156464316628876519e-02,9.433741194614429781e-02,-1.494919728084353160e-02
1.640632054938088308e-02,-2.148678191562512774e-02,1.595617282829723052e-02
-5.343762664758863745e-02,-2.206408227596444102e-02,3.464700900046797233e-02
-1.803451276027146985e-02,-9.413583507408956538e-03,-8.172101558569765112e-02
-3.038704720025389716e-02,1.433777197574619654e-02,3.253074505114396386e-02
1.886123762493219355e-03,2.119677121852146090e-04,-2.183190840129098365e-02
-3.974115013538641328e-02,-4.474769614125023720e-02,6.492895284059649330e-02
4.310573954146387776e-02,2.021738230843624085e-02,4.782148547441149311e-02
-8.906118981965917628e-03,-5.709843007789040803e-02,1.957939089019630069e-02
3.312821512820993131e-02,7.648816881495357212e-02,-2.970226193318934935e-02
-1.087071568715261734e-02,-7.443897210400429731e-02,-4.815050458044684012e-02
-8.744936290225455156e-02,-1.618721705302657299e-02,-2.856551351807258901e-02
2.189487251603257356e-02,6.473524731582593061e-02,4.586643433118704066e-02
-2.708590194001707363e-02,8.605855055655742963e-03,-4.993010575665070283e-02
-2.584559034665881092e-02,-6.054849118646218886e-02,1.858670642741828277e-02
-1.038158116831958567e-03,3.827724393295629801e-02,9.238468472097551010e-02
2.374359500414677943e-02,1.923766896261965356e-02,5.039848860428134542e-02
-4.262834221140485158e-02,4.535500320467863999e-02,1.803417400097275317e-02
5.228478623914031842e-02,-6.310748919716696603e-02,3.172738164417506120e-03
-2.961231780283081483e-02,1.387178748370096991e-02,6.619957919043470418e-02
1.493731629608851391e-02,1.864000975820434211e-02,2.798486840622441130e-02
-1.583657531900943202e-02,2.856542681589861396e-02,-7.269434786499379131e-02
2.792620230739976256e-02,-1.073194795967695805e-02,-2.743924248755515768e-03
-1.183967219578184980e-02,-4.950189574918149177e-02,-1.052493331581894932e-02
3.040420440799604732e-02,3.611391404267947497e-03,-6.856125070203679048e-03
-5.481526003454068735e-02,3.611491528362832659e-02,-4.810478220660804709e-03
4.291627535019547357e-02,4.209021129895455099e-02,-3.404215064853844536e-02
-1.164352467357106583e-03,2.124558026890199097e-02,-7.735439655379283685e-02
-5.814681742919875634e-02,4.975242990316087327e-03,-4.008782444318981231e-02
1.079237899994653187e-02,-5.244112027758496275e-02,8.635217926884273046e-03
1.037601168401428714e-02,-8.851812905079828320e-02,1.728184253524417749e-02
2.838593033169150431e-02,5.689863218567557147e-03,-5.927236150691453896e-03
-1.258583162831532209e-01,-6.158777252262674987e-03,8.030933829494267540e-02
-1.529064524106633037e-02,-1.805459373140005236e-02,-4.782268153437280872e-02
-2.319902364461158670e-04,9.964276534245740738e-03,-7.636644709764495165e-02
6.475122124567934956e-02,1.244388101529518426e-01,-1.691593952470850717e-02
-1.232443550960101754e-02,-2.610887271320884093e-02,3.876777969993654149e-02
-1.370581866305384039e-03,-6.470711423861416622e-02,-9.407465603837849785e-03
-9.341285969856009952e-02,3.361814720553382013e-03,4.253433113975250285e-02
8.036790430494069899e-04,-3.748749725653925668e-02,-7.361876125666778903e-02
-1.817364281951638558e-02,-2.210166135111611696e-02,-1.021829194780195758e-02
5.265589666882215109e-02,-1.361719893463099636e-02,3.041875203008109763e-02
-5.988687581767162399e-02,1.442800530190116101e-02,-8.367491863014223097e-02
1.524222274192281630e-02,-1.565544649904899652e-02,6.688710758798737874e-03
-5.691064335577020183e-03,-2.110396940634036086e-02,5.386426041398816034e-02
-1.560339287853797045e-02,-3.762951510680575141e-03,-3.951474814365596444e-02
4.978608242587478222e-02,2.455491758728852239e-02,3.681791390101102346e-02
2.288871354146895451e-02,-2.041594264415728943e-02,5.871399133979967461e-02
3.696091121420993358e-02,-2.191242999724253224e-02,-4.917729909782609515e-03
7.567375628376865615e-03,1.657022802084388152e-02,-2.423414089632726365e-02
-5.154638429981076714e-02,1.011075427536799187e-02,2.577618470041627419e-03
1.501057226191263895e-02,-2.689637018179588321e-02,-8.948862398982059332e-03
-7.572630243071955258e-02,-4.901793251757306097e-02,-2.631352978932450376e-02
-3.473048753091079362e-03,3.660693198243689800e-02,-2.373076469320524809e-02
1.837334596610656207e-02,-4.694144337206706923e-03,-1.097244575013277684e-01
-4.352095510282776025e-02,-7.019765043661245485e-02,1.238788818220778847e-02
3.537746349528857887e-02,-5.268074763682598777e-02,-6.298724716257884937e-02
-5.145304770541729231e-03,-8.293668765885449379e-03,2.928177549818402822e-02
-6.616187435204640144e-02,-4.105348372042846167e-02,3.057842998618349670e-02
2.903208263768206759e-02,-8.138689122104726670e-03,-4.884186697666725169e-02
5.492919446038335707e-02,-2.548874289805110049e-02,-4.757901652795637482e-02
8.498876055354062306e-03,-6.089067581632271083e-03,-7.019181823615019966e-02
-5.572047941680469130e-02,1.003365923173333701e-01,2.871698402795700225e-02
-2.536034920480797344e-02,4.706626571279164117e-02,1.910028553151863970e-02
-2.340724236771287922e-02,-2.523933848132790814e-02,2.395115828762122909e-02
-1.006923414045125288e-02,1.218631721672994508e-02,-7.000785882793915393e-02
2.346043870068648552e-03,1.448353362866009082e-02,-3.731655461850121730e-02
4.977731124898815418e-02,-3.734069193982543500e-02,1.338272339659464071e-04
3.043046505540783833e-02,4.973032200561605665e-02,5.159117386555835474e-03
1.511498697883375750e-02,2.651933514489001470e-02,-5.712202314879250009e-02
-4.636242420026435995e-02,-1.994182824758870820e-02,-7.489838403648768628e-02
1.541745810080858217e-02,-3.774130178059919433e-02,1.781914575421061561e-02
-8.784304821105125283e-02,-1.601938624368757016e-02,-2.204958463458547152e-02
-8.999670502779806699e-04,7.343138981904764884e-02,3.626641074081864841e-02
-1.351392425890613272e-02,4.233073842969909545e-02,-3.290282871569879045e-03
4.934247705947853585e-02,-3.199235824185904346e-03,-1.791714157081004954e-02
-6.015152699455098700e-02,-6.001500705023107146e-02,-3.367082141065474293e-02
-1.054878397507569114e-02,1.524009211046930060e-02,-3.245639234876632889e-02
-3.710452134817519843e-02,7.440549904133904324e-02,2.581494601461201827e-02
1.950308114431090548e-02,3.889183944416906274e-03,-4.933522243910496569e-02
2.576894912316622308e-02,-3.348784274034394964e-02,-1.671891132517430711e-02
-8.590889812911521942e-03,6.454508506486190088e-03,-3.687091544571249879e-02
7.833955889377491877e-03,3.972411398993420939e-02,-1.487635470424031672e-02
1.343157164236337756e-02,3.081944236362215567e-02,-6.291847121159763190e-02
5.473167359559182044e-02,-3.676267812122804846e-02,5.164436333178831773e-02
-1.660286164252183783e-02,-1.594972200883578231e-02,4.655514087133158507e-02
1.186573038470590570e-02,4.034261348032924799e-02,8.261314147903289773e-02
2.656526459977693114e-02,-4.647769148720282129e-02,1.048566293505020647e-01
-2.677485447921677114e-02,1.969360326220363083e-02,5.174683042711166608e-02
-1.797604696509028793e-03,6.126392893060969569e-02,1.090416627412623546e-02
-7.854551222594637061e-02,-1.051952543516195167e-02,6.403662363709453076e-02
-4.811451858290111128e-02,-2.365128517186529736e-02,-3.348600120911393585e-02
-3.207162795078396297e-03,-9.098222915093755539e-03,1.922265197938237066e-02
6.616514116723216585e-03,-3.429307011461110721e-02,-3.528643918912936772e-02
3.644785956418658546e-02,8.941402784609459031e-02,-3.751030967998785545e-03
-7.152742243370402084e-03,6.779031418223920025e-02,2.510380271924525508e-02
2.759656095324263328e-02,-5.034214712473299158e-02,1.110072042574832517e-02
-2.035805344544930687e-02,5.229557921080281446e-02,1.357826798113114311e-02
-9.548564524159563680e-03,1.982760593363649200e-04,-3.316408471811321812e-02
-6.311416504201060318e-02,3.348371127116476359e-02,-4.310456661860156274e-02
-8.122897532562905684e-03,-8.637500010022219898e-02,7.238108827341580920e-04
1.147236678789388849e-02,-6.610667349770785184e-02,-3.331224617246924397e-02
-9.513886145248366677e-02,3.361420850235764118e-02,1.181099767319603163e-03
-1.431502808757362244e-02,-2.069144040051082434e-02,-5.457577920638469887e-02
3.170686072043755761e-03,-3.801829589998426129e-02,3.553406290775224657e-02
7.011126984286744634e-02,2.807198823989163344e-02,5.803271680622655582e-02
6.766426166426149635e-02,-4.508845604323645506e-02,2.108038779264272827e-02
-4.498914625042350207e-02,-2.309768220310491268e-02,4.663282916739761724e-02
-6.404504896590665353e-02,-8.691681634770303741e-03,6.717837000105078560e-02
4.034993368257503224e-03,4.073309509793294168e-03,3.002308413739716852e-02
6.687135627459130094e-02,4.042713104428762028e-02,1.509370411064597621e-02
5.758961722338443862e-02,-1.535987957571034561e-02,3.571260132267976145e-02
-6.179060211549776416e-02,-5.715594666200814883e-02,3.571644133464023374e-02
-4.304890128065935739e-02,8.800575987415262119e-03,-7.049273144980229555e-02
1.773015724203488158e-02,-8.597923618064051698e-02,5.214575609751484486e-02
2.923522769014342756e-02,3.362158661805058485e-02,-7.029714712160797623e-03
-4.200749372447295377e-02,3.834281434203892086e-02,9.483437802400495817e-03
-4.544341285204577668e-02,-3.283116193721698217e-02,1.057255626225776513e-01
3.786705314046873855e-02,6.996867256846964200e-02,4.119479900797344551e-02
1.909084188523592351e-02,-1.266599216633366304e-02,-5.658350592436220405e-02
3.570268558917721040e-07,-9.393585937722307225e-03,3.244929721572305248e-02
-1.796696959293865884e-03,-5.755450874926544558e-02,3.956580680624505186e-02
3.179882023051807619e-03,3.197334108106339445e-02,2.540384201270126652e-02
7.476902715767191898e-02,7.748919629080096294e-02,-1.350853693828222429e-02
-7.815475709827314488e-02,2.771960018479528373e-02,2.796309953987372032e-02
-7.578636681321677948e-02,-1.208741559344162940e-03,1.052873542442460258e-01
6.930869916748736044e-03,2.537931956866858879e-02,-2.021942526221001332e-02
-1.726063798442435226e-04,4.975264555902029345e-02,2.599119405537108230e-03
-9.880479422435351627e-03,-3.462459125477890254e-02,-5.494679644186385714e-02
2.846414938649021592e-02,-3.164055238795425440e-02,-4.391209351533860439e-02
1.619119797523712028e-03,4.769564488428503640e-02,-8.241562179932538507e-03
7.768884550137293565e-02,2.133800709123012326e-02,1.470772072231463570e-02
-5.339511453585168987e-02,-7.508354407427807187e-02,-2.097177726644787812e-02
-2.887754741942109848e-02,-1.249892667120888236e-02,-7.227355409395191824e-05
2.114177154594712102e-02,9.194441313245267644e-03,8.958796611718150560e-02
1.675523232409593596e-02,2.347093355670789097e-02,-1.035344415134002195e-02
5.276262711667719860e-03,-2.972726268759114457e-02,9.241221436220498076e-02
3.022685482947674862e-02,6.566756164925538486e-02,-2.705607325454338890e-03
-6.717549550357473920e-02,8.942462459198687735e-03,4.046721087218119878e-02
3.776829141562790954e-02,-2.605974562492145361e-02,-2.423055317548050008e-02
-5.934548383012387684e-02,-7.598434114873120482e-02,-7.042214556024026240e-02
9.420986022379701508e-03,-2.366156617531304032e-02,6.124431400169980111e-02
-1.773513297094615748e-02,-3.343435952972038938e-02,-6.966552936660461853e-03
-1.593655218643900279e-02,4.540254311309482177e-02,-1.087229433802910407e-02
-4.187780277477464071e-03,5.804337699176834175e-03,3.375070298172870575e-02
-5.239253674154639023e-02,-3.969770603213452348e-02,-2.710303855696051534e-02
9.722325651597979110e-03,-7.437743136753455914e-03,2.465263457075522399e-02
-7.249221051174221941e-02,2.086330991952616010e-02,-7.032894526859709110e-03
-6.593495843295552050e-02,-6.603766139367486798e-02,5.708500279339655259e-02
4.068162517491098057e-02,-2.585743595345030635e-02,2.845094750927473770e-02
-1.153486686156914021e-02,-2.685594816940631985e-02,7.059864101928814417e-02
2.060220844233450962e-02,-3.680017205147275566e-02,6.420500702684247586e-03
4.699841244124710465e-02,-3.993582417759924952e-02,-7.859272533090749802e-02
-5.581497589030173095e-03,-4.481270979572973823e-02,8.290585573985135084e-03
-9.268997410136571580e-02,-6.397739227822426015e-04,-5.083133637541173422e-02
-7.763490676960172658e-04,-6.309141755654859574e-02,5.797235848154880938e-02
-1.239016831280046957e-02,-4.679134172900912408e-02,9.885574834958513191e-03
-3.975467444767379066e-02,6.476054219428790948e-02,-1.422143694359381295e-02
-2.499223137493034735e-02,2.482699640205934116e-02,-6.459387253183674141e-03
2.016518103955846145e-02,-1.234269050086546013e-02,-5.190569393308362353e-03
3.236619215719799270e-02,5.328861527634850409e-02,-6.390277461330189090e-03
-4.303066559691807319e-02,1.323677537280506036e-02,-1.133557431419483785e-03
4.009880904097732832e-03,7.225138204682617082e-03,-4.117608665005324103e-02
-4.804879675262588301e-02,-1.159089691747241038e-02,4.646369158866325844e-02
-2.086158717805336807e-02,7.435659173576456005e-02,6.811617260886060343e-02
-3.608213361931039698e-02,4.227740356720915277e-02,-1.181967412521553289e-02
-1.178354883711646428e-02,-6.909027719709789905e-02,1.299411207688719143e-02
5.709087081325409790e-02,-5.129188574591874578e-02,-1.511685519203283083e-02
-7.216990793371637347e-02,4.853599934657568810e-02,-3.378986010715884919e-02
6.826994894530051539e-02,-3.791290920473474463e-02,4.199064922667657129e-02
1.457364917804979815e-02,-1.901189667388684598e-02,-5.647518007010162225e-03
-6.878485028458281025e-02,1.301509788935013845e-02,1.832411819435721253e-03
-3.395960185499874440e-02,3.064472061101328887e-02,-1.325785480838636253e-02
-6.676297135726960708e-02,6.370216823126240158e-02,-2.339404299187811814e-02
2.302561640697410594e-02,-7.617370114435539907e-02,3.353950906056808734e-02
1.096130449494894521e-01,3.028331217435309766e-02,6.772455103418484335e-02
-1.165643847534136900e-03,3.637422573956156785e-02,2.312117843878631288e-03
2.118190604956383949e-02,1.871583579101138844e-02,-1.415804360171038674e-02
4.922621222809113462e-03,1.680766103889985014e-02,-3.303675106400256502e-03
-5.532501281303593005e-02,5.562656917962998521e-02,-4.382551151459932598e-02
-2.064396184181210500e-02,-2.928651622097526094e-02,-2.795346874682043056e-02
6.371691958467806671e-02,-5.749828964335601186e-03,-6.738348970912301505e-02
-1.492019186691897169e-02,-5.258140535893488648e-02,4.874702544873217580e-02
3.843952505941678616e-03,-1.160293788409620316e-02,-6.547691914897459109e-02
3.731157226927311887e-02,8.478205552129333689e-02,-3.049783193081702457e-03
-3.752961945322823983e-02,-8.070394186584206250e-03,6.316984815644426446e-03
5.294482692272932389e-02,-2.188860448808542351e-03,5.725329053915136773e-02
-6.767056473373540826e-02,-4.239978005611565876e-02,2.888640797618586414e-02
-3.343455280568189553e-02,-2.962238874247558051e-02,-1.025035405827675380e-03
-3.823066008521921327e-02,1.571840438268394535e-02,4.325080118230794496e-02
-9.869305317815092043e-03,-5.624537730678788594e-02,3.774673623545714285e-02
-4.781336455600124907e-02,-1.194909602027909440e-01,-1.087266922907198646e-01
2.536392467588524918e-03,-1.888763489937953996e-02,-5.758221232304538278e-02
4.575121991659811954e-02,-1.422735307117942855e-02,-3.099965590571345658e-02
2.763499596796881869e-02,-9.101004736011016061e-02,1.128407216538062112e-03
-1.053181731995658094e-02,3.563572152170110807e-02,1.261431494653938827e-03
-2.332212775972825405e-02,-3.812200224463649367e-02,-1.262026464105211326e-02
8.064674037175581164e-03,-4.501252220509405731e-03,1.006923106932208420e-02
-2.403047969419574645e-02,-4.843540028971356215e-02,-1.437543249825184956e-03
1.509926307531207768e-02,-1.078374304451697706e-02,1.010096913108676948e-02
3.206278837318383979e-02,-4.331944965711530260e-02,-4.086885561190357202e-02
4.243896219619867211e-02,7.902226058979952561e-02,-1.131294929045839094e-02
9.751295257621393070e-03,-6.974317871465743335e-02,4.527913792320736527e-03
1.401567044969339801e-02,-1.066790609312131405e-01,-4.275331292186383865e-03
-3.087596359243922201e-02,2.940294140268632367e-02,-1.146477276555670291e-02
2.205343097052148843e-02,1.000948085115796991e-02,7.828935156239782978e-02
-1.028403396224501125e-03,6.173440849072927943e-03,-4.563420084693556311e-02
-2.689587999716468517e-02,2.468267697958171150e-02,-6.786097663579804262e-02
-2.078364581098828337e-02,-1.911557595722069691e-03,-2.152302617465987403e-02
-5.948327984240035782e-02,2.802618554828109967e-02,-6.714610834514365967e-02
-1.468336216997704648e-02,4.639415172400727233e-02,7.073768203300517809e-02
3.841467425549658504e-02,1.441373277511020590e-03,-4.952867609567326163e-02
6.181568798039152254e-03,1.372347394044545928e-02,-5.010006053451852154e-02
2.626516518350808030e-02,4.924865823482749150e-02,-5.539516445908634207e-03
-3.788424344388588438e-02,-1.367995138990608581e-02,-4.963473433714808355e-03
3.120321341731267795e-02,7.354240017869652368e-02,-3.914837369495212382e-02
1.736785181102208642e-02,5.840034487515833456e-02,1.846925374097200742e-02
-8.096012332898909480e-02,3.363276206803819668e-02,-1.383276132289641414e-01
-2.371385358855275516e-02,7.917537123336867294e-03,-5.749622522483346758e-03
6.351048310172452416e-02,-2.075613924872259444e-02,9.030225264875801211e-03
-3.103364376914478310e-03,-1.482235755698718509e-02,8.352697226065754210e-02
-7.704196689879022619e-02,3.504486405116793990e-02,6.515751886504915491e-02
7.421045251722094283e-02,5.997402599606723415e-03,-1.578994255492656429e-02
-2.359286670050450823e-03,-2.074503210043363022e-02,-9.507158871339288844e-03
-5.178343733431843218e-03,-8.191833306506845006e-03,-8.448243989208790994e-02
8.599164910501783110e-02,-5.224267811291347791e-02,-3.626272845053193222e-02
-3.847967028166315862e-02,-1.723557391920357493e-02,-5.648899819933000249e-02
-1.406357615868314079e-02,4.436084294896004178e-03,-6.185115965868644844e-02
-4.565476772443936848e-02,1.809004460203858522e-02,1.535715381015099893e-03
-4.900150481567813049e-02,9.520564273604822936e-02,-2.606077002625439842e-02
-5.004678203315571228e-02,3.230945382088944856e-02,-5.237267927670984091e-02
5.166319048947459053e-02,-2.755586107575531268e-02,-1.034010049689862779e-02
-3.234277489200561295e-02,3.985191701170511663e-02,5.261467934004518399e-02
-2.514698587634000074e-02,4.479007241118721644e-02,-2.483553753943340200e-02
5.599044769164989582e-02,1.775183384962867109e-02,-3.184132819402184927e-02
-1.810302882880757830e-02,-2.340953490154523697e-02,-3.095458030683246806e-02
-5.468145687297564124e-03,1.329404106087429165e-03,-1.293503689172926380e-02
2.702891154339918944e-02,-5.023554951274802893e-02,4.742013780507533388e-02
-9.353591940404908101e-02,5.788704469548083820e-02,-6.740861428947099443e-02
2.008804641242668138e-02,-1.889235292636261970e-02,-3.137675228895383389e-02
3.522898426064828559e-02,-7.346228939062150742e-02,4.526683919208820267e-02
-2.730684293855524872e-02,1.505983396571798118e-02,-1.984282953520714182e-03
-8.759859483988373732e-03,5.207427470902442623e-02,2.472317163925837231e-03
-3.448546189396112238e-02,2.376340781642317587e-02,-2.564246161090440873e-02
3.604002305040456683e-02,2.782229749393188775e-02,5.021948192131747701e-02
-3.477633122410087041e-02,1.368876157077885715e-02,4.089460362939682098e-02
6.566163591176825409e-02,-5.798804617224422031e-02,-7.988683501935818498e-02
4.868055081021981784e-02,-1.671048190786721338e-03,3.885992664124785639e-02
-1.731977268577849366e-02,-2.440535592127954494e-03,9.493837578585977155e-02
-9.459896141161437330e-03,-4.261205407670068390e-02,3.830346157238835592e-02
2.228665044241092200e-02,6.267047120375685010e-02,3.255147048764128921e-03
-4.912121290930534373e-02,2.108361862711255821e-02,-5.341139198382675868e-02
-1.048466139188353186e-02,2.366177754508627662e-02,5.110811052439451219e-02
-2.471619898109809338e-02,-1.054317545249126159e-01,3.085748578701707698e-02
-7.086707946266351116e-03,5.613259364533826346e-02,1.247838861945209377e-02
-1.039177576920786994e-01,1.368874956057433701e-02,3.216434740161881745e-02
2.914313278321734122e-03,-1.107388301033777889e-02,-2.453451189858982251e-02
3.441316980923848912e-02,1.427929682491714189e-02,1.481513200671363698e-03
-2.128986869675003266e-02,-7.496824570278759134e-03,-1.670289234638020967e-02
-2.988404552682736789e-02,-8.935519260531046837e-02,-2.011270439751712893e-02
-4.082411804111863232e-03,1.038751089374016605e-02,2.674626651036021707e-02
6.405152308644550783e-03,-4.245080463010969529e-02,-2.589012508301505398e-03
1.458434818596928556e-02,3.036831899551538979e-03,4.764668368217125222e-02
-1.019011677814626524e-02,6.067571010607045873e-02,3.914605207314169125e-03
4.143470998771454222e-02,3.310179426152003862e-02,9.378260452598799393e-04
2.192383207007677498e-02,-3.282424377431591295e-02,-4.306281779045084863e-03
1.000453012454472108e-02,1.715389441330356438e-02,-1.692412716052147867e-02
2.071662032716557397e-02,-1.443636719850124048e-03,-2.785448279337122621e-02
-5.725049935292231967e-02,-5.294170938357085215e-02,-5.048692425015223473e-02
-2.837163228372369117e-02,3.972197006448457968e-02,1.535130239345110399e-02
5.065902635750944849e-02,-1.838450695225142192e-02,-1.358217333426512720e-02
2.218495822909666987e-02,-7.637010505784239123e-02,-7.565322104550155184e-03
-9.270857931626455550e-02,1.501477152951495933e-02,5.405704060095842256e-02
9.862469970299361788e-02,-1.952194923816237895e-02,-1.417329701571664637e-02
-1.194457782306187210e-01,-1.684448097010413786e-02,9.378223774843569283e-02
8.014478700163019109e-02,-9.163450546993445744e-02,-1.916411657846567654e-02
8.219401788148818005e-04,-4.744222720201687199e-02,3.702111854953403502e-02
1.328170925395166574e-03,-5.224623767061126189e-02,6.172017033192997437e-02
3.653513762611102899e-03,1.180952728998582030e-02,-4.940922242758552779e-04
-2.352612754857696595e-02,1.921960850231861986e-02,-5.747678614512282541e-02
4.257254841345289691e-03,2.344242593879199490e-02,1.924649938160412355e-02
-2.066541567414499625e-02,1.698217011224707404e-02,4.237333244292280227e-02
5.829194353957925512e-02,4.040791147206975603e-02,4.307701729454705558e-02
1.854327861770506533e-03,-6.714787551517480135e-02,1.948121083851689361e-02
-3.307625788972607100e-03,-1.752222682471359441e-02,-3.057363753923900834e-02
6.384717961930286290e-02,3.845382428189735025e-02,3.441608867455169516e-04
1.675799370718420236e-02,2.091631287609746481e-02,3.713743486123510101e-02
-6.201859176168302012e-02,6.789110397894945748e-02,-7.091062064332302479e-04
-5.856687643562737133e-02,-1.675842549266747666e-02,-4.999439708666948007e-02
-5.280102003909784014e-02,1.446618855081881205e-02,3.835587711089818302e-02
9.769067188540206392e-02,-7.864169462922371290e-02,-3.453335377094685424e-03
2.986522269531921916e-02,-2.645097993129369440e-02,3.551088731532089232e-02
1.852921415633488819e-02,-5.183783951287103398e-02,-1.638422040923891848e-02
-4.504317402558460914e-02,4.749058815914238701e-02,7.853994862793324538e-02
-3.376615595787724623e-03,1.279473121712435685e-02,-7.696875682106543715e-03
-2.473306873469750117e-02,6.522590548297563587e-03,4.429475955742123022e-02
-1.267537666138801415e-02,-5.097376236765070040e-02,-2.477590282472613703e-02
-2.018081738421322914e-03,2.651242527378860209e-02,-1.595682635493374029e-03
-2.261257111953440119e-02,-1.298732802626210471e-02,2.137819837331705192e-02
1.137928730057050086e-02,-3.470115658756817156e-02,-5.731022776268379984e-03
-3.728105957833005579e-02,-2.126269466220017182e-02,1.205013854429554943e-01
-3.704495250375872129e-02,1.125116225619023254e-02,4.861925808139262728e-02
-2.419890570382459902e-02,2.324347092350509750e-02,-9.152229392339711334e-02
6.748916935415803786e-02,-3.899749050043765930e-02,5.525342317908824019e-02
-8.220321213323623921e-02,3.962063101616524613e-02,-3.490930086020164330e-02
5.210918253377131576e-02,-8.199615759893774669e-02,-6.800115277161385141e-02
1.371091110088156449e-02,-3.431276585534120266e-02,-7.165240545011920814e-02
5.709294138964237861e-03,-2.912432428583668943e-03,-5.466692151268999489e-03
2.458063752233912574e-02,1.625841794090649925e-02,-3.303157076562630162e-02
9.838320002174578971e-02,6.312904832975752001e-02,2.676799358156719405e-02
7.399072833033169816e-02,-1.173715405469771995e-02,1.206788511488275997e-02
3.546037756144294201e-02,-1.370629708119295784e-02,2.827321635145054607e-02
-7.658014486977324231e-02,-2.503248174377770488e-02,9.968848320370368027e-03
-1.628208803406375194e-02,-9.854224859643524737e-03,6.025107576204522496e-03
-4.109124307173751822e-02,-3.896754522678016336e-02,3.256020870598103252e-03
3.988637509576008905e-02,7.498515170866547341e-03,-1.610900777436084785e-02
2.289638428974785644e-02,-1.176906813358381864e-03,-1.148284049796443190e-01
1.049657719309013935e-02,1.871497539006566554e-02,5.328692785787386005e-02
1.394265604903172258e-02,2.692386647855492254e-02,1.452683565495050191e-02
2.934014058868209332e-03,-4.499236807103511315e-02,5.011793564200429929e-02
2.335557412953211381e-03,3.518223501824521704e-02,-4.536316836881190695e-02
-4.228917952078364503e-03,7.282191907729090169e-03,-4.676136403356847410e-02
-5.199049404762313281e-02,3.245849854182002343e-03,2.115031123481560249e-02
8.409015882779984075e-02,1.390170952129738020e-02,8.224259889232567178e-03
-6.747095638019773300e-02,-4.326574758645469060e-02,3.190848844939972451e-02
-3.585513397710358291e-02,-2.231746394861186880e-02,4.045485515227248419e-02
6.186332448986409799e-02,3.033417562227814016e-02,-4.164779813006293241e-02
-1.242248916106517692e-02,-2.295822496371960342e-02,1.056135874014467735e-01
-6.632157846835003145e-02,-5.103501929192996722e-02,3.339943776985625917e-02
3.404840403205848520e-02,-4.484845380278448118e-02,1.738252682886657404e-03
1.201948994563988189e-02,-5.132902536087537160e-02,-6.947973179073632655e-02
1.969946358777386816e-02,1.297002353658948878e-02,4.928408916866529321e-02
-8.241212561166971762e-02,2.327388754821334629e-02,-7.262883691143520726e-02
1.674497493193386269e-02,-3.616635612332599892e-02,-2.661955954854308692e-02
-2.352217145642689078e-02,5.123913599695308768e-02,-5.573424079526898695e-02
-2.093363918230491116e-02,4.063259775149235392e-02,-4.401582591404362699e-02
-3.357346997883095541e-02,5.502668468472365557e-03,1.088400216348877313e-02
1.256452702416766161e-02,8.212666058003549596e-02,2.683248854281030868e-02
7.725615395240556516e-02,-1.058104864858018246e-01,2.860701905712492374e-02
-4.349340650797076102e-02,-1.603666585934937494e-02,-3.187821192477428844e-02
1.380196072802284367e-02,-5.402678056803508072e-02,-2.710283240915742353e-02
2.995133506474602705e-02,-1.695706417328464097e-02,-1.122784025703486843e-02
-3.133510078522120518e-02,5.616124504395260267e-04,-8.568820212201719300e-02
-9.475462020638165256e-03,-3.498147093210508124e-02,-2.819223120719993592e-02
4.794202897438664540e-02,-1.118324010236368543e-01,-4.541180972712571752e-04
-6.337488694896642460e-02,-5.871344696892084186e-02,2.393910828672669855e-02
-5.680700293011240604e-03,1.647756699343619347e-02,-4.838850211769895465e-02
-8.774607195730844966e-02,5.908715475398120670e-02,3.884284470400362760e-03
2.620688791667991416e-02,-3.136670055093636333e-02,2.566819497071448977e-02
-3.496080889713012833e-03,2.571905553203301508e-03,-7.905585406121469483e-02
2.597228793958406348e-02,2.068359402073955897e-02,-4.938742567935277238e-03
-1.298768911584623556e-02,-1.126473448440985618e-02,-1.042931240286955157e-02
2.569090371787921892e-02,-2.483306890999916611e-02,2.107506799888255247e-02
-3.696676573613008610e-02,-1.363816845912518318e-02,8.079314570345345892e-02
9.139743921441075003e-03,5.489926486775009024e-02,6.810857847840763764e-03
-1.983394936331949951e-02,-2.582166667741092256e-02,4.534280291508544641e-02
-7.967289869119445478e-03,1.543213892756996244e-03,5.855408686641499355e-02
-1.884005083831467170e-02,3.912244800986417435e-03,1.711706033919629943e-02
9.070275624127986658e-02,-5.476499864120764477e-02,-2.204471395770157827e-02
1.590248555793549040e-02,-2.040423525344613881e-02,5.181966863544815172e-03
-2.275511900510710298e-02,9.979896675695806851e-03,5.017692784469475475e-02
-3.551057811480997500e-02,1.902944164815005340e-03,1.391660163781792761e-02
-1.814461253664524133e-03,-4.351464723537505630e-02,-1.150618343601125457e-02
1.685459445863206861e-03,-3.912220702476430778e-02,-1.996732030931753707e-02
2.304437551071429613e-02,-2.333198382999372017e-02,5.638082952050400137e-02
-2.355036080575884788e-02,-4.177930728710174679e-02,-4.109485612550986544e-02
-2.834915029315421969e-02,5.658591236968205096e-02,-6.219774850551252482e-02
-2.718081721245559079e-02,4.376801381120672824e-02,5.818627175304107169e-02
-2.324674744272517066e-02,5.901419315351846134e-02,8.638400701633455400e-03
-6.398693652956105593e-02,-6.464376797468064650e-02,1.784531979337639074e-02
-6.677579146161321220e-03,-2.484160098180331760e-02,-3.463939632137880836e-02
-1.491109028878091552e-04,8.667895303783160199e-03,-2.597554730146077809e-02
2.943620075531022326e-02,1.931580869641287210e-02,-5.754450850221789343e-02
-1.542855748848130301e-02,-4.456118174581699155e-03,-5.014264912566702287e-02
-4.498500137414850053e-02,-4.421827066665970363e-02,-9.704351719140184851e-02
1.298364820228717353e-02,-5.070720094983148518e-02,5.174275644999356757e-03
1.561678917798244373e-02,-3.131619647900107939e-02,-5.922527766126402943e-02
3.400515687086501371e-02,-6.364729012821442218e-03,1.551158474017027070e-02
-2.510867347647481509e-03,-1.150947370255659720e-02,2.644269259812147971e-02
2.869636714370808663e-03,-4.753310564684818523e-02,-8.372572188852763289e-03
-1.336623749848299750e-02,-1.121291674687645290e-02,-1.773570466595028941e-02
5.485946979005842938e-02,-7.641588661932495301e-03,-1.874780995762842994e-03
4.950534199845984390e-02,-3.149809353161887870e-02,-4.315865490672431137e-02
6.097004411442964039e-02,-2.643421412202360318e-03,2.436495224744770691e-02
-5.917154860841790202e-03,-8.830585266599678268e-03,6.031614954521496291e-02
-6.774681490435928259e-03,-7.747850442346162006e-03,-2.719515674656367704e-02
-7.502122264725855777e-03,-4.052008451131525191e-02,8.284485724235348195e-03
-2.856499546035249151e-02,3.303563307690212530e-02,1.132967837854697013e-01
5.716003459769183198e-02,-5.800100212580527707e-03,-9.638626863541542578e-02
8.776229745009129016e-03,-4.449293200900131945e-02,9.273287536996922527e-06
9.120178060135882003e-03,-3.705443214601140955e-02,-4.619266937144626134e-02
1.397131447597930315e-03,-6.613790224146364263e-03,3.524723652529931223e-02
-4.742944533882671732e-02,1.195187275859070121e-02,3.088708389132327134e-02
-1.838338348816605282e-03,4.794412097877127216e-02,3.324158360046741006e-02
9.552439500359741209e-02,-5.390598425523947246e-02,4.264191457186132517e-02
-4.571226480110966023e-02,-2.801840539703405464e-02,-1.060079896158916922e-02
5.485689065843785128e-02,-9.021631030297189158e-02,4.001931642717159593e-02
-3.143826179583824459e-02,6.852091036878294947e-03,-1.788294903981155551e-02
-2.309149009293579718e-02,7.977578126142977066e-02,-2.670406823422404735e-02
3.927739631632388984e-02,-1.381577488167885261e-02,5.169621832370521752e-02
-1.214615875303410317e-03,8.478410050782524479e-03,1.931419454630483451e-02
-4.388538605875417359e-02,6.084448039856985707e-02,2.556950941892241480e-02
1.002052740023820845e-02,-1.235934338785610667e-02,-7.407491406861733962e-03
-1.853571820234999046e-04,-1.654734922618683948e-02,-2.526467165057674075e-02
5.438788335178319083e-02,2.459503404423074926e-02,3.855761582071930149e-02
-6.851415850280082043e-03,-1.216994935205848068e-02,2.691216010774672915e-02
-3.109700648354046804e-02,-3.295181867725174851e-02,1.270081209940952457e-02
-5.161085561350955281e-02,5.930009456517042893e-02,-4.689226426694549643e-02
-5.467449442370338891e-02,2.755181380178908443e-02,-3.967532140095017534e-02
-5.897483887319935475e-02,5.343325266004884250e-02,-1.269183927708040019e-02
-4.774211507783828606e-02,2.037103918365819680e-02,-2.862593314789622836e-03
6.492820907821596210e-02,1.726373649347008599e-02,-7.654391533205345821e-02
-2.969629525712419102e-02,-2.184844720040602165e-02,5.863093382439862888e-02
-3.444230919633303745e-02,8.029767785482821085e-05,3.181863620870134524e-02
-3.945060323374472572e-02,4.055690226899467954e-02,-6.273177669014228137e-03
7.187313012597772166e-02,-3.255599835026518063e-02,-5.102816014437316222e-02
-2.801530146594267967e-02,-5.797859313911382650e-02,-5.926099999105425425e-02
2.584939158451092511e-02,1.099621305190933047e-02,-1.680684865083759139e-02
1.640474220312906559e-02,1.000915081991897264e-02,-5.130533512914264155e-02
-1.337550512452503719e-02,1.175943167454288237e-02,-2.134848363974057878e-03
4.087036877812300767e-03,5.225683623837385633e-02,6.857106117426542413e-02
-2.298354266512890251e-02,2.892120551340540691e-02,2.700459394553873099e-02
-7.008144172903495173e-02,2.505749615018628557e-02,5.627588046012327316e-02
2.864095000926608278e-02,5.577064580352897316e-02,-7.116619705575076039e-03
1.048069880198675141e-02,6.038537335784689014e-02,-2.150104415023430457e-02
-6.073736270843720086e-02,4.650148283305761271e-02,2.206593322093917953e-02
6.143368549449199773e-02,3.262549965746114160e-03,-1.347030839535533729e-02
-1.878671621163823663e-02,-3.154800598407909995e-02,8.739855804520853255e-02
-3.481962109638691693e-03,1.311780201755049884e-02,-8.031209395006466689e-02
5.472622914429063623e-02,5.553059599116219602e-02,3.078439157002380716e-02
-2.729228570991343284e-04,-4.056832226214615589e-02,-4.523952234118149701e-03
3.569433643266201744e-02,-5.365863961344519151e-02,1.683465441878290517e-02
6.777723114576025831e-02,4.658964942384483804e-02,1.164120162357282565e-02
-8.335545844894213380e-03,-3.440448082773621408e-02,-1.564013111317508198e-02
-8.304946507799476629e-03,-7.174724839060925285e-02,1.902069204256957857e-02
7.231963823797645657e-03,-2.219670253772052654e-02,1.523975234033008719e-01
-4.360908320142815181e-03,-7.639906396914555864e-02,4.363756738558006998e-02
5.431090644345173100e-03,-6.229950889162687994e-02,1.361741558762993021e-01
-8.594111393015058109e-02,3.090346843050700149e-02,-7.516717654789786818e-02
2.093784565324505881e-02,-5.006507996240323194e-02,-2.545774009946623340e-02
-1.859574111402314362e-03,-2.960980915628700846e-02,-3.553008722172695810e-02
-1.961166788127527427e-02,4.911297562718801996e-02,-5.311856429635780641e-02
2.298184407909000318e-02,-5.399029695055743844e-02,-4.359246052290999263e-02
5.271421290749780941e-02,-9.066840704673871654e-02,-6.968225549849303008e-03
6.346807708212773291e-02,-3.517147295305584481e-02,-7.280158617507095703e-04
-4.128942238103330137e-02,1.613919886610921603e-02,8.285339904400021438e-02
-2.833282369122132674e-02,3.881072589893406425e-03,-6.882099758354688623e-02
-3.540650374927094279e-02,-1.782416600193225623e-03,3.313986838823519687e-02
3.536173125205586965e-02,1.205212245832828696e-02,3.000092662829749110e-02
-7.752440428703490094e-02,4.767197530858804932e-02,6.127537664710595335e-03
4.965869133280766123e-02,-3.373513542332778892e-02,4.916870993956769242e-02
-3.289135567507133623e-02,-6.954060848682487583e-02,6.221316701476509864e-03
-4.407504969164793840e-02,5.226890335272550009e-02,-2.735539133425145264e-02
-4.011046818008474207e-02,-1.525141696462874175e-02,4.380273241306063305e-03
1.549852133458238558e-02,2.844321103957870092e-02,-1.414344613260175819e-02
-4.968928517203504563e-02,-3.817690623720147031e-02,1.696082640208262590e-02
-2.602640291874106296e-03,-1.207255116985292559e-01,-9.124541144059800102e-02
3.614405502236157919e-02,-8.920691890743247254e-02,1.285061956466054985e-02
-2.044512176878346063e-02,3.985560762208227581e-02,1.056213851044699760e-02
-2.364954661353975418e-02,2.874531668205117935e-02,8.553215526816568270e-02
-5.498208097546476020e-02,-2.262487840345909704e-02,-9.874328428795549339e-03
-2.482512595737988367e-02,-4.828353578566688120e-02,1.444920920661871971e-02
5.885403830150406218e-02,2.456665642277658032e-02,6.275686709250458128e-02
-6.245070846691584687e-02,-2.486747302235313081e-02,4.820215100089828009e-02
7.341410338168155580e-02,-3.465380691705538009e-03,3.113164876002726816e-02
1.803118585119909897e-02,3.875826911140230202e-02,-5.181855150608826593e-02
-1.976058981437857701e-02,-1.457470106388945343e-02,-2.826634315960455460e-02
-2.531843423937744225e-02,4.245470832469168398e-02,1.682980390456961448e-02
4.245020143184867478e-02,1.791426859399515570e-02,-7.031048418462780558e-02
4.776302306332737280e-02,4.388580709062993301e-02,1.027490018997445492e-01
1.861668764732284792e-02,2.171229241474826807e-02,-2.224518388026965401e-02
-2.991205539150239637e-02,5.172112039431846914e-02,3.670041338736389908e-02
3.840299528522662237e-02,1.529155151638244593e-02,-4.827488325969456900e-02
3.473279390792970850e-02,1.452529072121439696e-02,1.810723323380031280e-02
-1.617065228683792211e-02,-9.759533906771292525e-03,-3.559188974893720547e-02
-9.268037666046405332e-02,-1.749034359351658852e-02,-4.358728156315763713e-02
-1.660469823945432549e-02,-4.634868426442358418e-04,6.870108851730585831e-02
-4.704189729815846238e-02,5.792761313207041990e-02,2.635384831051263560e-02
-3.342967572101383789e-02,-4.054276379342341280e-03,1.611998197142411327e-02
-7.637005715240398687e-04,3.444850790504746380e-02,1.653060388327242183e-02
-1.168038409462585601e-02,-8.221822109269343037e-02,1.872884300193455821e-03
4.013808846304334904e-02,7.409280848897936700e-02,-8.721183924325949521e-02
-5.708688375894279549e-02,2.735172412960948027e-02,2.337269281417923492e-02
1.117381133651540598e-01,-7.938975288405411557e-02,9.590515836206124287e-03
4.208184265039422584e-02,-4.269338306353493047e-03,5.066630203521241965e-02
1.638172207981974243e-02,-3.517708435705472342e-02,1.677246023413669559e-02
-2.718150142643414521e-02,1.830592535602747206e-02,-2.674237551845707814e-02
6.599552446522695404e-02,-6.301677421937793011e-02,-3.166213873970176451e-02
-8.527569075045093872e-02,-9.205361966101163751e-02,7.543368853781145557e-03
5.812316167238883863e-02,-2.246398708074200112e-02,-3.244517711104917546e-02
2.036588753747569508e-02,4.209234550550081805e-02,-1.515928523763525500e-02
8.251160508500219801e-03,-7.959768504750632662e-03,-1.380446848062739235e-02
-4.062109412684516280e-02,-3.129742086701541720e-02,-2.865819087443217516e-03
5.460071949519344769e-02,-4.948388352249378716e-03,-1.276114808678549019e-02
-4.675515014592768193e-02,-2.237623352166697582e-02,4.331185196732022930e-02
1.094497485949895849e-01,4.210231981215798586e-02,7.978156373918819655e-02
2.279895015633278191e-02,-1.512691746244237100e-02,-1.564297554269412915e-02
6.345629932027081754e-02,1.219758927938722863e-02,1.081925741377819106e-02
-1.714489927749638168e-02,-2.103459401605583222e-03,1.411426307439972994e-01
-6.412932016219176357e-02,6.787922270733066921e-02,8.771517330609010510e-02
-8.654636923047477268e-03,-3.514110768172834520e-02,-4.101281414475854703e-02
2.263250032211042845e-02,1.637054082319249274e-02,-8.347966944964595182e-02
1.965487034295780935e-02,-2.115060842729231654e-03,7.663474056808234312e-03
4.991646488109018065e-02,-5.331708324030134255e-02,-8.337099794225309723e-02
-1.913749215558810390e-02,-4.382572135839761518e-02,2.549412178104928234e-02
5.822391633659295546e-02,2.213968476537098596e-03,-5.864185514393918143e-03
-3.240678554346872881e-02,-3.060397052171908924e-02,-2.697038515419231466e-02
2.718472647204633191e-02,-7.969272395187683433e-02,4.934262404063379133e-03
6.803690294367307698e-03,-5.744100273762407782e-02,-1.424811577043446666e-03
-7.601223975712399772e-02,5.275524377737975806e-02,1.119539253883373997e-02
-2.690202895105217942e-02,3.692374236615855732e-02,6.184020559167774725e-03
-4.956907237955705120e-02,6.741429562340726933e-02,2.773703031418174245e-02
-4.781352374474139195e-03,1.507588099247175045e-02,5.633177960383144167e-03
2.967611408589529778e-02,-2.393453918803068944e-02,-2.570350118373649490e-02
8.833805058126455167e-03,-8.894480160631337839e-03,7.596297405212577847e-02
-1.613714333034339463e-02,-9.628129887290064193e-02,-2.847948589403397936e-03
-2.077256796885592477e-02,-5.671033998923456776e-02,-4.880885347125814983e-02
-3.422527018531146964e-02,1.780927401411909819e-02,1.771545859093668490e-02
1.636413680391417963e-02,-1.423348278961824448e-02,-5.601745122652793292e-03
4.067044173043758010e-02,-4.640972257971187620e-02,8.678686429374962708e-02
5.038775934574423604e-02,5.551378459506708246e-02,-1.529464552703125972e-02
8.376408673229474022e-02,1.075667684873163679e-02,4.807868446016231451e-02
3.678637579395001300e-02,-2.757122060098028335e-02,-1.301830055332927477e-02
9.236718845642786363e-03,3.674895950142469808e-02,-9.877039758374681414e-03
-2.625041378144924581e-02,-4.505776312073684481e-02,2.576938577649306311e-02
3.709916169129876679e-02,-4.013749312889199061e-02,7.244645594881578103e-03
-1.823265250755959355e-02,-9.490930531547685928e-03,7.895564468911503431e-02
-4.391373874906845387e-02,-4.209571708795779854e-02,-5.934549100944635364e-03
-1.531781015895349778e-03,2.706992225049581827e-02,-1.363086279415359585e-02
-4.011839182752573174e-02,3.679962115000330602e-02,-1.234004832374117552e-02
-6.082728495309325939e-02,-2.108947466427057646e-02,3.115728926967065854e-02
4.791966266329740487e-02,-3.675663280123928761e-02,-7.861619366486968796e-02
-7.480847392265166373e-02,3.322696499902832307e-02,5.071377989811301501e-02
1.933215103113510719e-02,1.301066266527197909e-02,5.752632392763454977e-02
-8.089023821947051440e-02,6.612948221784213654e-02,3.228163286961359402e-02
-4.858301755632630364e-02,-2.651566551337061349e-04,1.266830459306777720e-02
-5.693004734152404440e-03,1.373896435538143543e-02,-4.094071068109515071e-02
-2.040701277951603027e-02,1.233683663058104778e-02,-5.380315999573843239e-02
1.782419082155227083e-02,3.655929682426825589e-02,9.564486618039359789e-03
6.588532057719206393e-03,-1.360243812348522693e-02,4.283761148259207507e-02
6.545615993221194640e-02,-4.560807912556344434e-02,6.662180188569739869e-02
5.603480718256125676e-02,-4.554906530226010553e-02,-2.453058384619319701e-02
-3.712228876656666066e-02,1.990945475796821254e-02,1.584117272397697184e-03
-4.252746033936425502e-02,-7.848444356724396109e-03,-1.432767025615358947e-03
8.122833282361230367e-02,6.575734785227002957e-03,-7.524381794596125828e-02
-1.497882604672072862e-02,-1.257869071865490296e-02,5.154511073945407251e-02
-4.951617465926635986e-02,5.531407500046966325e-02,2.638939082269073366e-02
1.324733763188578987e-02,-1.566768312816279804e-02,-4.777912087747967357e-02
2.848561091237536771e-02,1.652186903575899105e-02,6.903712777525744526e-02
8.466743774713920978e-02,4.710167377453914478e-02,-3.386922131129121993e-02
1.329185740581072597e-02,-2.713662713122161688e-02,-3.309591344154252934e-02
-5.205129058201565058e-04,-1.555395246997362015e-02,-6.926296127666270452e-02
3.125104060470499517e-02,3.357808569984156721e-02,3.346528441290123196e-02
6.920404873435920257e-02,-1.439929339925565682e-02,-2.680943680023186240e-02
4.372531127633821901e-02,-1.189100980018503728e-02,7.804512135238467208e-02
8.355394048750465485e-02,3.074616270034034871e-02,-2.590068207754250840e-02
2.157352343821129434e-02,-1.677763683128806124e-02,7.767657750175177567e-02
3.916069978203100266e-02,-8.835649850648041263e-04,3.143435333449453445e-02
-4.666996046367734297e-02,5.345923537978173982e-03,3.452025917511220010e-02
7.415108185699309518e-02,1.925502297294104034e-02,-3.240733943515902021e-02
-4.114561160955320512e-02,4.587686142981418219e-02,2.175803427022884873e-02
1.684143573759281504e-02,2.180469824566471856e-02,-7.211992042511700118e-02
1.421040241729110316e-02,-9.648390472511314542e-03,9.524242936524264860e-03
-3.362003726333475523e-02,2.568585101061694742e-02,7.207597002661789154e-02
-2.151917717777307101e-02,-1.751749765422475416e-02,1.778875216079930585e-02
-6.067207845836483648e-02,9.161225036011735878e-02,-8.467116091731086147e-02
3.668053112073205863e-02,1.933149736278190131e-02,-2.340782953557347598e-02
8.933768514883926037e-02,-7.756103677641003336e-02,-9.190189116087750174e-03
-1.110685231037583307e-02,-1.678265034647939691e-02,-7.920018169053455459e-02
-9.680809644485018073e-02,-1.086202650835582512e-01,9.090239652669738959e-04
3.330992781881947362e-02,3.770637957713351973e-02,-5.266826645728049650e-03
5.994589753278938005e-02,1.023381196195683948e-02,-3.443365660959516600e-02
-5.494430051408924487e-02,5.155414900683488039e-02,-4.885790760380022413e-02
-1.058162695356397454e-02,-1.381128781498308991e-02,3.842746543484802657e-02
7.027644923508258312e-02,3.318686013938709073e-02,-4.157335148688418199e-03
-3.191987373235297132e-02,-7.111200410988163800e-02,-4.798582402435633970e-02
-9.140342684824315223e-02,1.113213081266701751e-02,1.200901416784692227e-02
-6.293112167981514127e-02,6.326259461369891646e-02,1.784602653725089749e-02
7.158922129850989191e-02,1.971113891776826027e-02,-6.511900451078718455e-02
-3.395991686703860729e-02,7.713154841117975113e-02,1.542496627335941846e-02
-4.884371057234920127e-02,3.277544416082964901e-02,-5.868002113967142608e-02
5.144807243884698400e-02,1.780309596488747689e-02,-7.059485658204779635e-03
3.517240075104810515e-02,1.656127133866257956e-02,3.350091074082904227e-03
-1.188995055976002496e-01,1.685893903096659027e-02,-3.920364521218210746e-02
-5.632446101532757182e-02,4.319279981855565081e-02,5.745428367722956592e-03
-3.527076457490489693e-04,1.225698320650396231e-02,-6.447157386759366955e-03
2.470176313889064015e-02,-8.822826898601601742e-03,-2.909673513958537655e-02
-2.027571558640989952e-02,4.285205233714116380e-02,2.120914395205367523e-02
3.492864828915180631e-02,-3.311134977583226474e-02,-2.705318571252095282e-04
7.116137300432577063e-03,-3.634019469441388678e-02,1.965331080028204572e-02
-5.401185599539749804e-02,-2.243877997124207532e-02,-1.964944902637914131e-02
-7.839320256012791144e-02,6.387753607102786280e-02,1.756355158327407157e-02
2.852692008120129644e-02,-2.827078268062797189e-02,-2.244859688476800313e-02
3.978160179064396673e-02,-2.856614807050106980e-02,-1.640677993777623148e-02
-2.988797269979850957e-02,1.407825589779006237e-02,5.645186586446596100e-03
-3.720853117168720914e-02,2.940090229095913485e-02,-5.301169515782695046e-02
2.159772941355076262e-02,-1.452684500295518648e-02,-2.007866868970024574e-02
-7.658136115678551570e-02,-3.729575114420344978e-02,6.272343601859037276e-02
-4.418766546626977376e-02,-3.803139423098496341e-02,-3.819955589533403917e-02
7.480315355553790457e-02,4.448275900637560509e-02,2.554547832898281315e-02
3.790177446505665817e-03,-1.552743734122347813e-02,3.625940857918331234e-02
4.200651704843968298e-02,-7.826542348602855137e-02,5.652174882510459242e-02
8.735995376314503735e-02,4.291616624007759534e-02,-2.841528082206928874e-02
6.340154602922708216e-02,7.231684638654489738e-02,4.523887230697343220e-02
-5.821120017190096335e-02,1.960772235578308112e-02,3.378529354416908576e-02
5.922097995646222884e-03,3.609838344443764419e-02,2.277659462143551139e-02
-3.998568422587792798e-02,-5.899277644565892320e-02,-2.951309921715583942e-02
1.477234528638833762e-02,2.858169601583935085e-02,-1.775540594013365683e-02
-5.167330257860992815e-02,6.181211644940387551e-02,-3.054058419202107869e-02
-1.511157315114431895e-02,6.514999170312824224e-03,-6.511522710865583208e-02
-7.764161757984026566e-03,5.735032022260900392e-02,6.372740557989664545e-02
-4.205871844173624668e-02,6.288206483741784480e-02,5.458615831996677104e-02
3.718404781386486918e-02,4.527371623415107904e-02,-2.667505716321097453e-02
3.292364739713612987e-02,4.080895824239901687e-02,-5.250563528853487150e-02
3.918898338206565357e-02,-2.132229726380429138e-02,-5.742226281133048366e-02
-7.350167893243021722e-02,-6.777923624023268756e-02,4.818842270110976905e-02
6.484739823209220190e-03,-1.523402626500825266e-02,-2.251164085547613034e-02
-3.457905265820066659e-02,-3.620328850712264263e-02,-3.658459000193274580e-02
-4.566629806026201166e-02,1.019014939220487179e-02,9.087349962610227760e-02
-2.618726799919504633e-02,-2.451437294660880825e-02,-1.479374126980468294e-02
2.774732519488043100e-02,1.152528870850221127e-01,7.626808832700365803e-02
-2.101707262833175591e-02,-2.445251090332611552e-02,2.611112999989527450e-02
-5.088531721188775669e-02,-2.628547149807930472e-02,-1.422492242512230290e-02
3.823109965848682512e-02,3.338159153942624885e-02,-3.819693014773530709e-02
-8.306120269753206053e-03,3.848098464116414541e-02,4.569223225906784459e-03
5.163959189695499497e-02,3.605669078188249860e-02,7.744845828667124010e-02
-7.627555654372313552e-03,-1.069930684011863309e-02,2.850014161300771370e-02
-2.394389217267089975e-03,1.172818891426225946e-01,6.533676409542638064e-02
5.711085407061890565e-03,-6.622866525963531925e-02,3.871434397938762484e-02
-1.027668404003607462e-02,2.597692089382830968e-03,-7.724523344194883512e-02
-7.034590744853960048e-03,-4.974636769786417280e-04,3.194480543205266768e-03
2.311038980874558293e-03,1.301299724260276611e-02,4.323201887224936008e-02
-2.098848297601061189e-02,4.598712272995949396e-02,7.784713967622201858e-02
5.449751248342188381e-02,-3.657439252770016552e-02,4.725004971577996538e-02
2.912962075626432043e-02,3.505664075052376816e-02,1.676363177967176224e-02
-9.648406057273478491e-04,2.362971017223597717e-02,4.917740672090634840e-02
-5.586399793626639632e-02,-1.413430070573862794e-02,5.247333285885848880e-02
-5.290042442016486789e-03,7.098875992250947009e-02,2.162205641240406290e-02
-5.304483254767554390e-02,2.806009079794849828e-02,-3.501478844739039711e-03
1.688349765082468312e-02,-1.585592089116969264e-02,-4.177623737550940214e-02
-1.534989536849887086e-02,-9.801408711881739056e-04,4.216206511756123709e-02
2.401794259345116020e-02,3.706252262072117637e-02,-3.383055448685140520e-02
3.125539757900042820e-02,-2.206209718406750356e-02,2.121998994106479713e-02
5.431689390710640192e-02,-9.307995908694166251e-03,-5.055447157572433292e-02
3.798287288167397080e-02,-4.342770043689586634e-02,-7.509337043135624890e-02
-1.602708462424929162e-02,-7.436397381577403154e-02,5.557183678635473773e-02
-3.354173693683922680e-02,2.037785677836240206e-02,-6.278021153876507665e-02
9.436083548268891716e-03,-9.246537770027231373e-02,9.562848307428709060e-02
-3.078338489252035667e-02,1.099085147657161317e-02,-4.039669718781307983e-02
-3.600639822740481222e-02,2.025633338479001112e-03,-4.384634725836920877e-02
1.789902164892215319e-02,-4.995875123984661395e-03,-7.500879327545946496e-02
1.542264792280780526e-02,-5.517821892422746649e-02,5.183727948889993442e-02
-9.448930804442831274e-03,-1.451868481442160699e-02,1.123162792508125840e-01
4.319821005348984527e-02,2.732120087348604773e-02,2.726937911295617550e-02
2.624852566306392146e-02,4.230973081271372296e-03,-9.504361799823298970e-03
-2.853975930306181658e-02,-3.762665994051903051e-02,6.162789852865317025e-02
-7.023592281918419888e-02,3.905141029213988341e-02,-2.323271000932245270e-02
1.127613025779666128e-02,-7.549332205950869124e-02,-2.619618717342277192e-02
-2.637654241187203930e-02,8.898882388441270788e-03,-5.026764859907893040e-02
-5.783887667551630002e-03,-1.001288813803267314e-02,1.062270904033215252e-01
5.988467070920885232e-02,-1.364530794729552736e-02,1.243588852072103831e-02
-8.181941597458433635e-02,6.683241034449439316e-03,-1.834533408799877974e-02
4.844014710748248409e-02,-3.872344645834614740e-02,-6.801535261152549805e-02
-4.969313699351750324e-02,-2.104626449041632069e-03,1.558764218134416762e-02
6.491854712858344256e-02,-3.463385134060911752e-02,-1.451560516916102807e-02
-1.605006365923885995e-03,-4.393382069916409310e-02,7.125785562228191539e-02
-6.648662001704801205e-02,5.504366511402362938e-02,5.733117333119982367e-02
1.319651536357963235e-02,-5.359187103030141341e-02,-1.367592063638904849e-02
-5.277142528863927595e-02,-4.797382297861808170e-02,-4.671071173585730762e-02
1.313407340721070744e-02,3.578634250307670406e-02,-3.122893452241927784e-02
-3.783395754125969124e-02,-2.562813263949762638e-02,-6.256437114121521370e-02
8.642856095421765084e-03,6.909571548988609549e-03,5.454555282059336818e-02
-3.307546116989909264e-03,-9.430502834011451896e-02,-4.427037960920462284e-02
1.602190548048238461e-01,-2.476117340438115794e-02,2.121069108713509108e-02
-1.809576475053352104e-02,2.006742763408334322e-04,-3.646983202302620658e-02
1.645897435576065783e-03,1.155870956955488971e-02,2.078374165389870049e-02
-6.529482623957386100e-02,-5.400624038336887534e-02,-1.273207143920141414e-02
3.111256195038960767e-02,-7.559301406261777212e-02,-2.193710819813431481e-02
-3.621027751719536197e-02,-1.920890788051544604e-02,1.019212506431148857e-01
3.583461721829558910e-02,8.804791336260711643e-02,-6.753978796891689507e-02
-5.867473506902452958e-03,9.539760597408633580e-02,2.857422737613093608e-02
-5.124513060878988641e-02,7.502061425791899975e-03,3.985198990837768990e-02
-2.705992216078593679e-02,-6.047680791142777314e-04,-8.292584050499439419e-02
-5.921703126897290975e-02,1.117796548163415421e-02,7.676526848732057040e-02
1.401454385615570446e-02,2.469062146141383710e-02,5.041842474291193671e-02
-1.232494220328670710e-02,-2.621544064261642493e-02,-1.895926332995356151e-02
-3.338734671165700940e-02,2.173485027785142243e-02,-2.932803256225226252e-03
-4.920328576231211559e-02,-1.372727511886946000e-02,9.783656762018852482e-02
2.471585076109904938e-02,3.637583775120178248e-02,8.585731663437835143e-03
1.137771581612903420e-02,-5.977436414220414773e-02,-2.210935507198659444e-02
2.238911663296509064e-02,-5.466817407876790186e-02,-1.124907170097573343e-02
-2.225100705090764242e-03,3.195100384852186254e-02,4.803260112653594087e-03
1.189740407522204974e-01,-7.955645363076424559e-02,6.256675826935045870e-02
8.083704556498072166e-03,-3.870482774209548643e-02,8.095142247688208101e-03
4.933157077537531771e-02,6.948788065426311777e-02,-1.758946490973768012e-02
1.056126041843273231e-02,3.116606065996935519e-04,-2.968743839551668453e-03
-1.922037140474375239e-02,-3.435735083406139811e-02,2.144340579536347519e-02
1.900587215088995335e-02,-5.374436998515590841e-02,1.136604787586403256e-03
-2.587433304084963553e-02,3.380333130956723886e-02,-8.376782714013352935e-03
4.445283003014745271e-02,2.487992130466821009e-02,1.160401232733184948e-02
-9.040328612536440225e-03,-8.250012625528709009e-02,4.802530766342520685e-02
-1.955884802346868900e-02,1.606635519598907658e-02,-2.249974980709268726e-02
-4.641266342768314568e-02,4.165619322638819920e-03,-1.531945724565948914e-02
2.991018598864435274e-02,-2.525391871708855887e-02,6.813439585026019596e-02
1.227901485847500418e-02,4.404836782906158127e-02,5.790187394438423008e-02
-2.577644230983711787e-02,4.443084691859467555e-02,-1.520262679061405546e-02
-7.593184691273047182e-02,5.207139275262145928e-03,1.841977026040631307e-02
3.211261473952722878e-02,-5.317555726316925552e-02,-3.168898398229031549e-02
-2.675744846845755712e-02,3.494146125613345737e-03,9.466134980845022570e-03
-3.579971060023790647e-02,-6.530713902562475248e-02,-1.580332336409050187e-02
-1.413382364685259081e-02,-3.628269433278679540e-02,2.005986070508689739e-02
4.364158869290178829e-03,1.925952431202785503e-02,6.208246507099945966e-02
-4.627802762530799224e-02,-3.208545018665199741e-03,2.050750772519242815e-02
-8.422524866416486108e-03,8.029825151918700693e-03,1.005109560030772314e-02
1.317083513657555001e-02,-3.316586541841597124e-02,-1.285283102798553262e-02
1.095884718923255917e-02,3.596204409516784613e-03,-1.927279046872614962e-02
-1.359133250700360340e-02,3.121134598285793538e-02,2.217614820877781764e-02
-4.436058311630203949e-02,3.004025112251736823e-02,-4.939872074138099839e-03
-1.632498784927004926e-02,4.082223787226955253e-02,2.214194903224534633e-02
-3.919399376833729992e-02,-2.740441908854640563e-02,7.543071693882061335e-03
1.851160011974193470e-02,-1.026336308676567277e-01,1.578505129788925973e-02
6.375132360685546035e-03,6.304297369086640790e-02,3.521506385906211789e-02
-2.549096902245908021e-03,-4.809183904598562931e-02,-2.785103195596424618e-03
2.714583426844913161e-02,-3.640267347973758644e-02,1.746007094954172417e-02
1.808177440798363136e-02,-7.061605193282816280e-03,-1.350210763701021124e-02
-1.096338295894795124e-02,2.709899232981845610e-02,2.989714337314520153e-03
5.744821892761738449e-03,8.291073896735769166e-02,-1.384504027693126901e-02
-1.921634252564510120e-02,9.429821438220818697e-03,-4.323243929780665878e-02
3.160579457563374856e-02,2.786096650133328134e-02,-4.812336192675343953e-03
2.482212038907211787e-02,-4.425911670823841348e-02,-1.254834077066061026e-03
5.328636689828010475e-02,1.654945176968805262e-02,-1.261412562398843765e-02
1.330876798745091877e-02,-9.990650977156716878e-03,2.930494577829961464e-02
-6.642494769847923086e-02,4.873824147800509543e-02,1.813881455638652676e-02
3.670620807457208867e-02,-4.230460689520961284e-03,-5.948163036972041462e-02
-1.245429238929057422e-02,3.071364573446111815e-02,-5.015431420024643594e-02
1.302787864444908232e-02,1.417146229830302390e-02,-2.341333266918841152e-02
1.121545857041963620e-02,2.121360319408836792e-02,1.963914698276188545e-02
-1.604853241960640248e-02,5.331180081599694309e-02,5.842262734763366272e-02
7.975691575331688571e-03,6.138279428668596410e-02,-6.538956244844696016e-04
1.554954325355303868e-02,3.443220728773822847e-02,3.170921355438720279e-02
5.893254821318860692e-02,-4.097133377136179255e-02,-4.026954163722442498e-02
-5.815292434953040282e-03,1.726689427174910377e-02,-1.531821543982608835e-02
-4.279429538872601274e-02,2.036983287217469796e-02,4.319829444601570173e-02
-3.050808453770969923e-03,2.394620408121470728e-02,3.070260414251404710e-02
3.068189104839577977e-02,-1.427506894993287208e-02,-9.865323849939131723e-03
-8.098555314436020613e-02,9.396684857930074838e-03,-2.829305044284623899e-02
-1.281312108823331325e-02,-8.526039245043507200e-03,-2.086889271627380762e-02
-7.861361673388100879e-02,-2.141142982445036307e-03,4.812312765043065370e-03
2.271297133703829504e-02,2.051374364722674884e-02,7.225807354712299180e-02
-8.279759471495293233e-02,-1.744638328389972945e-02,1.423945802609944029e-02
8.091528522908641996e-02,-8.949850636365415738e-03,-2.287310361572063994e-02
-5.136043620451938296e-02,2.900915065996157935e-02,-1.352200314540347517e-02
-2.936433803779819884e-02,7.446943210688573844e-02,4.483582251183883260e-02
2.030803544632924992e-02,-2.650558938867252079e-02,-4.387853118440836891e-02
6.534924161127937670e-02,6.064746290658720035e-02,3.153789049756106772e-02
1.385477680175274673e-02,-7.387402103664540004e-03,2.274341580519651310e-02
-4.621838991672234942e-02,3.156802855928185492e-02,6.406704308540263348e-02
-5.531575142052159262e-04,-6.977265264790576127e-02,-3.673768321122754255e-02
-7.634673744293277164e-02,-1.787352376604780038e-02,9.953015689572734803e-02
-9.112822344600585503e-03,4.204662968140908397e-02,7.227547724118871600e-03
2.143422933695107030e-02,-5.022944708384052132e-02,-4.846260682441541449e-03
1.986538502633575232e-02,3.286895524312500455e-02,-5.579428817241743888e-02
2.730116008579190970e-02,2.334733694944925511e-02,-1.009537228242385620e-01
-9.019740406357152837e-03,-4.239248489786621998e-02,1.926160151339994728e-02
4.674633825468363368e-02,6.374809071116037396e-02,-2.574728265772376068e-02
2.832352302912094846e-02,5.194405421014235830e-02,-5.912078848164598055e-02
-2.070190596473791070e-02,-2.397476900011723602e-02,3.633764606869645253e-02
2.367982991107575944e-02,-2.076781491643535371e-02,-2.289068415221063267e-03
4.974941116588024043e-02,-1.382656560866430545e-02,2.474091096061773604e-02
-2.149493526868301654e-02,7.563851005390433667e-03,-7.571569214866148700e-02
-5.977109540280990674e-02,-6.628965501406025584e-02,7.537495584031708717e-02
3.854865875002514309e-03,-1.013578631729152579e-01,2.612811950788081899e-02
-2.738723773329499941e-02,-4.447589378073155304e-03,1.461495030318117616e-02
-5.428643261082621158e-02,2.358163406469492018e-02,-2.166798532693094484e-02
3.558982513725165997e-02,3.946697369593134969e-02,-2.756661186504320155e-02
-4.436177277013604592e-02,-4.031485551740295612e-04,-5.133806984456916467e-02
1.237732407486678149e-02,-6.990987292723181701e-02,-4.574678660152725618e-02
6.510557816000026032e-02,3.882760229488030432e-03,-4.241366754985057702e-05
-1.626133846419483206e-02,-4.666493664940226521e-02,-8.085818291250664036e-03
-6.098034944666676921e-02,-4.282297710458152218e-02,-6.563187126228003931e-02
2.623285065360831531e-02,7.252516512581909380e-02,-1.566371830219660463e-02
-4.223433315571106794e-02,1.340197511444576189e-02,5.135197087473603039e-02
-6.878344936987411395e-02,-2.759155259047206890e-02,1.753057841968594030e-02
-3.187304491144849622e-02,4.210164035711936453e-02,-3.194597654620873889e-02
1.678747896384652841e-02,3.102671482456852495e-02,-5.901261871234372847e-02
4.320960199433455939e-02,-6.671875576306603162e-02,5.578834510291611620e-02
3.247404634875336593e-02,-2.276780980852039643e-02,-2.189736042892566955e-03
-1.733733553488712997e-02,1.212295030614426831e-02,4.501311706467848333e-04
4.217567283173136866e-02,-3.315160199657646301e-02,4.467318590223179342e-02
-1.402852949144332145e-02,2.431247744232558489e-02,1.234919550230120094e-02
2.347955624343566958e-02,3.221805813002762836e-02,-3.581362615235495622e-03
-1.574240176014779502e-02,-4.435721449509979347e-02,4.753289021496497069e-02
-7.641266343863582430e-03,2.461273902546727912e-02,3.305218590558024055e-02
-1.861860673970338817e-02,3.337116055042887997e-03,1.907490539751998185e-02
-3.845129809833672946e-02,-4.332026345807943324e-02,4.609674318647345032e-02
2.858880538002998850e-02,-7.601493477754484029e-02,-5.233044974802058408e-02
-2.161466084948266211e-02,-8.103852155879016916e-02,8.475503603792131080e-02
-1.378308033600242691e-02,4.516335047934788571e-02,-8.111766719753428154e-03
-3.554980718253626659e-02,-6.650342584528418088e-02,4.341972463941813631e-02
-9.648038363597978562e-02,-4.212084016621314708e-02,-4.429100809182535958e-02
6.410123313030947727e-03,4.519290125935736951e-02,2.536973859206025778e-02
-1.399358544299003984e-02,-1.773018908431339344e-02,-2.579097889035553148e-02
-2.578139858547214003e-02,-1.629169626198779738e-02,3.298560014189472200e-02
7.241247498443947710e-03,-3.799104538760480348e-02,-5.060159758856155876e-02
1.719765616713400669e-02,-1.433475294644205068e-02,3.891334611631138557e-02
1.771861816613566620e-02,1.495229094435443669e-03,2.356199432760219467e-02
-2.214110909200944603e-03,8.546940644404127374e-02,1.207022059920887826e-02
-8.448203870122900083e-02,7.501990580749301994e-03,-1.629028461614836663e-03
3.555865735597735222e-02,-3.159184776816060473e-03,3.585586352377131969e-02
-5.929267878992375285e-02,-2.121587732027880799e-02,3.887384285644797377e-02
-5.242784954086797747e-03,3.079614018382171789e-02,5.213119167931293436e-03
8.384038166265404129e-03,8.514235213625844650e-03,-4.123030558493494951e-02
-1.777539260140657482e-02,-5.471214907636307023e-02,-6.091046420691310220e-02
1.652352553075947875e-02,1.672888004363356010e-02,6.278366408258928555e-02
2.546974001205519131e-02,-4.289850722038164588e-02,2.709855690095192698e-02
5.305641743245079894e-02,-2.083793595945648749e-03,-6.388720396750356689e-02
-6.446881778268213903e-02,3.017018057877448450e-02,3.292509049340600069e-02
8.131600547888093514e-03,-6.882666339727197720e-03,5.099608064104749205e-02
-1.758279307128425908e-02,-3.145142418434743181e-02,7.553113990597201677e-02
-1.688585884979749985e-02,1.973995684527444366e-02,4.897950142999670659e-02
-3.971303321241593381e-02,-1.770868754015966079e-02,-1.936349116981333227e-03
1.024181594756810032e-01,1.090486408100448286e-02,-3.009237386400937311e-02
8.563870322392429235e-02,1.724982672776639164e-02,1.207138512210279881e-02
-3.643619744688092726e-03,9.208279675876655194e-04,1.268775796019652735e-02
9.255535501886701100e-03,8.330826181593980681e-03,-7.402469451954117423e-03
-5.751374817188745561e-03,1.915547269843899392e-02,-2.362455504972404280e-02
-2.374269396082483163e-02,8.647836535985987255e-03,6.940617344987824733e-02
9.789234776086641610e-02,1.122896806912880010e-03,1.239445972193552268e-03
4.432525660761892777e-02,1.974129762505349474e-04,5.541055248981446163e-03
2.699146330260017435e-02,2.856631822034489884e-02,3.891695786396954636e-03
1.516035912119213097e-02,5.108761721703185960e-02,2.536930340348263896e-02
5.312648457414832770e-02,-1.557085431253630095e-02,-4.341207606621681064e-02
8.205603512698199375e-02,2.791388962332120097e-02,1.138966963999771438e-03
4.196258046330787750e-02,-1.192370129275170101e-03,5.771423771151788784e-02
5.130875823567158239e-02,-5.842841055150901908e-02,4.817851386598850927e-02
4.085650007988699678e-02,1.555141219155255217e-02,2.743778614494648410e-02
-2.843888012469804674e-02,-6.406276250163414621e-02,2.788044330709695678e-02
-2.759916571075615027e-02,-3.219941708026892446e-02,-2.286370911955259641e-02
-4.810039664684965383e-03,-8.692499614728350487e-04,2.453131891204060264e-02
-1.830570258115191140e-02,2.624123630260129583e-02,-8.829230055768431951e-02
5.175339394054585991e-03,-1.125343696216067092e-02,-7.995555218804993591e-02
-4.097430271911115668e-02,2.415009340750901359e-02,2.237539035497291065e-02
-4.819409271469361072e-02,3.959655628544608147e-02,-1.228082156201192390e-02
-1.664883604695819100e-02,2.456698656619355284e-02,-2.274017351421296629e-02
-6.582444430422048492e-03,3.951516482920207048e-04,7.265016478301031602e-03
2.412299588566196775e-03,-3.513841750639971895e-02,1.695332007568765495e-02
9.751713784041863078e-03,2.096381006157395713e-02,2.321078155013584984e-02
4.055784671845791278e-02,-1.708662875695369371e-02,-1.076152193304443297e-02
-9.829686806014151495e-04,-3.514962024956844178e-02,-4.609252183050429469e-02
2.670569106088144587e-02,-1.539672324716995395e-02,-4.296876187595318440e-03
3.997640725804332829e-02,2.686673491399077171e-02,3.447831825609045525e-02
-5.462937987939694637e-03,-1.317620156342423111e-02,4.645387297306366459e-02
5.561257621385882338e-02,1.436224772091400370e-02,3.938274011202450020e-02
-2.560502189706394954e-02,3.400134984296632884e-02,-4.622083837614176377e-02
3.557373130249487370e-02,-7.710708377144087633e-02,-1.903745662367480398e-02
7.517632807591283217e-02,-5.773992652027629818e-02,6.056243500419003500e-02
3.854614981918432631e-02,-3.400479012975419352e-02,6.992015751307439908e-02
-2.979756246593706984e-02,-2.705154427798069777e-02,4.138454702297147264e-02
-3.547587741561629426e-02,-4.452675213966201216e-03,-1.060761965765039984e-02
-6.547945261952380080e-02,5.850965613957134770e-02,7.362108123190370945e-02
-5.608887767728457791e-02,-5.948634077880311094e-03,-1.756819095045743240e-02
1.015719503669076373e-01,-4.574768067450483283e-02,7.685976889369608954e-03
-8.332093341393320349e-03,-2.742167305137042585e-02,5.827527933507607033e-02
-1.897903873458449409e-02,-9.902055831189072316e-03,-3.853497898650126013e-02
1.799247304309684048e-02,5.524540360869981126e-02,4.807708523603588385e-02
2.675960905111708990e-02,-4.892744219612431625e-03,-3.706186685598612807e-02
3.399324244153762581e-02,-1.130109113275426340e-02,4.413792812928023918e-02
1.528078285619853191e-02,3.931384324965770533e-02,3.079070278419381024e-02
2.372172819438635519e-02,1.135755660904561211e-02,-2.510480701441510434e-02
4.061311084471284916e-02,-1.710296971129877594e-02,-3.647591838061394615e-02
2.292648914760357995e-02,-1.067423201297454036e-02,-1.383061466772822663e-02
1.784303757111092154e-02,6.210395152637783120e-03,-2.157083556804968716e-02
2.938939837068063263e-02,-4.183046059696274993e-02,-3.019587000992199344e-02
1.706025847707295234e-02,4.314172867567616504e-02,-4.957166677889979223e-02
-2.022748437171774730e-02,5.953766946573527813e-02,-2.397300646502311186e-02
1.405765477044387812e-02,2.397795276421917782e-02,6.204145883043803329e-03
-1.207702659162106576e-03,-2.836657081482376816e-02,7.626657275303109530e-03
5.782622646568561647e-02,4.989898949032225278e-02,-6.817321570352264000e-03
6.041335314087313557e-03,1.626452068695094164e-02,-8.871989821641277849e-03
-1.524115709758459315e-02,-1.024558269311832970e-01,5.971481809526036494e-02
9.032959160738889340e-03,3.518526256129165392e-02,-4.986452270239629878e-03
-3.081063794045403245e-02,-1.293754633784774486e-03,2.478192250841751779e-02
1.564295252801534489e-02,-4.763712714724963049e-02,3.883336294567123897e-02
2.654203507804118317e-02,-2.605795124109591687e-02,-7.793545634735697669e-02
-1.442899598599940865e-04,4.313305123790684217e-03,1.363153748812090914e-02
2.664765306814850104e-02,-1.164010353374785901e-02,2.927108501130882764e-02
9.000391965747795917e-03,5.091834415596419028e-02,3.137287715229600260e-02
3.194200570712544401e-02,-1.267382546333454575e-02,-1.980255319887515991e-02
1.010059791171997179e-01,5.507845168742062786e-03,2.579445333961562573e-02
4.247617541455637677e-03,1.291119415122059071e-02,-1.621495118696419241e-02
3.765891345211285629e-02,-9.865722946232792501e-02,1.763801346591829453e-02
5.441191292390124001e-02,4.992837939112196310e-02,7.858430231275413333e-03
4.831840747323735280e-02,7.859604968538927428e-02,3.935982495400805643e-03
-6.814677404837595626e-03,-4.777304101652835727e-02,1.540475565146884503e-02
2.285415823286683634e-02,-5.579616269776586923e-02,1.261411870778624336e-02
2.300458173835584139e-02,-3.270092882820219843e-02,3.004193396599132149e-02
5.671845416231488524e-02,9.324318905468366794e-03,-6.514495604248362638e-03
1.157471328013516196e-02,-1.867465450147441685e-04,-7.895826402375316633e-02
-8.919997324699120711e-02,1.013765250340011546e-02,-2.933888212756725206e-02
6.961105811191653503e-02,8.101794581500908893e-03,-3.484633419316509467e-02
1.276486464002636947e-02,-2.653527877038577149e-02,5.185935990039467966e-03
-3.651675230005794852e-03,-6.550400012978133124e-02,5.222300447076477087e-02
-4.666986136088868697e-02,1.774077099845341662e-02,2.835146373049342913e-03
-1.371830939963796132e-02,-5.867869894264843289e-02,-5.826522442172764327e-02
1.366435018831553203e-02,6.331253849265636169e-02,6.842108567088482640e-02
4.892751094088242797e-02,1.139754271560240902e-02,-3.198875363501112873e-02
8.505391725867712457e-03,3.883511315312020151e-02,-3.409815054913769433e-02
2.198881704836853218e-02,1.205402145192693755e-03,-5.967640762373738542e-03
5.773773947968180442e-02,-4.942735255964293695e-02,8.642294014885068890e-03
-1.539783682589788982e-02,4.787445172915284937e-03,2.610814794275229805e-02
6.312895262328076240e-02,7.829984706639037118e-03,-3.483833061442468543e-02
2.710591044103901476e-02,7.358857302657603738e-02,3.261894415789133583e-02
4.578183471378050734e-02,-3.238003647066094171e-02,8.985829529978316133e-02
2.587229543571174448e-02,-7.797812557745739670e-02,-1.052184506992194166e-02
-3.598236120269757837e-02,8.729945519908914597e-02,-2.694247691434252523e-02
-8.619087436591631873e-03,3.463845879312263312e-03,-5.581554020463827537e-02
-2.761202652394208895e-02,2.025644160507460243e-03,5.317838601282378480e-02
3.033551612976325210e-02,1.107770337033403378e-02,1.193650189122549832e-02
-6.876763345528627558e-02,-3.491109124754426807e-02,1.196668291107105125e-02
5.815307004897964788e-02,1.852643739775659479e-02,-3.376184069607008481e-02
-1.442706157440584551e-02,4.453049466470359458e-02,5.203386639713781375e-02
7.689787507631945518e-02,-7.667889674036703837e-03,-6.384504829169769351e-03
-5.986482701209907414e-03,-4.956509025685743725e-02,-4.260898457302949791e-03
-3.716471567028461782e-03,7.247110898937923762e-02,-3.138483880689329347e-02
-1.469889088284251268e-03,4.674907646345629469e-02,2.027542106328067417e-02
1.251609232837553806e-02,-5.447261333396131999e-02,-1.591835838370807830e-05
-5.326315026010582793e-02,-3.187832552155923926e-02,6.499408642412200787e-02
3.613957825488036540e-02,1.886400690620807169e-03,5.041312397522564048e-02
2.246989686199089148e-02,4.705450535139932278e-02,6.487870359103634077e-02
3.765398406824808919e-02,-2.558031301842587230e-02,-6.443978252145303454e-02
1.094910122080872648e-02,-1.356691008453699693e-02,4.094766452105230714e-02
1.518923125182873764e-02,4.380442608536524139e-03,-5.616868302977484802e-03
3.125066710700515060e-02,1.834760411261043486e-02,-7.524215349772313439e-03
-1.951819535996503208e-02,4.122148057840117896e-02,-7.862587129356714277e-02
-1.075665713385380931e-02,3.410307004556335092e-02,2.734788338442848549e-03
-2.137226919368046679e-02,9.635345397166162826e-03,4.720130345828619373e-02
-2.956010470872151574e-02,1.773681387713845967e-02,2.064795076723278597e-02
-2.885525006715764645e-02,2.262262861793867472e-02,-1.295143417735977222e-03
-4.272564874858054279e-02,-5.332608372234807180e-03,2.681521237106548883e-02
7.669696421150445920e-02,-4.077960606863464260e-02,4.160145520881258774e-02
-5.782626805426405170e-02,2.381392846573750222e-02,-2.932769761149532639e-02
-3.252559514908162901e-03,-2.021311786473225028e-02,3.174316789420437296e-02
-3.567205725244619596e-02,6.949137407070581085e-02,6.003625723623901012e-02
7.841266040392176964e-03,-4.351920814562811046e-02,6.007752201549032122e-04
-1.935790366878531801e-02,3.076813232991088345e-02,2.961817392559927889e-02
1.637862242372604624e-02,-1.385014955802745668e-02,5.502307726258050952e-02
2.140700727098316866e-02,7.590473658747608904e-03,5.358530415295803540e-02
1.392126409507095028e-02,-8.197974846950277505e-02,-2.681925872688359011e-02
7.216716814789213286e-02,4.100931463479538103e-02,-1.768589293092628564e-02
-7.259655598515726838e-02,-2.054960051686758465e-02,3.118964104585765507e-02
-3.285274393913142910e-02,1.553983360599574433e-02,6.307183460458692936e-02
-3.456392872933704025e-03,-3.119140040990500684e-02,-1.230459182593336698e-02
3.998331240048378504e-02,1.542338255795708789e-02,3.430480089735831600e-02
-2.094133904180703332e-02,-4.188461513959278182e-02,3.961010596967137060e-02
-3.583209646755342037e-02,3.377958023650221714e-02,-9.951124205968345238e-03
-4.708710405658935588e-02,-5.486488314913859354e-02,9.218481415954882241e-02
-1.360104858853680709e-02,1.093311225588404767e-01,-1.159199688107866687e-02
7.504910005615378875e-03,8.100210314794287908e-03,-4.153179345243396964e-02
-8.882056838518283606e-03,2.536873520199662765e-02,-1.233440968629108229e-02
3.458933544001291382e-02,-2.436579271826172510e-02,1.774893974325804369e-02
-1.138987072720502088e-03,-1.430961075498548424e-02,-7.572376334934659455e-03
5.968888897861733198e-03,1.098857053827183121e-02,-1.760554819444964947e-02
-1.001020986805090801e-01,-6.882943057945058174e-02,3.011578747049444699e-02
-2.775844978157350484e-02,5.851156150580395787e-02,2.472937927795877677e-02
9.640357813013845922e-02,-8.150499345050483957e-02,2.473501418311876282e-02
-3.452915684517132711e-02,-6.709009004761949668e-02,3.229104404990715965e-02
-1.565784236656579675e-02,7.998389413098547229e-02,-1.612256527310502660e-02
1.288367159641052306e-01,7.341701720543447607e-02,1.385273628934775370e-03
-8.593797010170210748e-02,-2.744569828478039472e-02,7.226426509746203264e-02
-1.213949768431185974e-02,1.411714387209059632e-02,-4.573590250273297519e-02
-4.801870917325784527e-02,-1.261617783326386862e-02,-3.660311506299349094e-02
-1.937655861021975873e-02,-2.187242385151979412e-02,-3.279241555285702242e-02
7.616903298371262288e-02,-1.049754384533170271e-01,-1.405212754795697599e-03
3.528686600664875800e-02,2.797357367757394731e-03,-3.334759834282783990e-03
-6.646889060990915366e-02,-1.175310230820139808e-02,2.735864800559600560e-02
8.136204002888205999e-02,2.961851743632658990e-02,-6.497976133544752439e-03
2.637312266297491339e-02,5.997230787254210355e-02,-2.136710656193482535e-02
2.490259664474355622e-02,-4.462329104286298469e-03,3.073382505779181581e-02
-2.321716665926770382e-02,-1.168329363267722916e-02,3.100154068929994108e-02
1.124779014954097565e-02,2.789744458681556530e-02,4.058175567699910669e-02
-3.547651297745439691e-02,5.726068571045080796e-02,3.613492264808686530e-03
1.981720429526713512e-02,7.706661415620413152e-03,1.562264304399601372e-02
2.626388926145196978e-02,1.781106446798166876e-02,1.589676434927595958e-02
5.060349381672542973e-02,3.711228214770138228e-02,7.120686797438918747e-02
1.100541235394063011e-01,-4.864258870961450654e-02,-4.680112828203430476e-03
1.798636092715211188e-02,-8.149396379920821609e-02,-5.971930969109921772e-02
4.746185090331346557e-02,-2.428940394397397298e-02,-5.859258533614652466e-03
-1.563815138059638371e-02,-3.290748026269463191e-03,5.039912756596131790e-03
1.482932817558919349e-02,5.530084576475536445e-02,-4.056765158928597043e-02
2.771326851963071616e-02,1.732367881304830159e-01,-3.082243506996418508e-03
4.124040073427277797e-02,3.100040106032162998e-02,8.322998439428490325e-02
5.389812427290660568e-02,-3.464550405024366397e-02,8.087707191563253684e-02
5.083273103353904560e-02,-7.985219806666365994e-02,1.435337043831427795e-02
4.069980034237294375e-02,2.836176632454143892e-02,6.339955750321059347e-02
4.092976939701859634e-02,-1.221146678220733431e-02,-5.757918299635967838e-03
-5.968900854817658919e-02,-7.100916857626868306e-02,-4.461330745226611653e-03
-3.187296035107148318e-02,5.562116753877299064e-02,-2.955093978977069158e-02
1.108413078519531782e-02,-2.851581222390841414e-02,6.233582325654066225e-02
3.755672547883100176e-02,-6.400373178739554580e-02,4.657079661648317465e-02
2.044806898849533747e-02,1.317875316121029650e-02,-1.112077634410045118e-01
-2.030851502137507800e-02,4.644152862618418365e-02,9.200454336112348294e-03
-6.524970773108136612e-02,1.818818019759335311e-02,1.570046322131713259e-02
1.380321656383449828e-02,-9.974993302848931404e-03,1.849841614665299547e-02
1.248688733114181049e-02,-4.739711692478478650e-02,9.961626412857565310e-03
3.188844219530387325e-02,1.421156526706284125e-02,-4.987928658195043587e-03
1.066965921679265475e-02,-1.682825889802554153e-02,7.716124549933230103e-02
-2.818934782582821832e-02,4.686789502629382098e-02,7.206490273407264134e-03
-1.725302928604425037e-02,-8.553625501064315503e-03,-1.027298012637294262e-02
-2.791887171403322973e-02,2.139855150423988772e-02,-3.150962329877601137e-02
-1.374029279782277430e-02,-7.380479611214710474e-03,3.802796131921821338e-02
-2.692257424481999447e-03,-9.623659025138206957e-04,-5.190181897934396937e-02
-1.212169765806819094e-01,-1.146697084324811364e-02,3.786924036290550272e-02
-1.737384461704690256e-02,1.949543992030011372e-02,3.781256335515655043e-02
-4.397597507475883849e-02,4.108875218773400118e-02,-6.723244208697477450e-03
-1.242293945490183932e-02,3.784162932546494829e-02,-2.490969932233351794e-02
-9.173727958110285130e-03,-7.767292734842217751e-03,-2.343444873946846571e-02
-3.457370418140427726e-02,9.778149407259904835e-02,2.135585315091191594e-02
-1.899064642977544085e-02,4.263877029609153962e-02,-9.094758740938631292e-03
