accel_x (m/s^2),accel_y (m/s^2),accel_z (m/s^2)
1.078207413666848957e+01,9.874437192645187100e-02,9.482577383461322784e-02
1.077601708384468182e+01,1.008430330470194425e-01,9.941784896402727778e-02
1.078222857264265500e+01,9.767994353168624189e-02,1.001171874823641311e-01
1.078088867869342415e+01,9.874349727226990059e-02,9.754835976397997765e-02
1.076664228205589069e+01,1.046309332050076868e-01,1.055963452388836848e-01
1.077164774112600121e+01,9.277771080852238728e-02,9.887717933645415180e-02
1.077876226152030625e+01,9.835784669196376284e-02,1.006382974141874082e-01
1.077349031493767129e+01,1.020341920560110249e-01,9.888362150735217904e-02
1.077222070398269871e+01,9.522087786157228118e-02,9.964684645919426320e-02
1.078109432000842105e+01,1.029758763700922564e-01,9.190620238676056042e-02
1.077464663638261833e+01,1.026568697316564832e-01,1.022595476018116623e-01
1.077753692005847164e+01,1.014208124887489293e-01,9.936857916623720310e-02
1.078101120143340275e+01,9.811594249717721372e-02,9.633801951717627099e-02
1.078768755584772165e+01,9.331986418241099146e-02,1.016167913879388734e-01
1.076878307333266527e+01,9.858995653752662680e-02,1.021005833821472392e-01
1.076869998862969524e+01,9.739540997679604906e-02,9.151642706943463601e-02
1.077463748983369740e+01,9.805003777590814984e-02,1.040583016148188683e-01
1.077493197397933145e+01,9.278665885519446488e-02,9.602008469956929693e-02
1.077549258462991233e+01,1.012167615946612392e-01,1.006924532617930607e-01
1.077402696388514336e+01,9.851283166033830696e-02,9.916689687784331630e-02
1.077540513505573294e+01,9.609911386079150741e-02,8.857526699966386530e-02
1.077626899203581701e+01,9.406742759406720722e-02,1.067541432215322328e-01
1.077141937765467361e+01,8.768055523261861217e-02,1.042540439359382204e-01
1.076923390714142492e+01,1.051641202103935357e-01,9.949849869455464069e-02
1.077844830861570813e+01,9.535278711355978098e-02,9.263649901514987850e-02
1.077351401749074178e+01,9.340034284742407267e-02,9.522990399385265758e-02
1.077240149012076209e+01,9.002595354979475717e-02,9.922443649903242568e-02
1.078361547497618034e+01,1.021224321636849258e-01,1.009008027821006598e-01
1.076896011736505976e+01,1.082829334508872698e-01,9.935879520862991865e-02
1.078159175778261414e+01,1.015513479125554619e-01,1.025445743001046767e-01
1.076570818078151426e+01,9.219525242356053918e-02,1.011166153449005040e-01
1.077320515943750934e+01,9.656018468767968432e-02,9.798342428061040943e-02
1.077664682302301458e+01,9.285046498880465682e-02,1.010099205376643328e-01
1.077722831740925180e+01,9.394804478434953809e-02,9.438694181227530455e-02
1.078092892007118131e+01,9.784784684005283506e-02,1.012406478007352173e-01
1.077730896227180679e+01,9.368252223122930378e-02,9.726489468480925549e-02
1.077222977585773123e+01,1.061721451438806113e-01,9.936371576758219748e-02
1.077198207023425525e+01,9.656494259387979340e-02,9.872294089093415492e-02
1.077952453832922330e+01,1.074455941460403657e-01,9.492557768428741549e-02
1.077860773209486389e+01,1.012389115733457190e-01,9.964887762863602894e-02
1.078131998215710752e+01,1.022631162859722748e-01,9.093275446399051720e-02
1.077031123430213277e+01,1.014380053347623267e-01,9.015733776963752444e-02
1.077748491768117844e+01,9.316464019895964732e-02,9.258604556434636701e-02
1.077917318911171307e+01,9.702554655748482637e-02,1.073118092711691091e-01
1.077684916032092133e+01,9.597063595300306393e-02,9.749718554710207208e-02
1.077598632252092337e+01,1.013117692080928445e-01,1.108224990362586537e-01
1.077658851787051830e+01,9.919635003826848818e-02,1.081815388313102505e-01
1.077947232155696788e+01,9.548652609887234299e-02,1.010780662150657094e-01
1.077879288166099769e+01,1.087539382559859769e-01,1.004170674758735060e-01
1.077664016985668027e+01,1.063705618536733288e-01,9.588629031953184445e-02
1.077724224929907848e+01,1.101653485204094202e-01,9.316669250692993787e-02
1.077495396115158677e+01,9.494022564377235796e-02,9.669857127253304874e-02
1.077231919967994145e+01,9.744795120770441410e-02,9.534569243830923191e-02
1.076536391809075255e+01,9.780896357645045558e-02,9.295422937779285188e-02
1.076995621096322431e+01,9.523646612074429529e-02,1.053108565916354017e-01
1.077099116868779660e+01,1.008559734058607771e-01,1.023988309331227697e-01
1.077374275233210632e+01,9.298670564035482755e-02,9.505873432856883076e-02
1.077772999282324662e+01,8.755495554099482214e-02,9.399992483669411536e-02
1.077248941799058457e+01,1.032664332266362145e-01,9.916182349816235475e-02
1.077285204695700749e+01,1.066056386111601806e-01,9.438426090724094664e-02
1.077434280781186615e+01,1.080097044183474103e-01,1.012330024004562540e-01
1.077039882368809565e+01,9.220117787168055634e-02,1.052509555901761096e-01
1.078005332349685830e+01,1.003270876007389539e-01,1.054649026920826405e-01
1.077288915013369142e+01,9.453320876074006174e-02,1.110671197303353952e-01
1.076380725841815433e+01,8.933697086006102406e-02,1.047407032636872015e-01
1.077085766301132352e+01,9.836211830615107510e-02,9.519080690070978734e-02
1.078148743554591604e+01,9.869933157476400154e-02,9.821836956558091525e-02
1.077836852096205078e+01,9.285960485036919010e-02,1.007422786840134754e-01
1.077142214899373407e+01,9.933359968287110153e-02,8.732493257566598110e-02
1.077872661222528627e+01,9.449706267763265111e-02,1.014019063419744765e-01
1.076727270677676707e+01,9.180991246813349771e-02,9.447543668904138936e-02
1.078052611937230942e+01,1.081820012959078675e-01,9.313290837325580163e-02
1.077092163641201950e+01,9.285653613232543180e-02,9.776765434528225662e-02
1.077845053980197676e+01,1.004812875250095522e-01,9.825391542011198409e-02
1.076847511357279252e+01,9.301764530765109507e-02,1.018226977765425839e-01
1.077395919867529983e+01,9.203210211158829868e-02,1.007168826395190425e-01
1.077469890826463228e+01,1.009414941683483974e-01,9.517561218187763072e-02
1.077495415029235382e+01,9.663121932271363790e-02,9.710453678906769137e-02
1.076740873949615995e+01,9.688371670273511482e-02,9.827027097909510345e-02
1.077428230014785626e+01,1.053294862414751037e-01,9.650611344666702729e-02
1.076792278774030009e+01,1.071252693310707771e-01,9.989857172973384825e-02
1.077709331915569813e+01,9.088965801040828352e-02,9.352903335955466135e-02
1.078063832026861668e+01,9.848633831453326715e-02,9.821440079978223381e-02
1.076653275912748597e+01,8.842920897441269856e-02,9.430066772685592735e-02
1.078538286652440448e+01,1.006246296248500260e-01,1.058375296448845204e-01
1.077555668956666857e+01,9.443449120115279816e-02,9.837350618387145917e-02
1.077709427250383101e+01,1.029612144412669489e-01,9.091037311859889725e-02
1.078103790263387651e+01,9.507305344526108259e-02,9.786843283960618145e-02
1.077922317438757105e+01,1.067749187603483779e-01,9.959819513338816210e-02
1.077983052504640860e+01,9.682774030883592453e-02,9.197895117276186361e-02
1.077413913789527733e+01,9.648527163335678114e-02,1.046709471901485222e-01
1.077528990430781697e+01,1.017198440245520169e-01,8.745466484784952810e-02
1.077827700377287279e+01,9.701009139609034770e-02,9.412914230698726792e-02
1.076743298640995938e+01,9.623783233138626103e-02,9.882797561913000961e-02
1.077010548917293953e+01,1.008088573229740659e-01,1.067353340716837157e-01
1.077481218721113088e+01,9.342726296494816007e-02,9.596226340094958507e-02
1.077073421379111018e+01,1.059638907969868982e-01,1.005367487906913965e-01
1.078040010759186274e+01,9.206317885214711227e-02,9.257509677333930487e-02
1.077389274854639822e+01,1.014765969415576397e-01,9.963665367740572043e-02
1.077875303400874607e+01,9.245640049716362385e-02,9.849222520771394596e-02
1.077463767141720474e+01,9.810938469270003015e-02,1.043845296553210095e-01
1.077674211297386364e+01,9.852761381921468220e-02,9.891308914094222582e-02
1.077120769637769016e+01,9.985901235316003988e-02,9.972625356505315786e-02
1.076784271326934928e+01,1.038420292555178176e-01,8.842400736853073262e-02
1.077375197375724092e+01,9.320016019548771347e-02,9.282301296578761296e-02
1.077307323990030241e+01,9.231770398581311265e-02,9.240209018679450270e-02
1.077392967366014354e+01,1.038167545728199692e-01,9.373022322032383002e-02
1.077499019473131270e+01,9.795801565965467361e-02,8.534145574794355094e-02
1.078421209960696991e+01,1.062234570414172657e-01,1.006209012059112867e-01
1.077000797803738763e+01,8.811613550663273398e-02,8.480118993583077303e-02
1.077271213563172125e+01,9.509813819807062807e-02,9.955664663881336196e-02
1.077579926477773142e+01,1.028446887798126763e-01,9.585738809257743354e-02
1.077556545824407230e+01,1.014554992427568053e-01,9.077680784883879195e-02
1.077953188503575888e+01,9.768655895250402676e-02,9.417686536565458844e-02
1.077549861690714117e+01,1.009660458788033122e-01,9.845446554698442099e-02
1.077533474154449422e+01,8.833505191059097539e-02,1.001082553198995723e-01
1.078088108940315237e+01,1.049768764041872637e-01,1.037767393768728591e-01
1.077599429076896698e+01,1.010490745911037519e-01,1.075591006251426229e-01
1.078210078745892098e+01,9.147424254569783142e-02,9.109769100927232743e-02
1.077960481296364392e+01,9.413366291224530003e-02,9.667535765809744108e-02
1.077379845192917607e+01,1.060301145831021308e-01,1.039386376173759979e-01
1.077846268006781472e+01,9.347034400591008874e-02,1.034981780273973723e-01
1.076649340683737499e+01,1.029832074292898469e-01,1.033123532473353978e-01
1.077345502075045403e+01,1.036001884159633984e-01,8.954585423425298618e-02
1.077487669407140380e+01,9.482701222607158031e-02,9.591925143019365552e-02
1.077422510458235472e+01,9.869760022252190013e-02,1.007515625620519911e-01
1.076704242323744509e+01,9.578559878614982537e-02,9.540803462335879781e-02
1.077429033709280937e+01,1.079838546819424649e-01,9.670414487744219412e-02
1.076678212007960056e+01,1.030121418307489572e-01,9.866534477015444227e-02
1.077759287751132256e+01,1.004519817280501021e-01,1.050303486460627406e-01
1.077284831776968410e+01,9.021569342961396898e-02,9.345301388935599307e-02
1.076890583312589378e+01,9.906227792267066623e-02,1.008114817255315460e-01
1.076438108869922949e+01,1.021527506738850177e-01,1.013851285231546079e-01
1.078145583126300444e+01,9.915983970086951482e-02,1.090430907309705710e-01
1.077726319355151752e+01,9.454510089292623987e-02,1.012965161449496942e-01
1.077573263258427083e+01,9.697750460015581997e-02,9.586866691195099210e-02
1.077802176127535461e+01,9.870264233596798276e-02,1.035294942626961562e-01
1.077349508426442881e+01,1.057563766908905523e-01,9.743683049627131776e-02
1.077324881739495233e+01,1.038639931639340763e-01,9.988768157293140271e-02
1.077254307430532343e+01,9.786362294141463802e-02,9.321675531785798829e-02
1.077914330886504146e+01,9.999384503272766567e-02,9.859196936800444788e-02
1.076843552971485707e+01,9.385940815203182297e-02,9.904034472983519466e-02
1.078039220896279105e+01,9.300520237148977853e-02,9.578536379447541438e-02
1.077982818662850661e+01,1.039338018256323048e-01,1.053505669806938244e-01
1.078008286876210065e+01,1.026972185272371219e-01,1.022520065617473356e-01
1.076802367607710664e+01,1.023518545516053369e-01,9.759959593722968008e-02
1.077491892390596639e+01,9.648285035220958983e-02,9.751526138843236158e-02
1.076987053331928834e+01,9.804715254073863295e-02,1.079399618425114227e-01
1.077389072322831964e+01,1.069071156807876316e-01,1.040729777790962152e-01
1.077967632543645671e+01,1.021217411713429141e-01,1.006437719033666384e-01
1.077012119172943727e+01,9.534955020406349346e-02,9.414463590325601594e-02
1.078148332429285539e+01,1.042421921244607169e-01,1.028138054149274200e-01
1.077091135105334807e+01,9.951664104938880151e-02,9.255782855971612932e-02
1.077257890654627204e+01,9.760334126241074215e-02,1.009822945525655491e-01
1.076760399003186741e+01,9.259409239862143037e-02,1.010950578448236714e-01
1.077944426770110020e+01,1.017090110826691512e-01,9.977383927284280696e-02
1.077266523653314145e+01,9.220614319236862533e-02,9.384337644654473787e-02
1.077369075497656503e+01,9.717861160558030620e-02,1.021728245948658603e-01
1.076996143191231070e+01,1.024836726983990726e-01,9.930872313818167596e-02
1.077380303042837184e+01,1.018533678851857582e-01,9.831650080325782248e-02
1.077973894307199565e+01,9.890439704133052734e-02,1.050581155955252199e-01
1.076961529359387804e+01,1.007508287403538066e-01,8.777406208893882844e-02
1.078275996457144181e+01,9.879986417390022868e-02,9.800782189841956982e-02
1.077502441912487541e+01,1.026933161192135069e-01,1.015393604116865967e-01
1.077711516066202968e+01,9.675421581296424212e-02,9.773840731389354941e-02
1.077588781328212342e+01,9.818223120652423697e-02,1.065331882972763294e-01
1.077287869518212560e+01,1.074257406477867050e-01,1.053863417337184694e-01
1.077233104671386954e+01,1.062598763411967961e-01,1.029934903828355758e-01
1.077786200825866025e+01,1.023271920253708001e-01,9.687628797388851687e-02
1.077324331691154491e+01,9.905436662410754822e-02,9.259898602484892272e-02
1.076756326153047638e+01,1.035976875900436606e-01,1.041987367640103551e-01
1.077181630573051230e+01,1.062320237524196631e-01,9.780173179190293498e-02
1.077242899340482296e+01,9.584241609165837505e-02,9.831576137108470614e-02
1.077662752493040976e+01,1.006279619538270054e-01,9.878120730157184670e-02
1.076875365604918500e+01,1.033478636610398460e-01,1.046234460292784774e-01
1.077446669837678606e+01,1.039276927292566988e-01,9.812824338278713920e-02
1.077998630089260423e+01,9.768691625879302731e-02,9.969466939132491656e-02
1.077917172833118542e+01,1.045975386846770411e-01,9.393356542354286409e-02
1.076644554644247265e+01,9.850497801784954821e-02,1.048968146401993706e-01
1.076577879995305587e+01,1.004371664395009855e-01,1.046795982899442479e-01
1.076751790373219997e+01,1.015847893844210453e-01,9.315222951545046315e-02
1.077737197885292808e+01,9.873320162418575130e-02,1.109664305170532939e-01
1.077429029666253335e+01,9.504061626413486119e-02,9.365485051206055844e-02
1.077290698235514377e+01,9.916674680055752311e-02,1.065455022888082692e-01
1.077651213880812797e+01,1.005160718266674136e-01,9.132529188431377787e-02
1.076823925453000719e+01,1.021244960311993299e-01,1.092638990607242011e-01
1.077714779001684242e+01,1.015254431877962576e-01,1.012706176491933868e-01
1.078260794677554557e+01,9.773591853608132318e-02,9.513551154712038271e-02
1.077265641739851532e+01,1.014412158764406852e-01,9.990467633001927361e-02
1.077803001657616022e+01,9.142757650388887158e-02,1.075940652857256402e-01
1.077848818753988347e+01,1.061143542657264904e-01,9.238728547661578805e-02
1.077715906107778210e+01,9.790477621576552936e-02,1.039981289065475961e-01
1.076615277776270574e+01,9.664011049143590715e-02,9.240588435805886791e-02
1.077318822563929146e+01,8.986369659060250425e-02,1.012333033222522077e-01
1.078308296923901821e+01,1.089520360872635596e-01,1.036422521773590899e-01
1.077601643100378936e+01,8.787919026515599030e-02,1.050340387314074309e-01
1.077686080938805624e+01,8.982531690164531624e-02,1.023602445065326938e-01
1.077158406295528970e+01,1.030385946179765977e-01,1.010253353264693732e-01
1.076230935012013212e+01,9.509756201874192127e-02,9.384197392439805330e-02
1.077662164141112378e+01,9.819559331474085606e-02,9.975314222697312383e-02
1.078059047690573102e+01,9.881022772308532820e-02,9.939242704565974529e-02
1.077805368722245127e+01,9.971329249386629012e-02,9.405629948819131669e-02
1.077439532258903654e+01,9.258392127593854937e-02,9.432195333980451790e-02
1.077109995773284368e+01,1.048456963381519391e-01,1.043127550513116703e-01
1.078219052577644632e+01,9.336105046283239839e-02,9.537543924788302596e-02
1.076846325775106195e+01,9.181982337578740994e-02,8.917172917283565370e-02
1.078152196171365595e+01,9.020583361880293860e-02,9.012482458781662098e-02
1.077938716246102935e+01,9.400305761699113971e-02,9.911743856181981505e-02
1.077155781230176501e+01,9.264830380008982902e-02,9.316681027379283830e-02
1.077271995547887506e+01,9.761789898718384317e-02,1.129570854625416981e-01
1.077869022025798174e+01,9.981444122831321930e-02,9.410256052374257885e-02
1.077388743690829997e+01,9.072648176791839325e-02,9.350105882743525720e-02
1.077599118855220262e+01,9.317698935649271208e-02,9.661831763884655422e-02
1.077437118548455075e+01,9.944142902840510945e-02,9.696349168524651119e-02
1.078359058556521433e+01,1.004040145792054195e-01,9.715775612852729781e-02
1.077209573618528893e+01,9.818365793132197150e-02,9.623530394638402097e-02
1.077049275203115997e+01,9.187414277195377066e-02,9.878773117795348890e-02
1.077109275150439593e+01,9.040145100831734060e-02,9.427559748443310739e-02
1.076719514997645710e+01,9.705013317322841448e-02,1.036320888330809764e-01
1.076832479452284019e+01,9.782045176997911096e-02,1.031095357927929168e-01
1.077136087116828556e+01,1.013507121542250727e-01,9.923099444315271189e-02
1.077482641091627968e+01,9.591994220359204015e-02,9.887859719164117378e-02
1.077186961900923556e+01,8.697196477411096860e-02,1.041353065437691100e-01
1.077812968706480312e+01,1.051411556730197927e-01,9.020072754002511628e-02
1.076918215346882590e+01,9.496561556730442888e-02,9.239824982733901848e-02
1.076995539872523544e+01,9.427035906494815598e-02,1.038617376435922446e-01
1.078407460965502374e+01,1.014994352578809517e-01,8.825061927186186872e-02
1.077235614508934169e+01,9.516478443427028866e-02,9.439464838825366300e-02
1.077660346895854282e+01,1.010899486365146871e-01,9.579150293804715444e-02
1.077551492398762178e+01,9.672874375204926212e-02,9.522352398506346571e-02
1.077403997130082480e+01,1.005413504342027586e-01,8.654524507095814889e-02
1.078097579282777296e+01,1.010134169979598762e-01,1.013458453849980234e-01
1.077728750672456393e+01,1.045130587309796855e-01,9.514485931022531595e-02
1.077898762339770755e+01,9.811144700852554579e-02,1.058989737984666613e-01
1.077418676100021422e+01,9.360104457466651706e-02,8.849884391134713035e-02
1.077230081408630369e+01,1.013015988785792854e-01,9.347844943218143465e-02
1.077799785331761129e+01,8.874930386724340370e-02,1.016132358286214732e-01
1.078027925223131689e+01,1.065956837291478776e-01,9.893287606388383171e-02
1.078154286585385790e+01,1.004138930404915725e-01,1.002082747801742169e-01
1.077302795842415151e+01,8.727479880317920435e-02,9.409963033031802648e-02
1.077662731020664921e+01,9.403499612146071218e-02,9.929644164822377939e-02
1.077306465815588687e+01,1.075890890245834314e-01,9.189796012998333041e-02
1.076940922815106561e+01,1.096120486972585184e-01,1.052275530021722361e-01
1.077120528634311114e+01,8.857615926360142000e-02,1.074326079759092695e-01
1.077069877507249451e+01,9.188402496306416478e-02,9.582175048938056106e-02
1.077021378511728855e+01,1.001899834512257198e-01,9.583974304034829916e-02
1.077577732583851855e+01,9.028433055204292124e-02,1.024745927291718650e-01
1.076761333977366775e+01,1.030109291755330336e-01,9.443802350635580045e-02
1.077955970932425167e+01,1.050401829210568239e-01,9.860757140170628432e-02
1.076650105953798153e+01,9.780689137547339540e-02,8.960185310317055063e-02
1.077887210071435220e+01,1.039050986956132905e-01,1.080664582817154884e-01
1.078035833284153888e+01,1.079318607582617218e-01,9.684371301811717236e-02
1.076892629116182754e+01,9.496775024914702601e-02,9.669134353457040087e-02
1.076536119446317663e+01,9.479161755525920829e-02,9.666189491981495852e-02
1.077783645347541253e+01,1.014595236117415283e-01,9.568355650123124001e-02
1.076997650766001868e+01,9.261731538766748706e-02,9.588404251613585894e-02
1.077728041830523864e+01,9.592517194905691991e-02,9.576180378535201210e-02
1.077159117370705133e+01,9.859042756879746183e-02,9.539737474761314506e-02
1.076924874663824205e+01,9.247877538261604913e-02,9.687517613574508912e-02
1.077232483075610325e+01,9.926463800763685175e-02,1.046343021279039498e-01
1.077107253084095184e+01,9.720020801328894955e-02,9.420661250339035231e-02
1.076706257186296156e+01,9.291542005065388243e-02,1.008987351816863082e-01
1.077886935983150352e+01,1.038612820321987845e-01,9.653027785425570551e-02
1.076820451446137028e+01,1.007363778066293902e-01,1.012596696144666825e-01
1.077720842071736662e+01,9.080340783199218613e-02,9.774989943500077272e-02
1.077619947861044913e+01,1.031107013333382311e-01,9.917025992158641501e-02
1.077016334964144484e+01,9.814637137350390450e-02,9.619003833628358979e-02
1.077198396934769420e+01,9.653047334750421149e-02,1.046164073235020531e-01
1.077862952737262070e+01,9.649940709009147133e-02,1.016123879448593559e-01
1.076877051561513809e+01,1.049069111106157859e-01,9.577938404005072182e-02
1.077104301566195232e+01,1.047518027404298890e-01,9.984286636987707575e-02
1.077595336881529597e+01,9.632502827575149806e-02,9.805963349263839557e-02
1.077263698889981924e+01,1.039925082915039711e-01,9.237810524684143820e-02
1.078205887065560908e+01,1.043850791667640387e-01,9.548208500601639004e-02
1.077568525027352031e+01,1.021487607637999728e-01,9.835054070510679258e-02
1.077480501858409312e+01,9.709043998043644097e-02,1.040910589265797576e-01
1.077796155345678564e+01,1.003452164241503686e-01,9.207772563250495035e-02
1.077890859029738735e+01,9.956655619987962724e-02,8.927241888369338851e-02
1.077219323048295507e+01,1.024162289282830873e-01,9.881212816359605244e-02
1.077613341455483109e+01,1.059851382012304000e-01,9.097818631783574639e-02
1.077415127275422080e+01,1.042296848554477851e-01,9.070807204210276642e-02
1.077964102525414170e+01,9.800553970761344269e-02,9.771383778463481329e-02
1.077649974656442922e+01,9.842716663026200574e-02,9.017348020025239830e-02
1.077579173557242598e+01,1.000601081434654566e-01,9.905098105696573396e-02
1.077473677426425702e+01,1.061873592587235238e-01,8.883291701214481029e-02
1.076663664442018309e+01,9.870564581021852579e-02,9.694236829225129359e-02
1.077216464569454502e+01,9.753878427161628839e-02,9.428123348370191781e-02
1.078537322096230433e+01,1.041488834666963043e-01,9.151898084178021475e-02
1.077051968357278611e+01,9.785252281715758893e-02,1.030001738308388842e-01
1.077200115857857732e+01,1.060472764786771493e-01,9.190228694193261494e-02
1.077840784147470465e+01,9.027381277656465475e-02,1.006881151363669125e-01
1.078104448544390692e+01,9.638003205810426188e-02,9.577946551145219423e-02
1.077636468030293670e+01,1.004116966978317593e-01,1.052206179890572829e-01
1.077079641890223272e+01,1.090325196137365837e-01,1.015886183027023132e-01
1.077280080064547541e+01,1.018837590596052139e-01,1.023897435742006090e-01
1.077033770189244422e+01,9.403552600967475528e-02,1.025286776842200959e-01
1.078149983554354208e+01,9.059248161033117697e-02,9.921454954232886148e-02
1.077254014278464211e+01,9.605112379585480087e-02,9.884083021828425630e-02
1.078244423903426430e+01,9.698933652407240591e-02,1.016465774364975205e-01
1.077582343231939532e+01,9.642790963860403686e-02,1.079946616048008123e-01
1.077875678894886669e+01,1.011839453294095109e-01,9.333003836558594057e-02
1.077323692145812473e+01,9.054214077008160277e-02,9.931169978943350796e-02
1.077436486783221525e+01,1.006925804931484703e-01,1.077288666547708273e-01
1.077600845618478331e+01,9.980079284783253957e-02,1.055522444771015977e-01
1.076642092498028269e+01,9.394844563504933799e-02,9.805791987604220439e-02
1.077736710667865694e+01,9.278181514463620938e-02,1.066696381812106131e-01
1.078073010896022765e+01,1.006167688639891117e-01,9.818746597344660265e-02
1.076960151204224836e+01,1.014119072847609326e-01,9.587480771897775866e-02
1.077169002734411052e+01,1.057350622289568443e-01,9.691380020627002323e-02
1.076914740273917204e+01,9.649471207301141273e-02,9.079347765356157729e-02
1.078283201202851060e+01,9.483669177083534074e-02,9.830372945839296883e-02
1.076688363525718728e+01,9.188787025311587198e-02,1.022489924025564156e-01
1.077460513949008458e+01,9.415821240951668947e-02,1.055677092080180984e-01
1.077255612621878100e+01,9.342455817771554150e-02,9.569240450254226649e-02
1.078496006781774952e+01,9.422377911614651658e-02,9.741058663201590528e-02
1.077842242485485791e+01,9.893611946136506019e-02,9.971975408181671385e-02
1.077358149783062480e+01,9.597983134623683243e-02,1.117711174639008653e-01
1.077076822332252348e+01,8.852694835857116695e-02,9.735780904795292290e-02
1.076355793165071084e+01,9.952041263559166517e-02,9.822984992134170534e-02
1.076860159885442059e+01,9.667831789210071247e-02,1.013878745957799143e-01
1.078301851575205106e+01,1.014127918258895672e-01,9.343432828468863083e-02
1.076737570322742243e+01,1.051312069678104755e-01,8.945886845529964215e-02
1.077864350479436872e+01,1.070782386456879398e-01,1.075599498105072466e-01
1.077866064420881465e+01,9.435466646401031998e-02,9.441041196236887867e-02
1.077405997089430478e+01,9.679241346992029094e-02,1.030356265636629270e-01
1.077616757191636232e+01,1.052008400358010048e-01,9.906469348878223224e-02
1.077502198517719378e+01,9.854556093342610457e-02,1.072379654356309386e-01
1.077455158646939282e+01,9.573580637864106957e-02,9.375495856797057270e-02
1.076485360217273346e+01,9.060925137324683798e-02,1.013061418416693754e-01
1.077507824579372908e+01,9.868247326581858214e-02,9.485704879608942985e-02
1.077520601676248724e+01,9.836775623016105752e-02,9.436700974568182354e-02
1.077147830580858567e+01,1.040427451374232870e-01,1.000164088857224132e-01
1.078675917805715656e+01,9.854608888114356480e-02,9.928508747886624630e-02
1.078204312457963354e+01,8.949851737794251028e-02,1.082610905794559736e-01
1.077733173991784277e+01,1.030221638581998722e-01,1.067063934850278339e-01
1.077864415152255972e+01,9.941282071958867927e-02,1.106474411666315966e-01
1.077623078846414728e+01,1.016821619814394506e-01,1.058781388779706373e-01
1.077335564356029352e+01,9.047088446974067832e-02,9.861308780537214602e-02
1.077532616581234670e+01,1.102769692150617903e-01,9.393799938858637955e-02
1.077435097685130749e+01,9.827151549370534422e-02,1.015026945041332812e-01
1.077543453428017095e+01,1.047225094226004322e-01,1.004578033288025807e-01
1.077726649637914313e+01,1.004713390079414320e-01,1.057650950865414857e-01
1.076911501699347085e+01,1.009067013272495483e-01,1.054014058116203023e-01
1.077290595537143858e+01,1.042281473217030185e-01,9.397598218650729529e-02
1.077611740420253916e+01,1.010112635965760702e-01,1.061673398368964127e-01
1.078213948789744414e+01,9.843604279361585496e-02,9.976979394039207916e-02
1.078253136512827304e+01,9.167750676367573959e-02,9.473968313210104353e-02
1.078102570175296471e+01,9.701439165955909327e-02,1.046435123464241335e-01
1.077641267835586447e+01,9.873479724984143835e-02,9.256884637979549690e-02
1.077532464323298633e+01,9.730449968519480630e-02,1.009168568777787656e-01
1.077550977968388857e+01,9.888322279438484241e-02,1.078848012231937853e-01
1.077397411138233529e+01,8.971744302590017872e-02,1.001287213496524914e-01
1.077864323063625207e+01,9.998761324790225724e-02,9.487440188846300859e-02
1.077305341834810548e+01,9.563678943768581797e-02,9.594509732660122525e-02
1.076423636930136496e+01,9.828925599366662713e-02,9.727680460796002404e-02
1.077149937969509708e+01,9.423904434370232452e-02,1.057137497902155554e-01
1.077454427783869484e+01,1.048975120173110814e-01,9.787249978809638151e-02
1.078256574527463485e+01,9.983908740524827241e-02,9.433456142220382479e-02
1.077421812029394310e+01,1.025738086885789879e-01,9.487510919626811201e-02
1.077330453075911798e+01,9.057899105142450114e-02,1.012596113456010333e-01
1.077674712857673889e+01,1.028880868967167600e-01,9.968677729841576851e-02
1.077481598789634276e+01,1.070830422484291694e-01,1.031052917290963405e-01
1.077841414487035721e+01,1.007251903061799486e-01,9.576702688322788481e-02
1.076562657645488486e+01,1.053865248667777005e-01,9.738706346217650134e-02
1.078064295106630865e+01,1.036214379432100624e-01,1.082110221683423995e-01
1.077467883304093910e+01,1.045323030862587016e-01,9.874483542934441027e-02
1.077861693752676153e+01,1.088774033984107326e-01,1.007699599235827442e-01
1.077313040237822861e+01,1.048537966814540590e-01,9.824537013162711052e-02
1.077930954250906304e+01,9.298700621902401819e-02,9.535950317058414227e-02
1.077810235494402491e+01,9.997496568737894440e-02,1.013147902381960619e-01
1.077229906742932819e+01,9.713531369345418387e-02,9.874953158094337824e-02
1.076904591380684373e+01,9.771635640220550922e-02,9.973950384367542832e-02
1.077154250729238960e+01,9.993069777596072512e-02,9.399929312402645343e-02
1.078639185524769317e+01,9.412233424383147085e-02,9.163418523025242124e-02
1.077573108585983519e+01,9.781273365961011546e-02,1.029837128334158830e-01
1.077052330783523892e+01,1.000800819565903221e-01,1.016586362004939653e-01
1.077587472337771324e+01,9.540930838954199411e-02,9.511561664265646976e-02
1.077259825601899657e+01,9.064544393569030911e-02,9.527425208604724249e-02
1.077269121762105186e+01,9.425751346453825619e-02,9.957335296223110421e-02
1.078110743296127083e+01,9.843163166769017258e-02,9.401133151364574059e-02
1.077016994479290624e+01,9.533112364624490853e-02,9.715858392364817853e-02
1.077381041139845408e+01,9.189206985464733191e-02,1.009903375583227902e-01
1.077304189478710228e+01,8.763879153168729896e-02,1.000605174250793067e-01
1.077768744490684760e+01,9.719468588097987527e-02,9.417108872148854948e-02
1.076498447259043445e+01,1.043619687974035593e-01,9.441571753016488044e-02
1.077016967047524609e+01,9.271074650780698756e-02,8.508248012075074473e-02
1.076579008600442044e+01,1.026609107141685795e-01,9.767400969643211250e-02
1.077676124578648320e+01,1.037155172565635830e-01,9.304941906013407260e-02
1.076919540324241353e+01,9.915077392145073276e-02,1.072510051761702554e-01
1.077499437735615473e+01,9.385120593057168226e-02,1.010256632483217260e-01
1.078212117211348797e+01,1.026826473031301895e-01,9.549015691544020246e-02
1.077064288217419907e+01,1.034678584531198292e-01,9.534317814652322476e-02
1.078231059106385104e+01,1.059059448603183184e-01,9.768737527593594760e-02
1.076558777387594290e+01,9.233247732188279433e-02,1.032786449098672815e-01
1.077166233262151529e+01,9.956268179109574457e-02,9.742369051419999537e-02
1.077881850451413825e+01,9.784985480667024449e-02,9.583058485248378833e-02
1.076955361973508474e+01,9.430085877763884350e-02,9.437927903918309769e-02
1.076905272046220752e+01,1.010890449320872436e-01,9.494208718539154379e-02
1.076979884021002398e+01,9.474377534250995325e-02,1.012768981994316697e-01
1.077272081773203460e+01,1.008209829272027624e-01,9.696975072536540008e-02
1.077737619259336022e+01,9.877281892429447263e-02,9.141459346321800794e-02
1.077750325268709020e+01,1.035737004220216445e-01,1.049715996701085646e-01
1.078044467387793581e+01,8.870587875507587872e-02,9.966627084129253689e-02
1.077911662143584159e+01,9.896384201981650586e-02,1.008414039757551117e-01
1.078326295965440984e+01,1.005931484747526056e-01,9.366447905782662731e-02
1.076787109137085174e+01,9.760489713736458794e-02,9.273902641874109953e-02
1.078096226785310741e+01,9.669431667622149784e-02,8.978024011480777167e-02
1.077271010861014489e+01,9.282312168341728953e-02,9.982075733821305086e-02
1.078603109021979911e+01,1.016059237516649949e-01,1.003326934863012776e-01
1.076876929543230510e+01,9.146586120247993112e-02,9.977085957029854790e-02
1.077755417199393762e+01,9.288219972121941614e-02,9.281779889456300003e-02
1.078831800692763032e+01,8.656731895888310213e-02,9.850792670684459240e-02
1.077808116836313168e+01,1.031524804185921795e-01,1.016179088958160531e-01
1.076447395061556733e+01,9.727106227378448655e-02,1.031400238889097210e-01
1.077342499283582633e+01,1.036924691270739718e-01,1.028248651659194601e-01
1.077881853933907053e+01,1.035253894645851852e-01,9.609074917435382612e-02
1.076685977086898838e+01,1.007448981312470404e-01,9.493497126720870649e-02
1.077059344788707484e+01,9.705058617817265143e-02,9.987065436055582446e-02
1.076634330483165769e+01,9.972825484394370887e-02,9.403892156523807611e-02
1.076892406514220646e+01,9.936926803429729782e-02,1.036612854989385352e-01
1.077457247014113584e+01,9.784066810570721251e-02,1.022229941959357929e-01
1.077527647757602480e+01,9.636288977239683418e-02,9.772788849864996741e-02
1.077583729984022121e+01,9.341750585529241813e-02,9.193145027934190860e-02
1.076557867031464788e+01,9.937268044990574256e-02,1.006703321933488521e-01
1.077739594884600294e+01,9.742315720170986737e-02,9.860289720657346157e-02
1.077159825814609739e+01,9.825700879074181215e-02,1.027017118703150433e-01
1.078112435150970327e+01,9.658612675237243650e-02,8.844200682894007293e-02
1.077840413719427204e+01,9.754060119135725404e-02,9.207879188395141912e-02
1.077455508733000578e+01,9.580518344534433295e-02,1.080379152064455117e-01
1.077623471365912167e+01,1.032723218622514511e-01,8.941823643391372256e-02
1.077891274677127953e+01,1.015377637699034219e-01,1.025841356960319750e-01
1.076720303616215801e+01,9.733863459980798827e-02,9.720560844761150232e-02
1.077352991432720941e+01,1.004116826506984694e-01,9.421303996704979977e-02
1.076195203968369896e+01,8.993444736541228446e-02,9.025120151972684801e-02
1.076738134527632695e+01,9.675797320212271846e-02,1.028190275109111540e-01
1.076778263243950384e+01,9.971715824952849527e-02,9.015499336377962025e-02
1.078334839331277806e+01,1.050062344700078143e-01,9.483237068078900767e-02
1.077433935576484814e+01,9.469721250422342973e-02,1.009666861479389527e-01
1.077499480286531863e+01,9.848148300451811665e-02,9.261022032574663110e-02
1.077531410280863966e+01,1.081837800286444551e-01,9.788914886103908253e-02
1.077472067399193634e+01,9.234890662771805259e-02,9.455450553925176527e-02
1.077429909127321217e+01,9.810479733369992239e-02,9.778167150247861483e-02
1.077636778965545794e+01,9.747594148858067242e-02,1.011517592825046108e-01
1.078190943326240792e+01,1.043093192958869375e-01,1.026117052763612092e-01
1.077174746217626655e+01,1.010352161478225430e-01,9.716806957166250480e-02
1.077102277073727521e+01,9.980753772392508827e-02,1.017047338367723791e-01
1.077386774345620957e+01,9.788832598134063201e-02,1.020958651541399170e-01
1.077666791125607659e+01,8.769147135581749353e-02,9.692353602260100898e-02
1.077886175911781308e+01,9.726861928244870392e-02,9.800760169917284437e-02
1.076412623658400314e+01,9.900088299206580289e-02,9.797706194339644847e-02
1.077277771332723511e+01,9.324318359720161487e-02,9.841536469295850131e-02
1.077143796911760454e+01,1.007392259267430729e-01,1.006007364569410922e-01
1.076931020361054614e+01,1.101792894249461058e-01,1.069326939313120090e-01
1.078077191571263249e+01,1.048918456457908904e-01,9.920490096638476252e-02
1.077351369635360179e+01,9.464496595024207704e-02,1.059002439414643837e-01
1.077401881438729170e+01,9.172069848828244554e-02,9.861634358232074238e-02
1.077873068906212417e+01,9.477929044896453437e-02,1.033974802876106713e-01
1.078241119148424687e+01,1.016875056794729754e-01,1.031711927864518430e-01
1.077956487468633640e+01,9.807846904711829683e-02,9.628586972862465676e-02
1.077740631227006496e+01,9.877388232466434437e-02,9.659092910640221241e-02
1.077471476516326021e+01,8.764663278033948957e-02,9.949835812223353781e-02
1.076780245579833739e+01,1.065002282749055729e-01,9.216213235319255237e-02
1.077353361722402347e+01,9.592591400420398540e-02,9.254827788419810186e-02
1.077866590801999180e+01,9.310452930359332246e-02,9.706807994825911168e-02
1.077949456286503249e+01,9.645895733247027148e-02,9.561998996076896684e-02
1.077827274010301295e+01,1.015035324237695685e-01,9.890890948751669687e-02
1.077606534091851032e+01,1.054864813564743431e-01,1.035807232243879383e-01
1.077120565292493382e+01,9.439546965343988127e-02,9.912375088947167345e-02
1.078774853655860788e+01,9.100774083738782938e-02,1.011262070765761578e-01
1.077021202619117091e+01,9.806652760838767413e-02,9.571558811433350522e-02
1.078736562333389415e+01,9.237779536470364095e-02,9.478967181939149111e-02
1.077329575510663418e+01,9.709330748336858496e-02,1.010080712170038364e-01
1.077824047929812146e+01,1.020207861297300345e-01,9.805285040116626383e-02
1.077499548850381750e+01,8.732005632076020318e-02,9.354369884766623733e-02
1.077871847577597286e+01,1.054727197169110370e-01,1.040836748921059179e-01
1.077833826533820805e+01,9.909781227711002283e-02,9.831394831521414468e-02
1.077497413849981456e+01,8.849602242160568843e-02,9.493869167042159884e-02
1.077625438103747335e+01,9.373476256517410121e-02,9.870558448265856488e-02
1.077620326319730637e+01,9.505369001456115408e-02,9.927254793520939868e-02
1.077295699325516587e+01,9.717487195026587588e-02,9.226756786085255069e-02
1.077869712664361579e+01,9.924080419950283283e-02,1.031118839549087229e-01
1.076243986932596108e+01,9.639259564784911916e-02,8.898307834295605956e-02
1.077371944243956747e+01,9.657097003944324631e-02,1.032398422117861841e-01
1.077054307523722976e+01,9.719398789349549539e-02,9.528465529841513570e-02
1.076648954993973994e+01,9.926660894514206801e-02,9.258536817860735235e-02
1.077764494119156780e+01,1.024526830495411933e-01,1.022607326601142202e-01
1.076948815513165236e+01,9.690153173723027591e-02,1.073613371689451645e-01
1.077329919738926201e+01,9.021897911671913906e-02,9.804752191836473008e-02
1.077598879506583529e+01,9.434858313109575900e-02,1.005617259651630652e-01
1.077486535491015829e+01,9.653396210468340177e-02,1.055148419099485729e-01
1.077649184281081673e+01,9.935949830965315477e-02,1.092882788767253338e-01
1.078214501287280846e+01,1.072206392887963405e-01,1.001027068001683479e-01
1.077344182314391219e+01,1.007424571920241541e-01,9.782081160411709719e-02
1.076956197663734471e+01,9.049745552248603109e-02,9.494505160684607592e-02
1.076893293632322290e+01,9.908916940882060709e-02,9.451263480189558974e-02
1.077105667902817565e+01,1.018171123523626820e-01,9.616406760585509417e-02
1.077478491441777741e+01,1.010182615345880386e-01,9.420441737048144970e-02
1.077663363320790069e+01,9.579589187549060469e-02,1.011366238666787931e-01
1.077873740228531751e+01,1.068211811576156717e-01,9.901054837671657838e-02
1.077224520140914521e+01,9.565960430226613798e-02,9.932060284448514242e-02
1.077839141309028115e+01,9.667095681823896502e-02,1.075589240977691818e-01
1.077383219594381636e+01,1.000365014891685250e-01,9.895830199528306281e-02
1.077306350334465179e+01,1.002243820952367082e-01,9.829030960524037797e-02
1.076711211827461945e+01,1.005609678414261243e-01,9.657791820849757902e-02
1.077424016563464271e+01,9.163870404281902748e-02,1.039243380527997002e-01
1.077256406025347957e+01,1.061098760289662241e-01,9.320635213328530566e-02
1.076929584694579489e+01,8.877101781781764067e-02,1.015034218019005563e-01
1.077352604602470088e+01,9.333207683029935697e-02,1.051718892455415499e-01
1.078663677484088801e+01,9.469148523681066021e-02,9.663533918019182045e-02
1.078251509656156770e+01,1.023715430889788336e-01,9.739508886193851134e-02
1.077080530474294839e+01,1.053607518690564543e-01,9.643459321075213697e-02
1.078009608944929454e+01,1.008885608271249262e-01,1.036605937044753761e-01
1.077950683852231428e+01,9.870137210671223182e-02,9.154702785414244037e-02
1.077409780529000827e+01,9.067554471298659713e-02,9.745929478763833143e-02
1.077473063974987078e+01,1.077307896514166224e-01,1.035902069202058878e-01
1.077138425626128715e+01,9.504686279552951311e-02,9.673965578992639591e-02
1.077184723080028128e+01,9.726810012612949197e-02,1.030668919269601830e-01
1.078029522750451541e+01,9.064508254214981298e-02,9.328640081479265544e-02
1.078145074319960450e+01,9.764219587712984205e-02,1.005572366488619168e-01
1.077096979577374292e+01,9.895019865520850166e-02,9.711726073003471016e-02
1.078382576913254276e+01,1.009224063373979630e-01,9.991964859712899882e-02
1.077229398890001733e+01,1.026453066702164157e-01,1.044129755144679039e-01
1.076913715392014836e+01,9.913364502098495623e-02,9.751728098077565299e-02
1.077621678432667096e+01,9.157898902634431515e-02,9.591610912032523528e-02
1.077754180896954495e+01,8.986593497230316308e-02,9.992255157357428363e-02
1.077667859265823225e+01,9.627571017200269032e-02,1.096283627482702583e-01
1.076669761455361396e+01,9.904779117472244099e-02,8.570193365566683430e-02
1.078386168053617844e+01,8.484017685634324957e-02,1.019370742779297234e-01
1.076947884499300656e+01,9.254722217381164406e-02,1.045764850168655613e-01
1.077654451422872661e+01,1.024401934428465777e-01,9.964214511705990485e-02
1.078097843351991969e+01,9.158893814561834545e-02,9.708781613203483485e-02
1.077888078161081076e+01,9.170651602887516796e-02,9.676215510727331770e-02
1.078263461329446038e+01,9.719162558556557197e-02,9.851283740957905710e-02
1.077352373320017165e+01,9.423075345936032798e-02,1.006166669191172619e-01
1.077044953150235074e+01,9.113487783564896971e-02,1.031702328179477934e-01
1.077894937422819766e+01,9.242422869966608612e-02,9.468950741944896776e-02
1.077641927741806249e+01,9.730825814675601870e-02,9.606920502716870258e-02
1.077670978966956028e+01,9.991311115337370152e-02,9.962772404847577978e-02
1.077593504238255129e+01,9.537011202199881243e-02,9.034295742201187140e-02
1.076843522158501898e+01,1.010875029674431214e-01,1.030177502666452805e-01
1.077716392558098946e+01,1.039951381320162460e-01,9.493627749256910997e-02
1.077708151332467246e+01,9.952071714536628311e-02,9.495932077270638483e-02
1.076958418138282347e+01,9.543424252691765086e-02,1.008413489749783731e-01
1.077857856158166605e+01,9.513127126432460723e-02,1.031548121576768701e-01
1.078268999303963227e+01,9.052557779910191949e-02,1.022085186593895550e-01
1.076906354515379860e+01,8.682018056089636782e-02,1.061694458668860641e-01
1.077194999902205375e+01,1.000109566011649631e-01,1.055996229264422465e-01
1.077152805815802594e+01,9.930073168992700761e-02,1.012713357904335976e-01
1.078219258024817684e+01,9.050333361482371108e-02,9.952446680301303694e-02
1.076347841443038078e+01,9.501841468274180302e-02,9.699584251154397263e-02
1.077792429319199030e+01,9.912519371808278801e-02,1.007577635451716441e-01
1.077003438009011660e+01,9.325036029411697125e-02,9.083616057429366730e-02
1.077303810289064501e+01,1.052086254032083557e-01,9.980258569082664510e-02
1.077151595817731966e+01,1.011020856856163497e-01,8.923530675233430631e-02
1.077716181333987500e+01,9.872361321962866421e-02,9.680872932853949731e-02
1.076952597671874656e+01,1.003563054106137165e-01,9.909359999884244374e-02
1.076611459082375966e+01,9.172207343867420926e-02,1.000366009587819877e-01
1.077478009155891847e+01,9.462924890853420534e-02,1.036650722867774183e-01
1.078674043124892101e+01,1.006808688925194539e-01,1.045033433971331721e-01
1.076806876598550744e+01,1.000452147218893473e-01,1.006887210768701163e-01
1.077892687695789675e+01,9.883307135180809111e-02,9.368162950349824547e-02
1.077193458269481496e+01,9.584228943932660005e-02,9.766154513842000007e-02
1.077020336545333201e+01,9.981830014242425164e-02,8.763327791672177736e-02
1.077542470142856423e+01,9.121220971097544761e-02,1.041687579088913379e-01
1.077896718150842936e+01,1.004320421611444303e-01,9.860062112916695432e-02
1.077630540556622663e+01,1.074088489726566092e-01,9.935856275594319442e-02
1.077234253723472790e+01,9.500301772862573824e-02,1.116783825465419572e-01
1.076782538684496693e+01,1.019842719699530914e-01,9.979247018239099931e-02
1.077946748536936639e+01,1.012437655234607603e-01,8.737952526525835650e-02
1.077824505392251808e+01,9.827557632107356000e-02,8.883586886064522015e-02
1.077867512037837017e+01,9.416042052240923554e-02,1.026024626185510907e-01
1.077978456674617291e+01,9.780611738768478503e-02,9.406611058019941074e-02
1.077199425655440557e+01,1.020197494116317077e-01,9.714457035990688161e-02
1.076668060367109625e+01,9.134801609434195502e-02,1.072462828260317830e-01
1.077665895171797850e+01,1.023290107401484544e-01,1.003879591053696702e-01
1.077358269328640894e+01,9.253942806960474554e-02,9.595710955954860066e-02
1.077825732550174465e+01,9.628872143747424506e-02,9.666716014840534554e-02
1.078610657464684053e+01,1.047996877455291964e-01,9.620689532583322212e-02
1.077387502448457468e+01,9.697676371981032994e-02,9.967185610040210642e-02
1.077273230201490328e+01,9.598569470554277339e-02,1.063188967464232665e-01
1.077348979592738054e+01,1.018461575133781383e-01,9.841773876594657466e-02
1.077867140733281204e+01,1.010280359044157111e-01,9.710356558691031481e-02
1.077584073658996999e+01,1.039467235961339248e-01,9.121292421031654274e-02
1.077436839242902700e+01,1.008909821158246040e-01,1.020712923738895384e-01
1.077704047774464335e+01,9.663366201161621705e-02,9.516250994437266963e-02
1.077254041431670295e+01,1.118119515257581381e-01,9.378529782531508374e-02
1.077457798295590763e+01,1.019744332978055612e-01,9.334009299554109351e-02
1.077438044465496780e+01,9.736946820106051614e-02,9.820343376922381629e-02
1.078079554394000361e+01,1.004245455053182218e-01,1.017645416660948182e-01
1.076964753474503844e+01,1.022262097993947988e-01,9.499722596505268124e-02
1.077098828002665876e+01,8.848397163014218303e-02,1.012066107510393165e-01
1.077668560115336582e+01,9.553686752890098999e-02,9.061879790041067750e-02
1.078266647268364942e+01,9.505154074122894314e-02,1.077883125558035948e-01
1.077133352538567479e+01,1.056858452373080348e-01,9.843013901059910475e-02
1.077046139184558093e+01,9.219368201597480383e-02,9.607606600222672044e-02
1.077634957197956211e+01,1.011991486437383708e-01,9.922146224729332109e-02
1.077697375233119104e+01,1.031301828814680105e-01,9.369863330829311665e-02
1.077104699362340057e+01,9.446031964462461850e-02,9.193693144388123684e-02
1.077238166104918982e+01,1.016905242396392017e-01,9.528172022604078362e-02
1.077192900470748782e+01,1.017640523738868874e-01,9.951368865545803799e-02
1.077634485790601815e+01,9.961827797978781152e-02,1.039229011934030833e-01
1.077705382141650325e+01,1.021840894676670219e-01,1.056574662792715280e-01
1.076521594142256610e+01,9.575779533738325300e-02,1.020735965054965499e-01
1.077655448450504494e+01,1.062019952646538201e-01,9.239015972047362468e-02
1.077331731453311647e+01,9.614713810577549258e-02,1.052711259926700782e-01
1.076954230031145876e+01,1.020996906631096018e-01,1.001461549415731400e-01
1.078338935599438209e+01,9.611190789058042527e-02,9.167008802641012088e-02
1.077362703169483460e+01,9.462828216587922114e-02,1.039687014781317531e-01
1.077843010172278682e+01,9.835784577170267329e-02,9.698399894973044888e-02
1.077234210835855244e+01,1.011083158810103383e-01,1.085641653115052285e-01
1.077687721702111467e+01,9.362785153411677663e-02,9.217850694140591883e-02
1.078372847525466405e+01,1.009457336086731771e-01,9.569774903429530133e-02
1.076966515706108218e+01,9.414556634626901344e-02,9.983102514130075267e-02
1.077676419278996001e+01,9.075012733105700113e-02,1.016297956839733452e-01
1.078334143028523862e+01,9.963401273975895645e-02,9.164566619342903731e-02
1.077127842015328518e+01,1.015662020120311204e-01,9.487105742737132752e-02
1.077834100141244100e+01,9.933557803127328334e-02,9.723588423555717952e-02
1.078176497855128879e+01,1.018894619373931221e-01,1.065775762314619957e-01
1.076967390817895343e+01,9.571847166255580130e-02,9.359667766292541213e-02
1.077976644440879284e+01,9.295786592879969057e-02,1.030721657929529467e-01
1.077439671245780239e+01,9.781952207971982005e-02,9.312937048366719262e-02
1.077179621256167508e+01,8.780997058011837109e-02,9.936304337409308796e-02
1.077078413080554142e+01,9.358492309895054262e-02,9.471816642426973687e-02
1.077163706825565370e+01,1.043947393355168507e-01,1.074196992229304315e-01
1.077291791314969771e+01,9.678614872242369271e-02,8.386944730817699756e-02
1.078052028734767376e+01,8.966405686766566741e-02,9.816825663980016659e-02
1.077322399045512213e+01,9.044173770062989559e-02,9.728865417899092150e-02
1.077778814870681501e+01,9.662495184203799548e-02,9.445769455372932111e-02
1.077023793325240675e+01,9.723515439327230780e-02,1.047115403325480504e-01
1.076241466280311165e+01,9.532534394463611227e-02,1.016141108781864755e-01
1.076712471837415208e+01,1.029603241791160056e-01,9.040038571795137867e-02
1.077980792603793070e+01,1.104263284402318412e-01,1.036885227744958893e-01
1.075916988767773219e+01,9.675304023868035175e-02,9.936383445653509949e-02
1.077054966026903671e+01,9.891346391664014581e-02,9.564489589092001198e-02
1.077183158089269277e+01,9.291507583196878528e-02,9.911234928557977053e-02
1.077752323059250728e+01,9.821412460161438318e-02,9.520567010991035084e-02
1.077605704704865275e+01,9.967163221251344740e-02,1.051219004298800663e-01
1.077485105638963248e+01,9.402803281010166381e-02,1.033047889572808187e-01
1.076605109981762531e+01,1.011865737993564440e-01,9.561423091622864301e-02
1.077489579695500588e+01,1.009769386919846801e-01,1.040223726359297829e-01
1.077379800813731059e+01,1.025266649096309435e-01,1.036366160376314544e-01
1.077889625909148741e+01,1.006077517912990216e-01,9.699277910483330989e-02
1.077164561320228842e+01,1.019984066708785053e-01,9.385832030802815362e-02
1.076485198109369534e+01,9.902999951703543580e-02,1.058921376506420237e-01
1.077363193740687919e+01,9.258981467849987379e-02,9.023232893389677989e-02
1.077977519879668833e+01,9.014879456893179488e-02,9.805412701558244293e-02
1.077502032657019093e+01,9.516080639877862180e-02,1.004463610757213299e-01
1.077810366142077925e+01,9.893598516152239675e-02,9.749284100607812087e-02
1.078251209666938415e+01,1.055047218448471047e-01,9.471485243063122728e-02
1.077479920120525314e+01,9.846676668370052399e-02,9.833331458396979419e-02
1.076912528109750333e+01,1.039973653390420111e-01,9.684424479183566248e-02
1.077650315575985651e+01,1.054268467089754663e-01,9.247966157858941716e-02
1.077876946079627807e+01,9.585104327779422895e-02,9.625685303018187422e-02
1.077668567233037855e+01,9.437685980774553063e-02,9.472061102060777560e-02
1.077481150702361568e+01,1.023389182048380641e-01,1.105456784421309513e-01
1.076231414441493861e+01,9.819766373533372894e-02,9.777412529614028236e-02
1.077701431102004648e+01,9.080813496950207453e-02,9.832666710654644482e-02
1.077890270037236142e+01,1.046903531866670845e-01,9.588182981584356113e-02
1.077529387132605798e+01,9.448431394473547074e-02,9.678148622021390257e-02
1.076766672388983537e+01,9.332261383761472628e-02,9.741594489927446476e-02
1.077746022514963009e+01,9.527579301798573541e-02,1.000213278178998522e-01
1.077748805819917521e+01,9.120897737849309461e-02,1.000536080688076701e-01
1.077302765022538544e+01,9.790152802159157730e-02,9.998065187906761409e-02
1.076645554440827013e+01,1.021748343436938433e-01,8.845768765957423563e-02
1.077453656396878223e+01,1.025682214575726614e-01,8.958215881506208234e-02
1.077807887519581165e+01,1.016360595415067569e-01,1.064332642088690745e-01
1.076769800077826211e+01,9.834620252952142039e-02,1.004467534878004664e-01
1.077506024941140161e+01,9.756459414447869738e-02,9.362388217510075883e-02
1.077522553409566974e+01,9.847376694130079156e-02,1.034949548760286941e-01
1.077295444815570846e+01,9.643536664266692815e-02,9.984688721434493985e-02
1.078284783250801837e+01,9.321653755685713194e-02,1.026271672536743229e-01
1.076740525028922413e+01,1.063619647526793943e-01,9.202825655160530582e-02
1.077584237197097927e+01,9.842437736275154447e-02,1.045704755649507350e-01
1.077184866237798566e+01,1.068252356126845604e-01,1.017379779041048260e-01
1.077051248078990930e+01,9.577258070493481490e-02,9.566741978765612442e-02
1.077103420833426561e+01,1.044875510405110369e-01,9.543775130266300699e-02
1.078245637463557038e+01,9.943536931083600539e-02,9.540776723488544886e-02
1.077207868095683985e+01,1.077250527198678615e-01,1.009704940324309130e-01
1.077400063714667766e+01,9.753304709752023960e-02,1.002542058904197231e-01
1.077594746924882685e+01,9.715687331855915598e-02,8.855190233904244868e-02
1.077782775112414804e+01,9.794334911263793964e-02,9.927319527595214466e-02
1.077133961433566256e+01,9.388521527532740774e-02,1.064850187467142884e-01
1.077019130282076809e+01,9.129040055563622524e-02,9.507974901008701962e-02
1.077002224504004069e+01,9.928031677589642390e-02,1.024464841972222845e-01
1.077020238726441548e+01,1.004631714296527756e-01,1.003714022470716533e-01
1.077577266849472082e+01,1.012234292680540687e-01,1.005084557869420081e-01
1.078478993560214683e+01,9.512327812430201868e-02,1.072757744515883821e-01
1.076738530022262097e+01,9.711835155654668927e-02,1.043520948087963141e-01
1.077795391249608237e+01,9.107302732677237389e-02,1.027006557388117081e-01
1.077348321401247411e+01,9.603448691046267971e-02,1.014003005826080023e-01
1.076947696021130696e+01,1.062203707999661018e-01,9.685914401238764071e-02
1.077532198243204320e+01,1.020987731799254672e-01,9.451395105638867034e-02
1.078548656622216839e+01,9.843051956838613781e-02,1.012418533514619495e-01
1.077280477771861733e+01,9.299283794582402507e-02,1.007889068763788143e-01
1.077831161052555942e+01,9.536893096360746225e-02,9.592862124070164476e-02
1.078130730501421120e+01,1.029568182560061523e-01,1.058921828754134514e-01
1.077314367762982883e+01,9.854168616820332960e-02,1.009766962367862203e-01
1.077254676993978322e+01,1.069490849184402403e-01,9.417865811498986328e-02
1.076924497500414724e+01,9.873328996167862748e-02,9.408609220138451634e-02
1.078024736179705556e+01,9.620740685349259136e-02,1.089410592567010283e-01
1.078168644816822486e+01,9.160596022036478214e-02,9.517223841201077894e-02
1.078040688607245201e+01,1.002668626028568877e-01,1.032736530357847848e-01
1.077388695735657365e+01,1.034071848380551245e-01,9.307238719368338131e-02
1.077716038854072877e+01,1.030189414215717941e-01,9.864912333530655164e-02
1.077293964230250900e+01,9.497799499007288093e-02,9.487100446075537319e-02
1.077666206711137953e+01,9.531877680507364059e-02,8.941206010278188177e-02
1.077971590489534748e+01,9.895441371491625615e-02,9.366597644900395703e-02
1.077324588471529587e+01,9.042025350983140530e-02,9.219091930714547189e-02
1.077644569503596195e+01,1.034218675525052505e-01,9.937067068509922163e-02
1.078048749296644004e+01,9.594841296400548336e-02,1.011977214576858797e-01
1.077186145482845170e+01,9.842315248789289261e-02,9.869730985431290904e-02
1.077250472283113503e+01,9.502422397011474342e-02,9.296914832545159768e-02
1.077015114074591118e+01,9.481087650747935247e-02,1.066285835341245214e-01
1.077540819044101283e+01,9.740841471461186840e-02,9.899701900590708592e-02
1.077435544558028546e+01,8.838912383899999448e-02,9.821799719462680212e-02
1.077226520222230022e+01,9.395003682468457129e-02,9.216209791465605761e-02
1.077270981535288819e+01,9.709031624000842575e-02,1.048520647224370217e-01
1.077608857810829512e+01,9.717764510371637576e-02,9.645368568541975995e-02
1.077855368876344144e+01,9.764017072226861826e-02,1.017871378969770479e-01
1.077557927056434472e+01,9.591899631205649812e-02,9.933182119353385631e-02
1.077284595361602015e+01,1.005859485022243260e-01,9.814868434461755664e-02
1.077101965655770677e+01,9.456197942246942489e-02,9.860947330667715893e-02
1.076762199818780097e+01,1.050643356930491962e-01,1.016957657351244826e-01
1.077737374272589577e+01,9.874359008119222569e-02,1.016338101384451215e-01
1.077942873167808813e+01,9.836495948949429413e-02,9.821969404184882624e-02
1.077253454167017743e+01,9.631791862634625501e-02,1.005822435701294454e-01
1.077759254699019920e+01,1.022451458114732314e-01,1.012749254587194531e-01
1.077586594850350110e+01,9.584249296666268181e-02,9.619408961092729138e-02
1.077973681362114355e+01,9.302794895506265316e-02,9.587772222970938896e-02
1.077340212981487433e+01,9.252015253216371027e-02,1.035545205018695292e-01
1.077113154689549113e+01,1.033594945118957026e-01,1.014471307561869706e-01
1.076414799634370034e+01,1.016866358097658213e-01,1.035905286391450297e-01
1.076912650596468701e+01,9.859659080279990773e-02,1.015711923199404676e-01
1.077653911316864566e+01,1.011580624805660938e-01,9.447579792972615742e-02
1.077518886875444792e+01,9.799082046976205496e-02,9.106638747525547251e-02
1.077552633743950850e+01,9.528536169848617066e-02,9.677578736232111956e-02
1.077226958636108023e+01,9.990035292445015314e-02,1.033157110969034342e-01
1.077895432975179446e+01,9.933948592563349167e-02,9.125657900906095077e-02
1.077762708445446727e+01,9.953519665009698258e-02,9.571137479306694729e-02
1.077581420199392426e+01,9.642323331405124043e-02,8.944436075170750233e-02
1.078190426236928090e+01,1.015169614336073334e-01,9.749715886020877964e-02
1.077143126350556201e+01,9.435805966188387517e-02,9.883774935264640071e-02
1.077355747988249135e+01,9.928102194943091985e-02,9.700082321109271266e-02
1.078351576102352993e+01,1.031720552747127928e-01,1.027720831492977271e-01
1.077076192540448218e+01,1.127268181758055710e-01,9.440837824690728741e-02
1.077543431008701802e+01,1.022624080446796757e-01,9.545550301493620216e-02
1.076801287644491012e+01,1.024545869126704811e-01,1.032137837398628688e-01
1.077812560744790815e+01,1.015355920413442137e-01,9.582964393015719340e-02
1.076839140090471147e+01,1.009268584768741178e-01,1.123458190454339339e-01
1.077916421810855852e+01,1.060094130875710444e-01,9.735934785340320807e-02
1.076298705799535682e+01,9.927606988276661826e-02,9.567967835080296024e-02
1.078337574489640360e+01,9.945505578783450651e-02,9.621698671190978547e-02
1.076329592763718423e+01,9.587320228053625160e-02,9.222430357461364192e-02
1.077096896009929239e+01,9.964248084695652430e-02,9.876535877105720174e-02
1.077181074283444850e+01,9.536096431505899917e-02,1.019100717731087624e-01
1.076149680260264674e+01,9.527455169197468487e-02,9.931443131863032514e-02
1.077270839537543523e+01,9.740947102059030471e-02,9.632633993883166212e-02
1.076964236415428822e+01,9.739210909144760397e-02,9.651619847769879468e-02
1.077923068036955279e+01,9.379961932005696779e-02,9.630786313053515957e-02
1.078399371866484380e+01,9.103206089537985157e-02,8.784694660795232257e-02
1.077532993560112118e+01,9.656311875617010210e-02,1.032171256711734569e-01
1.077524306427446632e+01,9.510467949471686222e-02,1.037888824185466963e-01
1.077201251020349737e+01,9.864237586798638158e-02,8.582839351607673972e-02
1.077702703936009598e+01,1.058130964646420979e-01,1.015071385479528326e-01
1.077895378715226471e+01,9.814936040189442545e-02,1.023890148308787273e-01
1.077684391252977392e+01,9.447878602894409228e-02,9.655153930887314107e-02
1.077928477034078369e+01,8.949939974898557526e-02,8.957241822734832160e-02
1.077588280329819348e+01,1.012242927855020874e-01,1.100078441675286789e-01
1.077946548853228670e+01,9.566090728418495670e-02,1.001098924733888201e-01
1.077357359917304969e+01,9.435258038682435566e-02,1.001770331067305120e-01
1.077506557055168201e+01,9.930170510825132857e-02,9.829786523488026617e-02
1.077658296120931603e+01,9.718538717535041283e-02,9.938932358479891926e-02
1.077663162085503323e+01,9.370459895063043554e-02,9.300686322815986118e-02
1.077565231034065718e+01,9.773803654793736251e-02,9.998037528430907261e-02
1.077406562964508829e+01,1.018462729209118761e-01,9.950542216830407516e-02
1.077986209355030844e+01,1.021832460359371475e-01,1.012880498915299243e-01
1.077008820128989619e+01,9.804186058416390626e-02,9.355559613887837189e-02
1.078224683271821682e+01,9.853375945118178492e-02,1.049615704125762133e-01
1.078090700914254185e+01,9.534291842364341074e-02,9.177045386821945649e-02
1.076812892230096885e+01,9.929496205341548087e-02,8.993395206616110193e-02
1.077547067310741724e+01,1.009473177077508249e-01,9.330314741722034455e-02
1.076389485388870426e+01,1.086486044287120339e-01,9.400519404487189812e-02
1.077040848685058094e+01,9.196480818055707829e-02,9.767045680764860349e-02
1.077540616009745911e+01,9.268304727357686013e-02,9.011601589340201279e-02
1.076640264312713491e+01,9.895739770530420643e-02,9.599537615566412774e-02
1.077122458111349701e+01,9.720831805447988083e-02,9.454676143432007296e-02
1.077725402133621735e+01,1.061817687052816761e-01,1.003496322801546159e-01
1.077107484067463261e+01,9.907266703255253326e-02,1.012012223209206169e-01
1.076649193272469951e+01,8.921436055596126957e-02,9.625281539734144298e-02
1.076963270078672785e+01,9.726831822488260504e-02,9.207259163339900909e-02
1.077416711874144539e+01,1.012233395705788158e-01,9.795495977458107406e-02
1.077228699057979355e+01,1.004395028913046689e-01,9.497570618017842081e-02
1.077547188773442599e+01,9.305392290089121998e-02,1.034122077431117864e-01
1.077645840418220935e+01,9.276638725993593959e-02,1.004268822660970562e-01
1.077610841951304721e+01,1.115920544315132656e-01,1.036247822608874075e-01
1.076893322492128746e+01,1.014577620438934791e-01,9.635728095631217183e-02
1.077069968560783231e+01,1.083742594971712353e-01,9.143377181177721191e-02
1.075945135632443161e+01,9.959258201588561121e-02,9.628082461055152697e-02
1.077899946251458374e+01,9.277569378570381387e-02,9.490787004327355669e-02
1.077635518751924160e+01,1.036404864786173996e-01,1.043441691939343552e-01
1.077490902719745414e+01,1.015956718312584772e-01,8.671552074830805867e-02
1.077617149077406111e+01,1.009962653905953356e-01,9.479071418699287765e-02
1.077847181981956659e+01,9.704318737457642841e-02,1.022653855506417131e-01
1.077295182659210937e+01,9.974589802722001741e-02,1.010474117543022632e-01
1.077949928299744364e+01,1.002410665770236270e-01,1.013553517658875164e-01
1.076498775916091688e+01,9.210925536483935416e-02,9.656766868247777802e-02
1.077784534426574226e+01,9.664614499758844568e-02,9.918453415464896505e-02
1.077428703444260805e+01,9.648902034470827060e-02,8.959689209737974058e-02
1.078637896322031509e+01,1.025356918774893294e-01,9.089037242527793492e-02
1.077019954734015172e+01,1.011337876833253990e-01,9.087832139066591430e-02
1.076493375312920442e+01,9.869217724592729835e-02,9.620636847223645871e-02
1.077413216381703265e+01,9.805609874534239323e-02,1.008779078883079300e-01
1.077188968745710440e+01,9.522907544631736831e-02,9.604571700947293900e-02
1.077410602076495216e+01,9.819578759285831071e-02,1.063177711541407611e-01
1.076800617058597886e+01,9.632691090537372214e-02,9.378779615540940029e-02
1.077752434259655523e+01,9.473302729305081715e-02,9.635530912252417146e-02
1.078409928289698705e+01,9.803508585951735410e-02,9.022888618510493952e-02
1.078011652572766010e+01,1.040418550052279734e-01,1.080511510270842357e-01
1.077685381025391109e+01,1.068022278141013415e-01,9.543830515974693895e-02
1.077109602126531307e+01,1.082110972854124914e-01,1.007559011116816866e-01
1.076629984530824835e+01,9.773331858828533669e-02,9.404382719842235838e-02
1.078367069405429213e+01,9.757805362544903771e-02,1.003514472565240762e-01
1.077638670481187511e+01,1.030251051757266473e-01,1.011724138574217058e-01
1.077278124723015473e+01,1.120986399026036862e-01,9.022520536820732850e-02
1.077486177578600390e+01,9.740018269029605824e-02,8.880656468720034280e-02
1.077540561579988498e+01,9.379992975827737556e-02,9.883341544979014348e-02
1.077253302931825552e+01,9.562311012999200055e-02,9.495678218202097121e-02
1.077602440681015139e+01,9.515156330141195939e-02,1.002836387834770970e-01
1.077559576690067544e+01,9.482017586467407499e-02,9.967449410914626384e-02
1.077667477261403306e+01,1.035236709215549555e-01,9.196048594754815952e-02
1.076961215914653991e+01,9.391628292526922606e-02,9.113803922046231909e-02
1.076966261005487979e+01,9.337389088920192148e-02,1.049923136591292411e-01
1.077138153808390442e+01,1.011977266475740100e-01,9.967252332033266216e-02
1.077674844744528038e+01,9.588052585296451269e-02,1.065304233930394473e-01
1.077690257100335103e+01,9.837075307704008786e-02,9.826256386192910863e-02
1.077986885988561738e+01,9.700000951393292214e-02,1.070606850850884806e-01
1.077447516601288946e+01,1.050169588928845793e-01,9.278537679449762321e-02
1.077931709677683614e+01,9.299246027715468710e-02,1.067348249766749968e-01
1.076640941502447646e+01,9.636434227961869492e-02,1.037822183723866587e-01
1.077110495776382493e+01,9.725039442409148804e-02,9.897120020915801952e-02
1.077125340554688648e+01,1.056251076924905608e-01,9.574844837012455590e-02
1.077602000385122061e+01,1.009670957343334480e-01,9.106510458999100832e-02
1.076710704235096294e+01,9.771508568593771649e-02,8.994349666187384518e-02
1.077095745109121694e+01,1.012035159013218999e-01,1.056965884421857543e-01
1.077762229227758795e+01,1.007125254031081274e-01,9.668173631568227622e-02
1.078179899055582425e+01,1.001074238423081686e-01,9.778748554649696612e-02
1.077230274810073496e+01,8.628465955785782904e-02,1.021193974499736978e-01
1.077661461457680048e+01,1.013697459543735496e-01,9.986191916748277109e-02
1.077532031129843659e+01,9.885998054369521393e-02,1.041430888473739436e-01
1.077809744319337604e+01,9.740145339971137406e-02,9.604798289616077456e-02
1.077255277110261034e+01,9.348160174087689900e-02,9.803454870140976274e-02
1.077453788480040586e+01,1.056134910835231228e-01,1.020047217317912452e-01
1.077798382675364941e+01,9.878467273043224639e-02,1.041425831905002097e-01
1.076329076830081455e+01,9.013898865871293464e-02,1.000012781634355835e-01
1.076725321205530683e+01,1.063785955806741679e-01,9.476297694905573554e-02
1.077024661881680423e+01,9.709428120763158310e-02,1.003889912892696884e-01
1.077045830731278286e+01,9.494057270357204870e-02,9.187546750910076387e-02
1.077643223336214895e+01,1.024988528535675375e-01,1.012913374093097202e-01
1.078271451052730079e+01,9.668271667086081322e-02,1.016813925661231854e-01
1.077776716999686002e+01,9.760672053908378554e-02,8.906873058501606211e-02
1.078187193941566591e+01,1.007747066260984564e-01,1.007809894520983324e-01
1.078429547907635566e+01,1.000264475363072253e-01,9.381504087452956220e-02
1.077097571958525002e+01,9.383595790739925058e-02,1.019110706345576073e-01
1.076820200728852583e+01,1.006735732329455263e-01,1.014707859483252456e-01
1.076689292936376674e+01,9.137636669238544118e-02,9.963853475115885816e-02
1.077203076098629353e+01,1.058123578244731106e-01,1.041087230872662778e-01
1.077695118885808689e+01,1.003651562457614221e-01,9.426972786585509356e-02
1.077958961437697916e+01,9.952226811310738164e-02,9.753470991324930672e-02
1.076133770706538506e+01,1.065992902229042361e-01,8.947521125577639900e-02
1.077400984423652019e+01,9.819491540564566356e-02,9.949710176454502897e-02
1.077631102849112210e+01,1.035540812330238702e-01,1.067548173310355480e-01
1.077343328537951095e+01,9.593955052963319685e-02,9.696450988064780896e-02
1.077800653529112118e+01,9.894363257638545683e-02,9.765993001078562830e-02
1.076538321838167356e+01,9.561182630003858818e-02,9.313849697625033175e-02
1.077609845520837162e+01,9.146462684953574063e-02,1.026153299637753424e-01
1.077771834858383038e+01,9.745047850220062147e-02,9.407507214541546703e-02
1.076725670055290962e+01,9.265482447289266621e-02,9.700068423039827359e-02
1.077440833234968487e+01,9.964840433040336731e-02,1.005161235499150568e-01
1.078255583803257522e+01,8.778978346373782216e-02,9.610951031944957312e-02
1.076824895852473674e+01,9.970412318417817832e-02,8.846774570202040056e-02
1.077539347741261366e+01,1.011154622345865617e-01,9.278495444608993170e-02
1.077722550437285420e+01,9.804086112443383128e-02,9.796882922506684743e-02
1.077508271880943802e+01,8.852641938723601611e-02,1.051012468805014449e-01
1.077317636211232177e+01,9.646076722093598066e-02,1.031017514232287491e-01
1.077300990265694480e+01,9.801406403846836535e-02,9.409779073684612638e-02
1.077246735626578555e+01,1.025378499963233159e-01,1.021370671461576257e-01
1.076632036230333789e+01,1.034403042299153752e-01,1.037052474790734480e-01
1.077147231651724546e+01,9.888636653881438532e-02,1.050677268458873881e-01
1.077049610256823442e+01,8.757505918750449481e-02,9.767300520006472198e-02
1.077489767675866261e+01,9.540371024227500829e-02,9.488942784315262946e-02
1.077503992265717869e+01,9.538782922320243607e-02,9.472532088405366535e-02
1.077742740085342277e+01,1.032972116037437493e-01,1.006700495983365445e-01
1.076965123100434063e+01,8.628135514541250550e-02,9.308098526873916090e-02
1.077581873409641133e+01,9.908506618591138293e-02,9.323463089368946854e-02
1.077715400647872812e+01,9.588635522258100174e-02,9.889152358478396632e-02
1.077092770529832499e+01,9.905209501766888691e-02,1.035176972640809850e-01
1.077498914743461711e+01,9.989032058219390886e-02,1.006781472675412209e-01
1.077583940777820892e+01,1.007993610550033947e-01,1.073355469981778221e-01
1.077908040695686154e+01,9.757047916199176885e-02,1.033120900790449603e-01
1.076343785806676578e+01,9.760722359220724842e-02,1.010566942477625907e-01
1.078359651593083335e+01,9.526291123381727677e-02,1.044326687382711866e-01
1.078209292887171777e+01,9.854508767811891168e-02,9.743406773640950203e-02
1.077096949063037812e+01,1.023948308314827638e-01,1.080821448541331997e-01
1.076785433511337686e+01,8.456721528128886833e-02,9.965822502172907993e-02
1.077083208830578265e+01,1.021069563220275006e-01,1.023628094666421268e-01
1.077714193104122842e+01,9.683134822727397506e-02,1.007536207075225010e-01
1.077621759998883100e+01,1.009666232670386743e-01,1.014922203960890307e-01
1.077051373971455739e+01,9.643881823265046394e-02,8.549929116930587991e-02
1.076956309014792623e+01,1.023661114171703079e-01,9.564215221962907298e-02
1.076918356647434827e+01,9.653778092322451432e-02,9.066794263417743416e-02
1.077127154406204745e+01,9.180263630055830737e-02,9.571332336970485299e-02
1.078067459587762578e+01,9.978056966280887674e-02,1.007599754306079121e-01
1.077124764595839679e+01,1.047099721815033524e-01,9.212713295810567860e-02
1.077711679876088979e+01,9.479572723228102404e-02,1.086524475769657938e-01
1.076695412215662628e+01,9.954469833820552005e-02,9.517873598985962524e-02
1.078652759669224181e+01,1.024210450284035318e-01,1.002510372565240671e-01
1.077350457379924542e+01,9.685283739316806473e-02,1.023441032106773979e-01
1.076625424511284912e+01,9.740083705025578964e-02,1.023470903017819900e-01
1.078213841711851373e+01,1.029881014621750052e-01,9.968987650908602005e-02
1.078238342366834424e+01,9.314377497376430393e-02,1.017050527757133449e-01
1.077238253260574652e+01,9.752471618140881593e-02,9.738617623824125102e-02
1.077562728505198031e+01,9.717573821255688638e-02,9.236012309055127711e-02
1.077650324568208795e+01,1.053123279125802031e-01,1.023659060362387407e-01
1.077775111178230283e+01,9.676946733481006646e-02,1.031782031642850816e-01
1.077597802663835047e+01,9.943539333773111777e-02,9.935172462905091095e-02
1.078056352572783361e+01,1.057172412185971022e-01,9.671767061348514327e-02
1.077575532462530106e+01,1.019948376445277138e-01,9.727248763066291548e-02
1.077242213957521599e+01,9.680080570937217577e-02,9.472847995010370836e-02
1.077263321603866508e+01,1.055109311797889776e-01,9.774469257003680356e-02
1.077243203085509471e+01,1.078345177905474656e-01,1.063653485009673216e-01
1.077687801679436319e+01,8.974745398090973325e-02,1.009064485591526367e-01
1.077514925868339013e+01,9.765493142422466966e-02,9.381805995892320005e-02
1.077410806860257608e+01,9.845623920848166344e-02,9.257880533752541052e-02
1.078055247098941827e+01,9.651204348986348880e-02,9.362935174947359385e-02
1.077052768571550700e+01,9.590749027020455120e-02,9.906954191801053966e-02
1.076822776156719641e+01,9.041724907472035999e-02,9.880476822846998020e-02
1.077551707693128158e+01,1.029215812835624078e-01,9.679121915324122305e-02
1.076543855358327839e+01,1.011536979486665211e-01,9.940948060941834363e-02
1.077839201741211461e+01,1.009505224866303341e-01,1.011317628412841813e-01
1.078173099746757835e+01,9.135927207356224489e-02,1.016386709732966659e-01
1.077644717439998701e+01,9.889447714117606536e-02,9.290437937194034879e-02
1.078001936651773107e+01,1.038633574216341893e-01,1.026441138565140632e-01
1.077570915263858531e+01,1.017943876107423595e-01,9.097305108417171049e-02
1.077927718758424369e+01,1.054889103639812531e-01,1.071460708672347523e-01
1.078605352518511218e+01,9.907939617064763504e-02,1.016527877720210249e-01
1.078600961237670219e+01,9.271669735238624588e-02,9.684866301490779872e-02
1.076422807402619242e+01,9.779965025983088089e-02,1.024301815128940418e-01
1.076626429304791444e+01,1.054137091352516098e-01,1.067663633216403146e-01
1.076615806425217592e+01,1.020402252315343178e-01,9.219247237680815166e-02
1.077886958475708923e+01,9.760888184140746604e-02,9.970063203172194188e-02
1.076869462980094916e+01,1.059273369895459282e-01,1.101857343912992088e-01
1.078465251694937521e+01,9.212858740017423886e-02,1.107354572050009006e-01
1.077751788540685141e+01,9.902139501067513949e-02,8.957244102980828349e-02
1.077769599282469137e+01,1.035718941708639873e-01,1.145211094573149041e-01
1.076714696514831893e+01,1.058081908767298795e-01,1.053576673526553653e-01
1.078456301704382980e+01,1.023118958778964915e-01,1.047973901373831784e-01
1.077525358308997383e+01,1.037647353505603415e-01,9.893429014316258707e-02
1.077887954270700277e+01,1.019230779644603180e-01,9.563654969854555599e-02
1.077088615542806416e+01,9.643027601039358410e-02,9.966441133162277921e-02
1.076993409677827529e+01,1.028648391713754273e-01,9.278043518887507668e-02
1.076419739180754220e+01,9.449925555518765008e-02,9.575963471231135893e-02
1.077287077060390530e+01,1.009100556309550645e-01,9.719195727241461413e-02
1.077745079022201402e+01,9.607382803712943842e-02,9.268330096133314822e-02
1.077202725456894861e+01,9.650218247745420697e-02,9.152144669294208501e-02
1.076811403376711418e+01,8.834034781367239297e-02,1.013914384416548103e-01
1.077136118976431511e+01,9.371690739116496360e-02,9.766831446905004099e-02
1.077772754368820785e+01,1.001004454591633425e-01,1.032658183079335629e-01
1.077606186685319578e+01,1.023409000608072328e-01,9.887491946618708061e-02
1.077164582689719907e+01,9.563626625472572418e-02,9.189032155561910331e-02
1.076643640427178461e+01,9.624798641024574775e-02,1.002410224603289962e-01
1.077327963357437035e+01,9.675054119396628294e-02,9.969781081232222120e-02
1.077350829227716567e+01,9.182350145398124330e-02,1.041216747514240593e-01
1.078575111495003291e+01,1.004894427453739414e-01,9.810531789023177462e-02
1.076956081470784632e+01,1.014216607314977481e-01,1.042469606447950642e-01
1.076600563070048544e+01,9.246556052167471951e-02,9.236899493163992780e-02
1.077266248140750093e+01,1.010544063480511706e-01,9.938016940332772275e-02
1.078412412633810469e+01,9.863084881846823082e-02,1.016909023741831147e-01
1.078047834862738341e+01,9.216433467015849867e-02,9.017057714524866208e-02
1.076986138150485850e+01,9.596052192499328337e-02,9.715922173265176265e-02
1.077658462879153944e+01,1.022572384869743362e-01,1.031394831374115584e-01
1.078103287199117233e+01,1.057683469637854951e-01,9.855625466549552960e-02
1.077723997083056950e+01,8.818099034378962253e-02,1.000046113115541924e-01
1.076778144878556098e+01,8.997963975371446599e-02,9.673606157966900543e-02
1.077690030530618159e+01,1.023286798751698173e-01,9.877915977773711609e-02
1.077435058167882254e+01,1.111646489886840838e-01,1.039911596005057143e-01
1.077271524961708060e+01,9.639454926642269939e-02,9.965231918785295850e-02
1.077607912428585024e+01,9.075164542916612509e-02,1.026422586143210663e-01
1.077686963796776709e+01,9.160966061616274136e-02,9.807854963353049293e-02
1.078099904580752266e+01,9.609850593334799684e-02,1.000301622833910803e-01
1.077630161861376301e+01,9.903062693944909844e-02,1.080726237717763161e-01
1.077067640679027072e+01,9.606797135990870207e-02,9.979631223555840425e-02
1.077399791157717779e+01,1.058495688623244529e-01,1.058883744708863511e-01
1.077751419102687258e+01,1.064979799538913752e-01,9.601324605069259943e-02
1.077887090775026913e+01,1.010509259277971861e-01,9.793367936350980130e-02
1.076321004936675330e+01,9.883385568519524600e-02,9.354409024812770923e-02
1.078025906581416216e+01,9.529762119997393921e-02,1.062830360093186544e-01
1.077502585573316374e+01,9.858410550734691968e-02,1.061214714643452517e-01
1.077560782945848672e+01,9.801301110791642290e-02,8.633549188703092125e-02
1.078984039052215671e+01,8.614333677605150175e-02,1.058030338381845958e-01
1.077194470339061816e+01,1.001116348028694703e-01,1.007050534861842761e-01
1.077647540488394995e+01,1.008906721559659908e-01,1.013321841144739499e-01
1.077715052588612110e+01,9.153088742150870816e-02,9.276130798603821059e-02
1.077012133008157768e+01,9.608725383280107557e-02,1.036966456802218134e-01
1.077932781405099405e+01,8.699675045267112050e-02,1.053357585605974034e-01
1.078039949617899396e+01,1.005972184985007428e-01,9.718958716951864307e-02
1.077159956112695482e+01,9.927608988218063202e-02,1.008347881871538426e-01
1.077103895521611143e+01,1.044361824765018126e-01,1.007485246372213233e-01
1.077502626784203343e+01,9.110742422952740338e-02,1.027529757206416400e-01
1.077346872767820329e+01,1.017611520400281133e-01,9.192844538659207532e-02
1.077699406553395534e+01,9.219359496758043615e-02,1.044464549544986548e-01
1.077793863871309021e+01,9.769100951513230713e-02,9.858505686272070467e-02
1.077025150647647322e+01,9.561533785934180074e-02,1.009418670785145605e-01
1.076627850823476074e+01,1.119844546055536322e-01,9.212917379135632245e-02
1.076505874852626832e+01,9.950492430315487080e-02,1.031290388062888475e-01
1.077621184033119484e+01,1.006701878974033404e-01,9.821010679454056369e-02
1.077805503080061023e+01,9.409751230294750857e-02,9.937720797171660514e-02
1.076873793908715271e+01,9.799287384089179487e-02,9.878191907649079562e-02
1.078204677982143522e+01,1.015709757200470159e-01,8.785087436088967472e-02
1.077852392880541110e+01,1.032262076209627399e-01,9.898495207419907849e-02
1.077146619650556758e+01,1.019484336097698507e-01,9.458945513364379332e-02
1.077694220758423249e+01,9.464533939450946176e-02,9.868620711572424764e-02
1.076366718668893441e+01,1.010771767746588834e-01,9.649851231218981029e-02
1.077553687333533894e+01,9.643049323675878526e-02,1.030092722125814375e-01
1.078169490813330711e+01,9.490018630618168860e-02,1.045366708638788972e-01
1.078076375166495104e+01,1.043579095586009142e-01,9.845231260113189442e-02
1.077062527417793980e+01,9.986371956912901138e-02,1.001841682737559525e-01
1.078930199951079949e+01,9.836811669542878944e-02,1.106405355238377769e-01
1.078655161257341710e+01,9.624549877572162460e-02,1.063523627199263605e-01
1.077594045227857933e+01,1.035656843874420280e-01,9.953952033757335061e-02
1.076968686883491699e+01,9.779092520847927628e-02,1.098950066704359185e-01
1.077936834962343049e+01,9.512336151176692400e-02,9.678388934555401391e-02
1.077630586237898136e+01,1.001968144204303107e-01,1.026952789998477195e-01
1.077268608360855673e+01,9.935070298387532750e-02,9.512781491370797537e-02
1.077456545816289157e+01,1.025005929618773015e-01,1.065514719874603444e-01
1.077747435655073183e+01,9.163368896916643247e-02,1.032351010765172744e-01
1.076602715024678858e+01,1.094224957602915882e-01,9.816089244670904435e-02
1.077274030631490476e+01,9.542869895853053896e-02,9.945954678548753203e-02
1.076557370161344984e+01,9.250986960362417300e-02,9.718540172378775654e-02
1.077417567269749910e+01,9.408479879596559625e-02,1.033380263133137494e-01
1.077627542817913842e+01,9.574245130900550793e-02,9.278848141116922965e-02
1.077169574283194642e+01,1.030166723480948759e-01,1.084578275441983736e-01
1.077069230808189104e+01,9.643925711262930911e-02,1.064594415957130780e-01
1.078360117305379973e+01,9.426951741143790864e-02,9.058942791612373258e-02
1.077633006195904031e+01,9.488141564941524053e-02,9.509773452038138009e-02
1.078168303719809629e+01,9.439224819847430448e-02,1.075147746040514829e-01
1.076850345709179280e+01,9.603879865942763217e-02,9.558032228988035117e-02
1.077838592279526964e+01,9.754711281045605475e-02,9.924754427786260103e-02
1.077651639135086725e+01,1.001151446610415441e-01,9.806635029874601062e-02
1.077696167811173922e+01,9.871821564368099544e-02,8.151905252654548240e-02
1.076712041831706834e+01,9.163000087944728200e-02,9.126818252678274568e-02
1.077185058969558540e+01,9.619831295061949394e-02,8.957566178157981562e-02
1.078441012106587671e+01,9.031601225506327713e-02,1.040806499667876750e-01
1.076718190749893367e+01,9.135913231570573501e-02,9.529119758547088814e-02
1.077368693305121106e+01,1.118927491206166414e-01,9.535022884065375015e-02
1.077817143201854577e+01,9.190292306645440890e-02,9.447419697102785174e-02
1.077988694224926292e+01,9.525581448277367635e-02,9.240372000389084073e-02
1.076715199822831970e+01,9.885613837722140307e-02,9.726404171840399848e-02
1.077294194967258889e+01,1.036110013907781680e-01,1.008059200400410887e-01
1.077368803092644534e+01,9.858373247514816418e-02,1.095932064820674262e-01
1.076213034178852723e+01,9.823526265066422070e-02,1.010493855665082624e-01
1.077652210292284174e+01,1.021718482156480784e-01,9.765106009774252027e-02
1.078075746977894589e+01,9.600738239417902498e-02,1.048947096939279733e-01
1.078458791893394597e+01,9.546557632903630852e-02,8.811960476744937210e-02
1.078194327116101547e+01,9.426355468676754501e-02,9.461718681076290716e-02
1.077274522453364192e+01,9.222869011789337768e-02,1.002520341978340168e-01
1.078071191687471853e+01,9.598408624512524967e-02,9.589734414083291025e-02
1.077089277357425701e+01,9.986789678764888822e-02,1.026451927101029171e-01
1.076661093670000646e+01,9.719973656757162350e-02,9.116785627768829448e-02
1.078460795871778721e+01,9.948839200014307493e-02,1.046506421123171021e-01
1.076654542791213487e+01,8.790389666090442367e-02,1.001153551568723654e-01
1.076453833233667190e+01,1.036015606384602661e-01,9.873370346539296627e-02
1.077218488994710732e+01,1.016754908526925072e-01,1.042283473331672705e-01
1.077939801928910946e+01,1.060956180650479419e-01,1.025849022713428982e-01
1.077062522567454295e+01,1.043418557615531650e-01,1.015423614384013545e-01
1.077793828337422610e+01,1.010938235524208861e-01,1.000579035272214923e-01
1.077215727879984719e+01,9.191334702507733545e-02,9.860664638728680598e-02
1.077562393394540230e+01,9.380452262405006292e-02,9.551946221797945336e-02
1.076761078389392345e+01,1.029733322789139899e-01,1.068397967349474925e-01
1.077463791593559961e+01,9.209119590865726124e-02,1.039807770210126464e-01
1.077720347120999378e+01,9.482148515689509116e-02,9.881315905158614965e-02
1.079075695393612122e+01,9.692372753118909390e-02,1.069327844384324183e-01
1.077463246640777683e+01,1.096576792456436800e-01,9.887246032550767172e-02
1.078009466798922311e+01,9.852174946070382799e-02,1.045477864216685093e-01
1.077060624014711188e+01,9.454540336929138922e-02,8.640986917591414462e-02
1.077417449664714511e+01,9.933464974252186053e-02,9.792725449280520467e-02
1.076909906109134241e+01,1.056862222737144225e-01,9.523598055796034245e-02
1.077808753539519948e+01,9.848457125103204923e-02,1.024089781911549091e-01
1.076900577082244403e+01,9.717795488722007213e-02,9.676655029418891607e-02
1.077630927277489903e+01,9.656272207978364164e-02,1.024269559985189204e-01
1.077855931667590639e+01,1.005940808028860517e-01,1.051193038515820521e-01
1.077206181743214408e+01,1.018382505471791405e-01,9.499485188353404275e-02
1.076665538692558322e+01,9.212204463766708595e-02,9.651574066406670704e-02
1.077874351107450224e+01,9.028349138342822711e-02,9.372126928071933261e-02
1.077833359427369508e+01,1.030031568614970250e-01,1.050596649525489951e-01
1.077148431802270068e+01,9.465704937088267878e-02,9.580901712763301159e-02
1.077574052806705041e+01,1.001644119315634462e-01,1.035190791699263368e-01
1.077320559734681993e+01,9.649394090849115757e-02,1.049631751556106690e-01
1.078475953587399516e+01,9.466214030141170688e-02,1.011328462838814585e-01
1.078416832336429820e+01,9.938981274115429865e-02,1.013139472597481550e-01
1.077353139072317667e+01,9.425087321522378214e-02,9.439123680694269658e-02
1.077805366845339385e+01,9.864740471956827406e-02,9.234483923266607885e-02
1.077612946921471782e+01,1.045091569811761045e-01,9.711174713633410893e-02
1.077486267534571240e+01,1.007592484064154803e-01,8.970114754888157405e-02
1.077566075617546026e+01,9.578672140915862887e-02,1.009692169075060292e-01
1.077525191180978759e+01,9.685706550720118990e-02,9.690274038513305155e-02
1.077030641679626832e+01,9.721894314809727267e-02,9.875438032638550467e-02
1.077886971437700403e+01,1.047025867970963614e-01,9.476569785992532136e-02
1.077949444520150735e+01,9.524016120121218953e-02,1.060669274167773818e-01
1.078121305548047104e+01,1.010379756692154213e-01,1.004355850267467792e-01
1.077730979994345972e+01,9.495947166380169779e-02,9.675401433702841836e-02
1.076061390679681118e+01,9.879191244270314753e-02,9.412049842334578587e-02
1.076276398397784462e+01,1.044052351165496578e-01,9.548814341539596517e-02
1.077700371608178820e+01,9.657070987158948572e-02,9.184998900683795375e-02
1.078177330424155222e+01,9.640265450518085977e-02,9.140569649672244945e-02
1.077540749119153141e+01,9.736118819009299818e-02,9.580110492787699550e-02
1.077924519483006272e+01,1.032395353940169513e-01,9.850849920702814400e-02
1.078154440626682131e+01,1.025031392681921422e-01,9.599349710009844050e-02
1.078472478382130006e+01,9.999415909370647226e-02,9.268660897527745968e-02
1.078002690124515972e+01,1.031363878921279648e-01,9.662392137775012435e-02
1.078065231338589669e+01,9.830515876389736563e-02,8.998184366883460461e-02
1.078566562108796667e+01,9.650409402856323371e-02,9.835222987615914458e-02
1.077851562536480046e+01,8.949769078809782785e-02,1.004807016464957237e-01
1.078585278831254080e+01,9.563286873302608015e-02,1.037051592899840141e-01
1.076872781182061622e+01,9.858444038687667887e-02,9.201790725465200382e-02
1.077685256053234575e+01,1.003755986543909962e-01,9.995709739477758038e-02
1.078210326157326904e+01,1.031955029159404291e-01,1.006022211933521038e-01
1.078064731887038086e+01,9.764623868988429878e-02,1.018439081572649896e-01
1.077997729454203935e+01,9.625432091500303600e-02,9.527304669408284687e-02
1.078339927220450889e+01,9.950315910836390887e-02,1.024155126454104614e-01
1.077350079656515192e+01,9.745321714251950485e-02,1.088754604543458876e-01
1.077640339925472013e+01,1.015434084820260180e-01,1.043822749724024890e-01
1.078396043285442474e+01,1.009971791489662485e-01,9.803086806178207269e-02
1.078072723860737447e+01,8.786265969822526500e-02,9.790581797858022295e-02
1.076919849254892547e+01,9.876307298907167909e-02,9.098430967858282814e-02
1.077924921233442390e+01,9.457548670495873055e-02,9.089880628237763383e-02
1.077027081013633492e+01,9.544598321173577982e-02,8.880243441422379369e-02
1.077797387739858692e+01,9.799645283211147473e-02,9.313893596604373715e-02
1.076730614294100619e+01,9.972804281646663327e-02,1.043831258410963247e-01
1.076595397875924398e+01,8.845173572968931253e-02,9.354183813258033775e-02
1.077300566626722400e+01,9.118139137564161556e-02,9.640083206604090071e-02
1.077813184259287915e+01,9.944406348348378000e-02,1.040901879360713322e-01
1.077654304900299209e+01,1.001651261694404826e-01,9.834872004320388550e-02
1.077562222787434720e+01,9.845330974045617134e-02,9.309003542606154868e-02
1.076992464620808043e+01,1.082338253536173911e-01,9.347928605278504888e-02
1.078301971872190101e+01,1.060257552138939574e-01,1.029129553269169939e-01
1.077572313161497775e+01,9.653576801470961644e-02,1.029118449782409767e-01
1.077526654614096380e+01,9.718375131071631257e-02,9.885570629650808350e-02
1.078418774485898446e+01,9.297460076870560364e-02,1.000136582262051710e-01
1.077219803804147880e+01,1.047204831931696084e-01,9.938384636126960936e-02
1.076992506746598721e+01,1.044892611828637241e-01,9.813788827230157663e-02
1.077030113436377690e+01,1.094364093327853116e-01,9.591164688148792750e-02
1.077780599337064160e+01,1.019044749264397809e-01,9.589189344581784680e-02
1.077830669452330348e+01,1.051806821764928318e-01,9.877312509669473883e-02
1.077118435482490177e+01,9.996513147890610795e-02,1.051112445608190366e-01
1.077199864074913016e+01,1.019012346970918498e-01,9.828210041732085567e-02
1.077058426590084927e+01,1.019194244321559445e-01,1.009206332795775374e-01
1.078483256911133736e+01,1.050002513698586465e-01,9.408568960097156431e-02
1.078115565556975497e+01,9.275995394946860706e-02,9.854965720050588851e-02
1.077067931894782937e+01,9.810189471033993469e-02,8.977150868500545500e-02
1.077189843366835120e+01,1.020224682763994639e-01,1.055087698755236558e-01
1.077789279813663903e+01,1.009543191824126690e-01,9.365462394137723245e-02
1.076928624152974123e+01,9.563579776609650029e-02,1.012636025265125639e-01
1.077420421160958419e+01,9.402812362569389071e-02,1.031304227708539634e-01
1.077535654978556678e+01,9.627160934289946681e-02,1.000725228600291977e-01
1.076988791040225379e+01,9.454864815883462503e-02,9.296663726468257227e-02
1.077961748030157629e+01,9.762945250384735818e-02,1.021662029438710068e-01
1.077761337685905652e+01,1.057451702428249818e-01,9.625531265895788391e-02
1.077177965520237457e+01,9.327468531259866524e-02,1.024265656484187603e-01
1.077465526994173395e+01,9.372797314411972225e-02,9.907793574151441129e-02
1.078099056790941113e+01,9.392723325964788539e-02,9.255896191860144007e-02
1.077494426865175470e+01,9.552045208301497559e-02,9.852542334134566093e-02
1.077118651009356043e+01,1.029829608103728228e-01,9.439244799599175173e-02
1.077588380699753756e+01,1.035656750250170954e-01,1.020721524549364073e-01
1.077943264523438494e+01,9.851640582254536649e-02,8.659362144561680297e-02
1.077387079187769281e+01,9.482506001982426991e-02,1.046404645573961456e-01
1.076578674303383565e+01,1.023968325421343029e-01,1.081107362426834556e-01
1.076947442459200310e+01,9.858656488101423532e-02,9.182772378143191916e-02
1.076036426563029913e+01,9.611600981830534240e-02,9.524894638755804221e-02
1.077196622076647259e+01,1.018362582574997011e-01,9.982317385241379348e-02
1.077149585733698522e+01,9.666629317518513065e-02,1.002459968790790218e-01
1.078162211991495312e+01,9.949122680459318580e-02,1.004172927130102533e-01
1.077628733979946674e+01,9.521526226174388541e-02,1.028429223314096946e-01
1.078440820361256236e+01,9.963340800734379887e-02,1.001940906149087623e-01
1.077031922072308134e+01,9.933433542805622518e-02,9.828927028215821149e-02
1.078419086251336800e+01,9.484637202803869460e-02,1.053505906929980418e-01
1.076818199993077663e+01,9.525928503995509389e-02,9.958873859653764871e-02
1.077656218202903027e+01,9.077281154428853971e-02,1.024492159619785625e-01
1.077945939245855378e+01,9.958271850975085326e-02,9.607811384823586320e-02
1.078045968261375442e+01,9.951569626933150226e-02,1.066998340546185947e-01
1.077437735985906997e+01,1.035827399652886893e-01,9.156131946523538012e-02
1.077292926418039443e+01,1.062920590886382854e-01,9.298877208904623992e-02
1.077013126607307569e+01,1.015304485860073214e-01,1.029340815586883701e-01
1.078105355908204110e+01,9.531814387705393743e-02,9.565545584777185306e-02
1.078006790324561770e+01,9.185579572105946611e-02,1.035812723444177880e-01
1.076994997522242592e+01,9.691012667824580595e-02,1.007085605254599142e-01
1.078081563439150337e+01,9.268918423343808222e-02,1.044040029942946701e-01
1.078629270558566056e+01,9.951898637205532083e-02,9.297989215552951436e-02
1.077575320154558725e+01,1.017072434694646921e-01,1.003795832815099209e-01
1.077162351373247517e+01,1.112810968163776143e-01,9.864754422741572881e-02
1.077263220946006506e+01,9.856775354195786154e-02,1.071578113985734437e-01
1.077706427013038848e+01,9.448849282710727882e-02,1.011296952719856479e-01
1.077152054916918189e+01,1.001083522936315195e-01,1.015624809421931257e-01
1.077686495400961597e+01,9.924062317432941205e-02,1.010558733370134771e-01
1.076879492804324734e+01,9.327444352842906294e-02,9.208649509730154614e-02
1.077531945697377935e+01,1.001844226179082892e-01,9.823082789471973553e-02
1.077657664651165348e+01,9.330476891441655263e-02,9.720585755324437360e-02
1.077281566187368256e+01,1.005909408719019849e-01,1.046845396672501372e-01
1.077175665524622339e+01,9.543921251896479718e-02,1.027857740644331913e-01
1.077684021513723955e+01,9.073490690017618765e-02,9.805377234332565695e-02
1.077422807399018190e+01,1.036884757698596921e-01,9.557260514530985240e-02
1.077075540785245167e+01,8.281948626758223186e-02,9.617107140517748565e-02
1.076844722341634686e+01,1.006880548858241076e-01,9.521598685706628151e-02
1.077458023247726260e+01,9.798280090524445762e-02,1.144996020317675806e-01
1.077925781400367811e+01,8.879919034581884585e-02,9.632909000715744741e-02
1.076588998163992628e+01,1.049553808697252094e-01,1.028641618903299720e-01
1.076564952565219180e+01,1.005484110455902719e-01,9.520141754948242829e-02
1.077498607200297975e+01,9.542037188506127809e-02,1.009080108782635377e-01
1.077884407193435301e+01,9.144060985940985486e-02,1.038853326959355006e-01
1.078412282381285081e+01,9.325872162388545994e-02,1.019422213254505410e-01
1.077158602669173781e+01,1.014488837442482083e-01,9.528304347406275909e-02
1.078247012957414874e+01,9.249847776226936824e-02,9.653074802138514321e-02
1.077564738312072024e+01,9.304641922368930840e-02,9.744639290191797754e-02
1.077393944094566614e+01,8.953197661495418402e-02,1.014586182754918658e-01
1.076810353853960578e+01,9.505009090976669628e-02,9.598282939600001618e-02
1.077587367308060706e+01,1.009675180119070231e-01,9.473062991585352866e-02
1.077488418410104742e+01,9.762523686524383904e-02,9.731518719240379867e-02
1.076724328135724384e+01,1.029627053348664278e-01,9.940057184215307651e-02
1.077473971424122823e+01,9.726193082300189918e-02,8.642230500079882416e-02
1.077442268867006092e+01,9.963665280378986022e-02,1.010041443974167702e-01
1.077702392906854989e+01,9.676275877169132622e-02,1.058547261281907736e-01
1.077395535028811580e+01,9.036126176604664106e-02,1.014618286093981747e-01
1.077537900559357809e+01,9.721327877402702322e-02,8.803259296002137468e-02
1.078144513469978349e+01,9.977932277698825514e-02,9.845946580359035694e-02
1.077714166847674626e+01,9.511822085331733678e-02,9.469461199055481671e-02
1.076389740057493150e+01,1.029814731316649329e-01,9.774793547888406542e-02
1.077205106058738160e+01,9.957590077588382438e-02,9.753697893892715465e-02
1.077924215825022536e+01,9.240300449481754497e-02,9.906146959681767783e-02
1.077277229878657749e+01,1.018269736819396587e-01,9.458727615670793620e-02
1.077417435590397332e+01,9.732471912978916950e-02,9.740132201293495717e-02
1.077382150169707842e+01,9.816347042133337364e-02,9.974973247622380412e-02
1.077672320060095146e+01,9.302263960757761740e-02,9.754286947537757491e-02
1.078076998593915370e+01,9.776840695197219766e-02,9.482817654318292933e-02
1.077045835646300276e+01,1.012618624783207244e-01,1.048204770116056561e-01
1.076863914151176616e+01,9.149005191912261414e-02,8.965665640920973678e-02
1.078005453379967982e+01,9.854519291036643869e-02,9.810930313766873245e-02
1.077364710929250613e+01,9.496888535542623300e-02,1.021554522127018222e-01
1.077506698113586658e+01,9.849309656298567417e-02,9.572616703276008721e-02
1.077812970342226073e+01,1.047353818090940580e-01,1.000973634558827569e-01
1.078143306160919579e+01,1.017458279146695732e-01,1.037218755714122281e-01
1.077521913506071982e+01,9.165095230327470477e-02,1.003318378527438687e-01
1.076939103739961645e+01,9.821824410829303742e-02,8.759976808563654793e-02
1.077672838712865300e+01,9.818582310309403871e-02,1.004628185134035512e-01
1.078117078430135756e+01,9.781429922562931423e-02,9.750476395318417866e-02
1.077848487756065943e+01,9.307119687385392859e-02,9.931670785694778070e-02
1.077505051467391972e+01,9.080584077482607708e-02,9.600752986071928174e-02
1.078604098603137729e+01,9.428118047240593991e-02,9.787573139544235301e-02
1.077399813788974114e+01,1.036939617287715304e-01,9.463809000216823197e-02
1.077910183132817501e+01,1.016697971729798311e-01,9.938357972298818288e-02
1.076898096980739084e+01,1.029262245476747495e-01,8.318442138588966195e-02
1.077949618528903031e+01,9.484880879665942566e-02,1.032147619654906617e-01
1.078321292920724872e+01,9.071660333464688641e-02,9.389172986145383204e-02
1.078614157871852086e+01,9.943832251635696673e-02,8.742041688128848742e-02
1.076623487319031014e+01,1.011810101909886850e-01,9.559235553573515454e-02
1.077662878251363665e+01,9.602055982801095679e-02,1.032686647260151053e-01
1.076786191832645301e+01,9.541933382947555276e-02,9.685063979659976063e-02
1.077817988636176594e+01,9.634123820174686492e-02,1.065874050883901802e-01
1.077372049628262296e+01,1.106906529989870880e-01,1.053955328856350793e-01
1.077747602501918323e+01,1.049409054889069298e-01,9.799246197389091528e-02
1.077751060575361919e+01,1.009595047040201116e-01,9.112892444908643474e-02
1.078125518290597995e+01,1.072694412701195310e-01,9.558980723244719924e-02
1.077165104458201128e+01,1.005198731941644996e-01,9.435203231785836697e-02
1.076964898333885579e+01,9.736773827339439968e-02,1.048442876522734241e-01
1.076741649181915683e+01,1.039992274521861076e-01,1.019691709966342175e-01
1.078147323514457234e+01,9.490035166644816833e-02,8.671946985812807596e-02
1.077950621392641217e+01,1.065134643635952671e-01,1.015854726724996909e-01
1.077098530847799296e+01,1.022728926043467435e-01,1.001218889060076084e-01
1.077882655219943153e+01,9.978374708516205005e-02,1.051402089366644393e-01
1.077281511789442803e+01,1.004518021736259953e-01,1.092890544764065219e-01
1.078175291967532345e+01,1.010297338489461738e-01,9.703904530581906884e-02
1.078098619053758433e+01,9.154677979198397320e-02,9.302210793786563903e-02
1.077822352752454726e+01,9.317608893420621652e-02,1.047569158746018553e-01
1.078095037430553660e+01,9.617521300615429480e-02,1.029039796715369298e-01
1.078002114057309235e+01,9.693228761744392130e-02,9.830958601901651495e-02
1.077806402634266725e+01,9.159706682395186983e-02,1.018689092642822008e-01
1.076676122074127306e+01,9.214165219875265767e-02,9.569831352423230353e-02
1.077366659402413518e+01,1.005792865859360952e-01,1.094276075761929506e-01
1.077677865460863948e+01,1.014592779040417031e-01,9.491767454026381334e-02
1.077958695399881783e+01,9.665817197511471226e-02,9.680055247703554799e-02
1.077393655114701865e+01,1.016699064405068437e-01,9.208896659038193211e-02
1.077001132704661579e+01,1.006548972003059317e-01,1.054435394455135039e-01
1.077121960164192771e+01,9.868264992125146129e-02,9.993225963285090607e-02
1.077872975860751303e+01,1.024684265823349871e-01,9.739763682672228362e-02
1.076957475633630068e+01,9.795016037064263603e-02,1.078269905583952581e-01
1.078287081067422903e+01,1.002978859280401341e-01,9.304024754013286158e-02
1.077265633613225049e+01,9.943538488860942381e-02,1.027423264681860543e-01
1.077376552981464108e+01,9.410458039299772481e-02,9.681099285024169498e-02
1.077109466836165197e+01,1.032415792699881291e-01,9.972823493651579441e-02
1.077335525916519998e+01,9.783460406164308509e-02,9.011485511922227853e-02
1.077482687736960187e+01,1.015442752242838170e-01,9.431570043298777295e-02
1.078068858329224078e+01,9.528485967659194866e-02,1.075223367031709482e-01
1.076785305369304524e+01,1.023491219026945037e-01,1.004461034582212892e-01
1.077724641933544092e+01,1.031416592784372838e-01,9.704969644236741133e-02
1.077611729535870211e+01,1.001339439321191072e-01,9.665120913402819314e-02
1.077869994452634828e+01,9.687995354204209653e-02,9.800133241707582876e-02
1.077241637911751937e+01,9.814318831671575705e-02,1.013057938976820449e-01
1.077518008725869514e+01,1.019263525475752191e-01,9.549109877065048435e-02
1.077726736434246213e+01,9.885202731734343828e-02,9.999011126085670387e-02
1.078042628457474450e+01,9.934457981953534467e-02,9.176448643117265935e-02
1.077111061393032188e+01,9.991339337029371548e-02,9.834465774035526520e-02
1.076872564353270434e+01,9.135871352299976267e-02,1.011122034389965729e-01
1.077664055100489726e+01,1.022758267195743170e-01,9.681304394718055761e-02
1.077630796278412539e+01,1.023319059902123712e-01,1.026112062339002706e-01
1.077266265766475861e+01,9.549042241970275013e-02,1.007132639215258529e-01
1.076683878765543767e+01,9.657376050625683661e-02,9.364392076722155567e-02
1.077215321760363054e+01,1.034117676913998973e-01,1.049876289645211846e-01
1.077191513373540133e+01,9.899623388443534733e-02,9.017485259621645100e-02
1.077491349286021993e+01,1.003412913501317144e-01,9.137208978308741791e-02
1.076999781066706952e+01,8.930601827808509752e-02,9.497082636676262846e-02
1.077294304860030216e+01,9.355449416044145372e-02,1.025958342358042757e-01
1.078270164365666872e+01,8.387217024136446597e-02,1.002232371584304282e-01
1.077398228270831737e+01,9.848631907809642094e-02,9.053267773355734571e-02
1.078287426821548500e+01,9.153116314757589467e-02,9.537924225102648035e-02
1.077995604855309253e+01,1.059611577765270790e-01,9.632901308379722416e-02
1.077008189596963383e+01,9.924089846231692880e-02,9.842128430267328698e-02
1.077628005189565208e+01,9.612371006682743357e-02,9.452341542330212898e-02
1.077799807099678198e+01,9.751431679792378626e-02,1.037985572615364449e-01
1.077579338149697286e+01,9.841174774434019445e-02,1.078351635776325229e-01
1.076959358881670070e+01,1.039355735786066104e-01,9.047081526552322450e-02
1.077156351152778413e+01,1.069284603499656428e-01,9.132537489776605677e-02
1.077397831181109211e+01,1.049114534354837619e-01,1.008607873248219822e-01
1.078094930892292247e+01,1.073590213943014238e-01,8.987159377323497567e-02
1.077311834381371192e+01,1.077838461229692901e-01,9.787313636139396977e-02
1.077303153822991533e+01,1.044376230829601182e-01,9.393995438683100385e-02
1.077352126987406322e+01,9.692118245813911848e-02,1.068513116152151332e-01
1.077274802151435296e+01,1.019590985886887069e-01,9.849476719672906055e-02
1.076803981289129375e+01,9.730128691948405906e-02,8.921747349897110602e-02
1.077034849560131313e+01,9.370980412360788159e-02,9.483121664901070225e-02
1.078123892303456799e+01,8.802181397374246596e-02,9.627514103030419823e-02
1.077864159958348189e+01,9.284887060321789232e-02,1.011313991738386209e-01
1.077770781973135250e+01,1.085703376791493369e-01,1.008461727270972275e-01
1.077240791346881288e+01,1.052076164797872693e-01,9.366216604273752688e-02
1.077979337456746300e+01,1.084522415321327038e-01,1.017083625284586207e-01
1.077274927837270013e+01,1.034749335608698417e-01,9.980654864349410016e-02
1.076876616225352379e+01,9.959117208519228936e-02,9.935855964815658303e-02
1.077332705578679573e+01,9.887856331423025558e-02,9.666674465858633714e-02
1.077184587449836783e+01,9.890434246426683951e-02,1.035549413644790834e-01
1.077149310337878774e+01,9.090715486006047119e-02,1.010389284861976517e-01
1.077239808021027656e+01,9.408745550356183152e-02,9.427678241774239964e-02
1.077283426233549513e+01,1.019210113910090088e-01,1.040747825040292951e-01
1.077676656948427159e+01,9.309528942786450545e-02,9.693446455581529453e-02
1.076883293269616715e+01,1.023134912624644871e-01,1.108206485888792309e-01
1.077254824794038868e+01,1.012326139536327690e-01,9.428600877287240944e-02
1.078126299165531421e+01,9.741469853562201298e-02,9.932668578669269499e-02
1.077245745485494588e+01,9.613402532740056294e-02,8.994505542926772845e-02
1.076628169706066096e+01,9.666208555537417202e-02,9.872639490936510609e-02
1.077643037097394263e+01,1.042934762421361961e-01,9.699052239320146707e-02
1.077129256257786061e+01,9.736917527405763995e-02,1.005239082328571454e-01
1.076697438322048406e+01,9.509765646159877572e-02,9.735509332889126510e-02
1.077399263331261459e+01,1.058966953455377918e-01,9.136275154594145076e-02
1.078159606956603156e+01,9.732413740193404661e-02,9.862334983576306890e-02
1.076654397951280728e+01,9.672987054330520196e-02,1.045886750704832641e-01
1.077389765997858362e+01,9.912477709661901559e-02,9.636778443640517389e-02
1.077010043701807795e+01,9.451547706232847623e-02,9.484843537112806755e-02
1.077635624090188493e+01,9.707211393956589884e-02,1.002583147275072500e-01
1.077265963797033699e+01,8.962847590273533005e-02,9.504979611198893785e-02
1.077200964000258843e+01,9.376599276389926962e-02,9.825821791370535629e-02
1.078127092975181078e+01,1.028215914144990500e-01,9.832391250843820762e-02
1.077103005122357793e+01,9.871020818279188647e-02,9.721133421554598031e-02
1.077588027663826331e+01,1.043703030240382135e-01,9.606637701534478935e-02
1.077526224777741959e+01,1.029750462798156851e-01,9.468362893798713820e-02
1.076950192437470477e+01,9.419205500308598655e-02,9.486689475033864560e-02
1.077799590701112642e+01,9.962684532208591903e-02,9.972526282861890468e-02
1.077554610697002779e+01,1.044181306936781406e-01,8.582944952994581156e-02
1.078111298626214243e+01,1.001648717090691115e-01,9.811374406592680841e-02
1.078168821683897605e+01,9.576614602805823273e-02,1.005013212209364681e-01
1.076383513103577094e+01,9.969524393144628405e-02,9.821480141410605935e-02
1.077099377915919831e+01,9.338333212671746930e-02,9.976886075418137101e-02
1.077040642258343794e+01,9.249646693038832135e-02,9.763206245190059196e-02
1.077159514927278749e+01,9.130916407916567223e-02,9.541677953712275617e-02
1.078313937092606167e+01,9.220094786625418481e-02,1.015156763513261895e-01
1.075609462308479536e+01,1.017280803121289184e-01,9.819607489374862497e-02
1.077364353973191591e+01,9.956851441461633812e-02,9.172492384682216782e-02
1.076874227803875783e+01,9.419273956077317544e-02,9.968349106931516379e-02
1.077952507127132975e+01,9.511917738384817467e-02,9.761185614493668450e-02
1.076757869956541214e+01,9.076526990019294361e-02,1.018288942680938697e-01
1.076742266471913645e+01,1.120199558918495153e-01,9.653849749155046789e-02
1.077655455938758955e+01,9.476919976464280582e-02,9.213606422855859235e-02
1.076630004937267948e+01,9.649586806791178584e-02,8.547091158334327310e-02
1.077178799338801873e+01,1.050001554236228984e-01,9.985352352854727498e-02
1.078195797356948304e+01,1.001244714846457468e-01,9.585643201383854672e-02
1.076989235306920634e+01,1.086008692889924299e-01,8.911452132259235770e-02
1.077927337498573301e+01,1.006259361215954135e-01,9.583643854172617382e-02
1.077639423594697909e+01,1.012083115741982120e-01,1.025334248396926468e-01
1.076905270418558125e+01,9.818325372357160352e-02,1.073038902264560751e-01
1.078236884637880522e+01,1.027908145639668536e-01,9.511469587650758784e-02
1.077569441307836762e+01,1.033826121087144390e-01,9.338783932673565269e-02
1.076686946963097036e+01,9.986312683044938632e-02,1.032989660168200652e-01
1.077369969221006762e+01,9.907656613811731405e-02,9.866689343508865118e-02
1.077669758382960552e+01,9.666322614662078982e-02,1.032955030386113748e-01
1.077390403519603268e+01,1.004381957903695000e-01,9.600272192137855598e-02
1.077295345927857717e+01,8.950209532695413417e-02,9.433095395712291775e-02
1.077388701906921220e+01,1.011964209585288210e-01,9.861584650689152187e-02
1.078000535713079699e+01,9.888140807786154063e-02,1.025057907870759871e-01
1.077360997432771583e+01,9.171140330265946383e-02,9.215968839168470206e-02
1.076763839524671695e+01,1.029839967125324579e-01,9.694171100151795228e-02
1.078138036894072549e+01,9.843652224031705644e-02,1.003388205112722698e-01
1.077038229605540742e+01,1.004832467462654227e-01,9.826231801344016692e-02
1.076850649018211392e+01,1.046138146452379875e-01,9.701836631489631213e-02
1.078035886814982014e+01,1.074131601232815036e-01,9.349375929947160990e-02
1.078412793829247995e+01,9.280036016674093891e-02,9.905170560817305736e-02
1.077698019805221819e+01,9.475155854940307820e-02,1.041974159542355671e-01
1.077292535330792411e+01,9.887156180943632022e-02,9.535589831443669340e-02
1.077737075775053910e+01,9.012834070837186240e-02,9.425125036176329463e-02
1.076705599014728065e+01,1.063496557320715713e-01,9.776392921512516709e-02
1.077844011720112505e+01,9.781442554858767180e-02,9.961200285745508420e-02
1.077029491618089274e+01,1.100197717981206691e-01,9.834973896680870853e-02
1.077369263012634271e+01,1.003547865116693610e-01,1.022891619544144259e-01
1.078064853383205879e+01,9.600382742488283716e-02,1.025352183973884113e-01
1.077227484577000638e+01,9.409007528280409483e-02,1.017112976258002510e-01
1.077019159616143718e+01,1.009566342081733709e-01,9.347796681056226575e-02
1.077333086411256424e+01,1.052367871823536583e-01,1.084204127032532966e-01
1.077408387482441832e+01,9.047084909841049405e-02,1.072854664497838173e-01
1.077698735600571922e+01,1.027515553018640976e-01,9.364295690295702801e-02
1.077472670530421262e+01,1.046250951769122500e-01,1.029434045552285876e-01
1.077388607640053664e+01,9.650901907152564796e-02,9.434908762584168218e-02
1.077358928143499917e+01,9.918669594961714020e-02,1.051827027329169106e-01
1.078140308673286718e+01,1.022598617399417126e-01,9.645898371898914414e-02
1.077959761360074786e+01,9.632935559790434255e-02,1.073655196408174334e-01
1.076686690926962164e+01,9.669221384927054186e-02,9.464417224451111832e-02
1.076658331740785357e+01,9.760021532460382010e-02,9.759412494041952435e-02
1.077379750043286855e+01,1.030026911515612431e-01,1.011397132044669772e-01
1.077161806019187118e+01,9.312803724271613570e-02,1.057466477378363467e-01
1.077302014785417050e+01,9.576573509096197867e-02,9.792084069399739632e-02
1.077753952377510949e+01,9.980902403541619394e-02,9.448434237418211479e-02
1.076852180159870720e+01,1.021022467938060563e-01,9.939751418322022303e-02
1.077491350927209091e+01,9.748318210772345671e-02,1.010147433009459667e-01
1.077507548764005740e+01,1.051935311046052063e-01,1.005193481624149648e-01
1.077473266028829535e+01,8.281216361908906587e-02,9.814695701172178322e-02
1.077814150572817375e+01,1.054962504185018995e-01,9.775457077793983651e-02
1.077730091167978088e+01,9.552914898972159063e-02,9.536064511173744651e-02
1.078270579001337737e+01,8.425906895375076533e-02,8.994592693178939113e-02
1.077271419377121298e+01,9.872272206257381999e-02,1.076724278251689482e-01
1.076985439430952241e+01,9.110678689452117451e-02,9.962164360941516694e-02
1.077757261949537160e+01,1.007013873457776737e-01,9.788177534719726125e-02
1.077299688571947911e+01,9.760148012013254715e-02,9.908529112258927796e-02
1.077577751957305452e+01,1.002089543842147323e-01,1.067225811613517344e-01
1.077041481664908851e+01,9.882550232830394910e-02,9.771583297316054073e-02
1.077380221032123409e+01,9.856177872148003116e-02,9.868198784276763225e-02
1.077376320942922305e+01,9.420676331231025991e-02,9.843629637518348796e-02
1.077234724312994629e+01,9.914329646629077564e-02,9.691046659361307603e-02
1.077228428600738219e+01,9.887031068153989688e-02,1.036165761024890608e-01
1.077350329149258812e+01,1.025958308986562872e-01,1.047180875485290291e-01
1.076573756848418562e+01,1.074662236517320846e-01,9.771471374536735977e-02
1.078480514982781280e+01,9.034673225332669200e-02,9.877232151774346935e-02
1.076256555943379567e+01,9.821648487720997800e-02,9.350725311994478872e-02
1.078733679190127503e+01,9.674259067886853414e-02,1.040224890591070206e-01
1.077893993551644236e+01,1.014129005229746361e-01,9.743072811737593653e-02
1.076589066251327509e+01,9.749751055021391166e-02,9.766830505100196347e-02
1.077354553108902735e+01,1.003150750653311607e-01,1.047502234231741103e-01
1.077886422541888045e+01,9.343977666382653757e-02,1.008669131263335156e-01
1.077568924467959022e+01,1.049375939159726268e-01,9.943005532085795461e-02
1.077857386097260139e+01,9.314815009585228345e-02,9.531041218104334412e-02
1.077876789553281789e+01,1.036544075866702164e-01,9.734895109249724898e-02
1.078264312149378412e+01,9.251730859810107510e-02,1.011898563436594567e-01
1.077372706141803071e+01,1.006734683473926306e-01,9.712890379130137419e-02
1.077604926488407777e+01,1.008735969078079220e-01,9.719576604551323495e-02
1.078179822954258249e+01,9.797823366273429591e-02,9.513605309057771020e-02
1.077689309309196020e+01,9.664679530279078612e-02,1.017950964550253801e-01
1.078453553314212243e+01,1.007463360390821183e-01,1.009185750103759743e-01
1.077351904142573602e+01,1.078405069422482820e-01,9.308357314233048352e-02
1.077393706809320761e+01,9.345928174605748484e-02,9.372533718252019919e-02
1.076815603153034573e+01,1.035002215312435525e-01,9.975807785471092759e-02
1.077584921629859060e+01,9.074747746094348477e-02,9.771678460868296612e-02
1.077295530661694123e+01,9.965844819471997296e-02,1.058306291328073856e-01
1.076796956114574577e+01,9.854520182296891417e-02,1.056300489343400539e-01
1.077540346764252632e+01,1.093580322039786612e-01,1.074774533027021001e-01
1.076327882966687177e+01,1.029470649860672743e-01,1.026445134886115051e-01
1.077295590012037607e+01,9.283592620507387372e-02,9.936634176403903729e-02
1.077814068674656944e+01,1.065164119906832352e-01,1.087268066980224407e-01
1.076564987021785136e+01,1.040688094429907951e-01,9.470419840407751089e-02
1.077578025254217486e+01,1.023375483905362565e-01,9.800471548644275332e-02
1.078236116612728424e+01,9.627284724476208033e-02,1.001414076175330403e-01
1.077898641104428457e+01,1.008883121594132820e-01,9.127226236421834282e-02
1.077735597260015155e+01,9.464012541202684869e-02,9.003696186587342720e-02
1.077401778086578865e+01,9.700572860026793198e-02,1.100673079845515129e-01
1.077232903918830509e+01,9.884976254873713286e-02,9.291499107931061596e-02
1.076900998439025159e+01,1.029258698484087076e-01,1.021356209836381812e-01
1.077463095931681103e+01,1.060546663755867758e-01,1.011056736669869033e-01
1.076863150741357522e+01,1.016325995428815632e-01,1.022417432613034055e-01
1.078008707337202843e+01,1.014449875231312470e-01,9.528500240352932860e-02
1.077564685303458880e+01,1.012676729052629648e-01,1.012461280598847269e-01
1.078273648697199327e+01,9.995544604737446881e-02,1.019228213300692326e-01
1.078071699946343820e+01,1.001837206916581929e-01,1.020430155114263743e-01
1.077166923819525302e+01,1.103776423854306021e-01,9.570986601958396400e-02
1.077670608042787137e+01,9.295411783840704101e-02,9.893245935278653647e-02
1.077878606354572533e+01,1.035013224421461042e-01,9.767310588145852734e-02
1.078462423019029615e+01,1.010571105598969122e-01,9.842998003539171759e-02
1.077513079604689317e+01,9.689084149817328573e-02,1.011428141030831229e-01
1.077378881225153506e+01,8.993891002580686744e-02,9.685796280280424553e-02
1.077499311519621372e+01,9.255900336342993973e-02,9.071789776510254255e-02
1.077386493852556626e+01,9.563226503037937365e-02,8.950722094277829832e-02
1.077925043989344722e+01,9.224227926932956900e-02,9.429595707222529488e-02
1.077994753370279035e+01,9.270402108989758694e-02,9.051810619554263859e-02
1.078151078258483153e+01,9.608080358515908026e-02,9.457455649266702236e-02
1.078021465806882340e+01,1.004614632129170321e-01,9.285405944769666020e-02
1.077387544256419361e+01,9.777332130007777844e-02,9.067453719560472636e-02
1.077022370935331708e+01,9.497284570230046796e-02,9.911109398122573688e-02
1.077605709275285051e+01,9.282942952507386436e-02,1.061279423549335160e-01
1.077174450823513396e+01,1.017252461937711294e-01,9.561803023111345445e-02
1.077224988237258252e+01,1.040514942600192783e-01,9.041168468781926593e-02
1.077411949080496711e+01,9.476099559036460507e-02,9.823980826060807470e-02
1.078038128408649854e+01,1.088984616911962827e-01,9.203343921406768879e-02
1.078424058989043210e+01,9.732276621816733642e-02,1.039090617783893500e-01
1.077220635945649363e+01,9.872556823939900028e-02,9.192354874922772923e-02
1.078109760940481365e+01,1.057945449146843048e-01,1.000645236498247242e-01
1.078242738951903590e+01,9.999666048602703916e-02,9.457861450305875273e-02
1.076956755236260577e+01,1.003353979037121257e-01,1.031063740458675049e-01
1.077004468187661956e+01,9.782366065017190915e-02,1.027589944950226958e-01
1.077229807947199269e+01,1.005943213109088546e-01,9.839650068602277810e-02
1.077532672227886934e+01,8.924280767916607793e-02,1.000938683514698141e-01
1.077469778871954986e+01,9.299177838725133927e-02,1.001799460018762550e-01
1.077453815219062427e+01,9.879353010126366852e-02,1.021654591852869387e-01
1.077342457893599104e+01,9.329213938425821862e-02,9.758224128060118130e-02
1.077014866587865605e+01,9.249639512785765016e-02,9.478136157518467220e-02
1.077736881878908903e+01,9.796641916378430459e-02,9.266951683723277655e-02
1.078350691538105544e+01,9.356479659829547435e-02,9.803056246996137701e-02
1.076895560607011681e+01,9.696806655957344867e-02,9.965188044638131903e-02
1.077382674971504350e+01,1.003501309088667415e-01,9.728021388194807439e-02
1.077214203259495129e+01,1.036111056373087425e-01,9.780509756129190935e-02
1.077729306519073305e+01,9.818839479067895115e-02,1.028402240843869220e-01
1.077787034056525250e+01,9.766941044672138028e-02,1.033096352012803087e-01
1.077157252162202639e+01,8.998837103040915886e-02,1.056096306227731207e-01
1.077730481212999614e+01,1.001336553354061909e-01,9.259960411196065111e-02
1.078026763532770183e+01,1.012823161758922980e-01,9.650693106603179527e-02
1.076565868599521103e+01,9.728032348527049233e-02,9.628779926031752479e-02
1.078166342243686771e+01,1.012694219939196671e-01,8.564262660279613193e-02
1.078107890391595802e+01,9.172592333251344821e-02,9.390300654859937146e-02
1.077229184812795104e+01,1.060102511150534249e-01,9.173944536638374558e-02
1.077470377739154728e+01,1.085487860869024657e-01,1.009063449640770355e-01
1.077880511748425540e+01,8.995309020739297723e-02,1.000980244913151074e-01
1.077530223444522051e+01,1.051653649394194007e-01,9.757555661609045028e-02
1.077375985795433699e+01,1.015700458950631879e-01,1.043542288327049261e-01
1.077938353673648741e+01,1.029510156815745814e-01,9.694968972691493658e-02
1.078319428615983178e+01,1.032304571595692166e-01,9.762468134492546801e-02
1.077026441212035657e+01,9.875326727546607231e-02,9.549931812536560649e-02
1.077524022350912247e+01,1.003650254036362044e-01,1.006917384159516649e-01
1.078370077463545407e+01,9.811538574109436583e-02,9.813690936071740867e-02
1.076720512025772614e+01,9.800531726151151535e-02,9.745840055989403450e-02
1.077045760699872190e+01,9.313028906354088587e-02,9.937198952544626374e-02
1.078556442346898869e+01,9.496403118702313739e-02,9.521697599179079763e-02
1.077130572280418086e+01,9.740292190502969349e-02,1.071366436626346313e-01
1.077334217989294274e+01,1.030527385601801710e-01,1.026717585731489746e-01
1.076692090700265858e+01,1.045548432235837710e-01,9.824340981581203280e-02
1.078189291401547756e+01,8.683931512790121765e-02,9.823324920654877279e-02
1.077436829610048008e+01,1.007624756404389421e-01,1.037031148905207395e-01
1.078115590875395213e+01,1.031049707993477865e-01,8.784172235558949937e-02
1.077954558931337026e+01,9.920258064995335356e-02,1.048624285998487476e-01
1.078088075197854678e+01,1.007467864910455979e-01,9.490247326392250993e-02
1.077140657737269969e+01,9.982015686263343013e-02,9.512054925448597265e-02
1.077630481988405542e+01,9.021132366316797491e-02,9.531200963071437271e-02
1.077267340773583726e+01,1.044283689157076422e-01,9.555673551503776619e-02
1.077063901153371006e+01,1.013878696320889700e-01,9.404104836116668198e-02
1.076680902902926107e+01,9.820411064595177542e-02,9.928665949146679714e-02
1.077908156508381765e+01,1.000525494102294244e-01,1.068726117842880019e-01
1.078624355908235444e+01,9.844061397075766495e-02,9.518915474281998412e-02
1.077925612094260721e+01,1.025473660389164543e-01,1.030847145314212621e-01
1.077988888609368701e+01,1.068389835776169527e-01,9.802920618174346123e-02
1.077365056190055448e+01,9.423782921841182547e-02,9.014219971409406784e-02
1.076959304411015594e+01,8.754065739228264476e-02,1.059191807938379415e-01
1.077172101089247214e+01,8.809078932126251926e-02,9.433339293024153860e-02
1.076754483676075935e+01,9.140414278092830191e-02,1.001020836736245950e-01
1.077939535056196263e+01,1.045720869210382264e-01,9.508462813606199937e-02
1.077730370932617099e+01,1.040535072198848776e-01,1.005724020600360508e-01
1.076757025165063730e+01,1.026206876487561481e-01,1.066055702201932076e-01
1.077155216304739405e+01,1.094662472320100249e-01,9.577149250713608286e-02
1.078823318845148194e+01,1.005784889015377964e-01,9.761566355781280124e-02
1.076995979354929034e+01,9.855135756679957171e-02,1.047580292575003569e-01
1.077410431190020113e+01,9.555959215974806076e-02,1.070407432357350364e-01
1.077531421352508190e+01,1.058403489926853930e-01,1.039543766911905226e-01
1.077953322501691247e+01,1.067618409530542850e-01,1.025629388104566109e-01
1.077849663069923558e+01,9.075199291285696024e-02,9.001159492036729659e-02
1.078068155129513883e+01,1.027052363362045834e-01,1.009943244295568032e-01
1.076571087494522239e+01,9.656566334136902630e-02,9.549294789113799142e-02
1.076903885017610563e+01,8.382456287112512172e-02,9.763123253016889325e-02
1.075952183935820727e+01,9.761446448798297149e-02,9.329029339828937006e-02
1.077696795022791676e+01,9.902752158994058973e-02,8.996725786585356432e-02
1.077647017644916438e+01,1.033017899376928034e-01,9.658647162844442857e-02
1.076974899511714590e+01,9.763522914947019016e-02,1.047039016826727120e-01
1.077177510505874380e+01,9.512201003935347177e-02,9.919036194060111555e-02
1.077563032736564530e+01,9.466502229958972947e-02,1.053665682977804191e-01
1.077032086667711752e+01,1.004327912717367793e-01,9.725327593652853542e-02
1.076633351172632480e+01,9.600204256265484903e-02,1.023104176407543253e-01
1.076826385956991317e+01,9.795709555624859677e-02,1.050099585554726545e-01
1.077812223777618783e+01,1.070132724385104983e-01,9.492957215459810194e-02
1.077776185834742328e+01,1.018208697846295641e-01,9.956115986527637463e-02
1.077080354146161234e+01,1.000430261572321233e-01,9.406835748738910652e-02
1.077602317385485087e+01,9.583490799243324365e-02,8.890949262001059117e-02
1.077875051731242451e+01,1.022656589808622896e-01,9.267719487329512118e-02
1.076740271183431830e+01,9.520408756859952137e-02,1.072419511958093430e-01
