gyro_x (deg/s),gyro_y (deg/s),gyro_z (deg/s)
4.541957633850878251e-01,4.850642970472790472e-01,4.527740397660432459e-01
4.309471858227951202e-01,4.851748745063318435e-01,5.235397578009772790e-01
5.616405440506458957e-01,5.403240328762572986e-01,4.384094481584779879e-01
4.776533040341660596e-01,4.884235940053338609e-01,5.515094520541525824e-01
4.265164414237627155e-01,4.687337559019368882e-01,5.104958122276407328e-01
4.550261584731774001e-01,5.395308303922167203e-01,4.592019333342238774e-01
5.327081471362152820e-01,4.687622534592735257e-01,4.820312220916735391e-01
5.051408971317788987e-01,5.375590922079154232e-01,4.389646057921274824e-01
5.030048876898920440e-01,4.827269055047423429e-01,5.422457659138454344e-01
4.411423001497941088e-01,5.409358849844366768e-01,5.301054053372492580e-01
4.398305958920155634e-01,4.812009708416716269e-01,5.062387030245488750e-01
5.332474824798133506e-01,5.237768317622402137e-01,5.245747265237842294e-01
5.349453814626844439e-01,5.128213367215076479e-01,5.088896580046906593e-01
5.033795924630301011e-01,5.541443235975693771e-01,4.559245308298538468e-01
4.606297739396614244e-01,4.648919998385283581e-01,4.798959354878230554e-01
4.676403398888286378e-01,5.661824003504316583e-01,5.061195373779814322e-01
4.876475587646220133e-01,4.845502609691546003e-01,4.880756761797471754e-01
4.339229713911079700e-01,4.437957504141536447e-01,5.301020124631478092e-01
4.127480466900278477e-01,5.005725994858081229e-01,6.028264037249275731e-01
5.292093082506797996e-01,4.828156039139609446e-01,5.347320917770583826e-01
5.482307487904719556e-01,5.870838410359804360e-01,4.767884559365494490e-01
5.254067789983323244e-01,5.257740757703276424e-01,4.749145038466879853e-01
4.772757556211744134e-01,5.047199075000823321e-01,5.432395351997333366e-01
4.783572921143487422e-01,4.930470819766288870e-01,4.806192815665389362e-01
4.785781657717358972e-01,5.105191073648240874e-01,4.991549500790141702e-01
5.160742278150644013e-01,4.562041090052095238e-01,4.823913717036536486e-01
4.817093474907310768e-01,5.063155915860277911e-01,4.381285309941385653e-01
5.175046351256914479e-01,4.760535331222104372e-01,5.587005855241535812e-01
5.322028728550081134e-01,4.597848129434889408e-01,4.834429533890517994e-01
4.979287113120468566e-01,4.725517979878789410e-01,4.996676097619756063e-01
4.533730803117269059e-01,5.146843519830802682e-01,5.050233189709294468e-01
4.937381260381965009e-01,4.985603393641044323e-01,4.498902089701576346e-01
4.070352397527122745e-01,4.336124478043182906e-01,4.949155370321761671e-01
4.964485224439714739e-01,4.815520229478646996e-01,5.353454765314148434e-01
4.585079161220488309e-01,4.955623455319910775e-01,4.871586220538116074e-01
5.003015414502931524e-01,5.652952833247774089e-01,5.362024346666929286e-01
5.381917138005853918e-01,4.203115598079973925e-01,5.057916476253134785e-01
5.701957191496108690e-01,4.861132658522324679e-01,5.281781685744864063e-01
4.505272918247305025e-01,4.967464218164939771e-01,4.835933229517722087e-01
5.078661277710277977e-01,4.420454161853050734e-01,4.778318748383793002e-01
5.023983025916598510e-01,5.241875040371631878e-01,4.911741763904137748e-01
5.182837608096224624e-01,4.750732839013734887e-01,3.872404958262701813e-01
5.005299305476581528e-01,4.473028959154099482e-01,4.560505779749465249e-01
4.575814459066711026e-01,6.051314147828191770e-01,5.338974742762059300e-01
4.234542559886761426e-01,4.885116315123910757e-01,5.637496296675251761e-01
4.938109519198959907e-01,5.084403443027079028e-01,5.394557959713952577e-01
4.425267629455962304e-01,4.751774150268507912e-01,4.988025172132162233e-01
4.579336924626963290e-01,5.526956039278946298e-01,4.980765944109299403e-01
4.436119164130597481e-01,4.196146886137866461e-01,5.648517646871974440e-01
5.460813974090370504e-01,4.592701745136310021e-01,4.795811332180064390e-01
6.006255713455297407e-01,5.436585475477607732e-01,4.129293958312848511e-01
4.852149982525552074e-01,4.460137602587055383e-01,4.971553995573054219e-01
5.353429156897470120e-01,4.403821916042645612e-01,5.202830483561273756e-01
4.244013870212353101e-01,5.198294957656786064e-01,5.576235252625888483e-01
4.990871300563799462e-01,5.136266884773146302e-01,5.243746554802350968e-01
5.488614071212580825e-01,6.206216234493410200e-01,4.461675383332053269e-01
5.134237951764186736e-01,5.079608736270087022e-01,3.954281324307389323e-01
5.360947947689610471e-01,4.706955863839749621e-01,4.369046012642970878e-01
4.550190891977211605e-01,4.770921106233354525e-01,4.881590703535853004e-01
4.773210132699434727e-01,3.612125824738961488e-01,5.104211461984566878e-01
5.297804246704486131e-01,4.816040682861066347e-01,5.248210259083603280e-01
5.564403643564775903e-01,5.307552145409455413e-01,6.148052935849258605e-01
5.520770682789685191e-01,5.154070456119906884e-01,5.137764346368229873e-01
4.617869372211456103e-01,4.844096765224764067e-01,5.127044074270836749e-01
5.939107648367301096e-01,4.495380335787335091e-01,5.245866877157300268e-01
5.262776646858564611e-01,5.569590638629422497e-01,5.006701411445722005e-01
4.914564228518835676e-01,4.167766650843173215e-01,4.973150684394670451e-01
4.683885150528898089e-01,5.186174864420068920e-01,5.304731743618680273e-01
4.296816582252981909e-01,5.713933469175502822e-01,5.201264126917113373e-01
4.660458464550948920e-01,4.843158820847044965e-01,5.151452484062061243e-01
5.086457433375715098e-01,4.796349876684429803e-01,5.519681746710103365e-01
5.154451419714058957e-01,4.600196845218438302e-01,4.816082241253600849e-01
5.061969433950778141e-01,5.609780919010882716e-01,4.740887624863127647e-01
6.008583254060048118e-01,4.961569475908670368e-01,4.890607059503430110e-01
5.708519982991621111e-01,4.181895903544142756e-01,4.301157688127589251e-01
5.368796830370345941e-01,4.415884037183120392e-01,5.229195354664269990e-01
5.056970748462972232e-01,5.190691425603645159e-01,5.437547310562065306e-01
5.396318690544664731e-01,4.779267768881744205e-01,5.098218250570197840e-01
4.908475068573368572e-01,4.523808379040442640e-01,4.734048837202049498e-01
5.204054622865227353e-01,5.522010672506763029e-01,5.067783677406290099e-01
4.623041000553008706e-01,5.816188056100277670e-01,5.214109113925864403e-01
4.845785352799273360e-01,4.359498428219620303e-01,5.196733411827746396e-01
4.200096176358762423e-01,4.610110612956209719e-01,4.814047604146508563e-01
5.399617902428515137e-01,5.399154947718627362e-01,4.818318809155375804e-01
5.581822953297554957e-01,4.236478889897014599e-01,4.934297832844370402e-01
4.637554736481883100e-01,4.622293698875651335e-01,5.155912493456328294e-01
4.563476022344001293e-01,4.632664225610774733e-01,5.848331403738925571e-01
4.972306321314692856e-01,5.207500092161760907e-01,5.386085015392556574e-01
4.762946825279602003e-01,4.971811825346517111e-01,5.608114567340172218e-01
5.398541988292656635e-01,5.301554410653889216e-01,5.492030030572121468e-01
4.526073406936880206e-01,5.181887086326879555e-01,4.848146188435175641e-01
5.304910752404512486e-01,5.099135173119702102e-01,4.934624149450131392e-01
4.534015960538950729e-01,5.476606150569085507e-01,5.108424695476497801e-01
5.471103908823038431e-01,4.919158545324138210e-01,5.137088365044687466e-01
5.273361179108714270e-01,5.122911724822943880e-01,4.428931884529567764e-01
4.690386263154327495e-01,4.936164950137585383e-01,4.863146901673608413e-01
4.999871541970658528e-01,4.965876772415088181e-01,5.243613718253881117e-01
4.720308487919468998e-01,5.611162594511517332e-01,4.762793263164991076e-01
4.960248210067860763e-01,5.444612799488719457e-01,5.547661582470452268e-01
5.723298694636134165e-01,5.324841162686015927e-01,5.902726270553088073e-01
4.958527227805732407e-01,6.017268060876909130e-01,5.153614359327308714e-01
4.967919626359245111e-01,5.559650777515480202e-01,5.170637332407788112e-01
5.939576295900110825e-01,4.744003353532099676e-01,5.776090909119699912e-01
5.101877234455297616e-01,5.121296218746042017e-01,5.089367856454048988e-01
5.021174033746197418e-01,5.255239369663483595e-01,5.047940861865691797e-01
4.593837449316095500e-01,4.823082147834173994e-01,5.261119720741708194e-01
5.259283970502101058e-01,5.526341745129565997e-01,5.074284907314394744e-01
5.416422798988106413e-01,4.853306428584051591e-01,4.917547399052291657e-01
4.903793582237933601e-01,5.483971382405740114e-01,5.103863493898844750e-01
4.202941871468322543e-01,4.884356504120554998e-01,4.615475239208032265e-01
5.194997589239358504e-01,5.814879059318104337e-01,4.207076049969916132e-01
4.856444339652244979e-01,5.285327603828831045e-01,4.850409632369046542e-01
5.511525713674555460e-01,5.143478642649046417e-01,5.158617712480996209e-01
5.233846103487782564e-01,3.967294607375145832e-01,5.174025354556119893e-01
4.893091832717025857e-01,4.425706605595942089e-01,5.666328023694892080e-01
4.348840098391830167e-01,4.738154915598106753e-01,5.299466253167616214e-01
4.526842361106380164e-01,5.403305511195881650e-01,4.700944649521344165e-01
5.204938932396718787e-01,4.091924875724527455e-01,5.163748855713345964e-01
5.741341817077892928e-01,4.903527043767230698e-01,5.297302374244472478e-01
5.007936141568763988e-01,5.402777573413521939e-01,5.455041546352702442e-01
5.485054144599821324e-01,4.261345818628520243e-01,5.402034316169223027e-01
5.783332125703869453e-01,5.419949096480690676e-01,5.647548135991534712e-01
5.095565817811448239e-01,4.861105518764084477e-01,4.780649039808339551e-01
5.435399437119426969e-01,4.824788192207039028e-01,5.212614177842942453e-01
4.736987107896696303e-01,4.357208636689697268e-01,4.572022742179743804e-01
4.210184397396967704e-01,4.650211005765669814e-01,5.137592388599111493e-01
5.174787591432964406e-01,5.260919676563564629e-01,5.074615829939709277e-01
5.055961644589919146e-01,4.069444534460952001e-01,4.693018592734337080e-01
4.985313052044361148e-01,4.955313110767697315e-01,4.730079702253579543e-01
4.370497240337478662e-01,5.640485851452866628e-01,4.723793977349444728e-01
5.509305030272655390e-01,4.540092753886182386e-01,4.771486615880490834e-01
4.857018144304078300e-01,3.612360063783737196e-01,5.057518980322871505e-01
5.286419073734481833e-01,4.850629091422509198e-01,5.628506747980770442e-01
5.131797175619090545e-01,4.625153989986083847e-01,4.750785812466110092e-01
5.376452005062078987e-01,4.858030866022552963e-01,4.668493000512189406e-01
4.881656758585615208e-01,5.276254894143902474e-01,4.917502855925285354e-01
4.885318185043907024e-01,5.200699799653281108e-01,4.969856553260303955e-01
5.361228743011346998e-01,4.302685343196226975e-01,5.842901737471578594e-01
4.963513772181416539e-01,4.634293473394880958e-01,4.652133568881194892e-01
4.638029083605500480e-01,4.817624751004652150e-01,4.668469166732692188e-01
4.841139260129392885e-01,4.236992573292594488e-01,4.873550105598002946e-01
4.548092018947069715e-01,5.514741780592272713e-01,5.734514661075728048e-01
5.216051466707658513e-01,4.797013961066522447e-01,5.251280479480590069e-01
4.618541379337331998e-01,5.175505791724418492e-01,5.088147913159508651e-01
5.428433163238551851e-01,5.184277691242508146e-01,4.758095829643868013e-01
4.535085588385176503e-01,5.141949594527759348e-01,4.482207971637402477e-01
4.562524756966739869e-01,5.107334437181223485e-01,4.843520471882741818e-01
4.570502600959307493e-01,4.608717902037842706e-01,5.258529133233111885e-01
5.258423559849314532e-01,5.517215803991308842e-01,4.686967852633990850e-01
4.376836096913744312e-01,4.943414100043487247e-01,5.176371648508040213e-01
4.702466714179763252e-01,5.473323965333106722e-01,4.808910851348661142e-01
5.020778272933292818e-01,5.037761939574652015e-01,4.565450834649385503e-01
5.071656534179390663e-01,4.844210477351486022e-01,5.572263902474504649e-01
5.658651542163699588e-01,4.494382145976690279e-01,4.776829186683052564e-01
4.861946556078256543e-01,4.937114230132947923e-01,5.065146796314914379e-01
5.029623449232800692e-01,5.291945995851559115e-01,5.500825418010932832e-01
4.692364162066684496e-01,5.303023664937974724e-01,4.664069968329747073e-01
5.154943486046542622e-01,5.206594290441444173e-01,4.953185238262237666e-01
5.696706369775411671e-01,5.639939895719605634e-01,4.991067909718296947e-01
4.662185663360269849e-01,5.538376603024793843e-01,4.726383988063184161e-01
4.979665819947967642e-01,4.845295706135621661e-01,5.150212860655645208e-01
4.567853775526876103e-01,5.037155751979387475e-01,4.924711411220786261e-01
4.685759329360378311e-01,5.178997566471073011e-01,5.186706503732865237e-01
5.849119875838676430e-01,5.529568500813599741e-01,4.502257677046666573e-01
4.775185713397100407e-01,5.380305280004138435e-01,5.277607660283243352e-01
4.594576291408776214e-01,4.917138117837438482e-01,4.637136740213527730e-01
5.661264963697539843e-01,4.634195024421812747e-01,5.546650806070575479e-01
4.263069737427265804e-01,5.175038185722313777e-01,5.332357853192765118e-01
4.468204583482756620e-01,5.024207967994838153e-01,5.589175239423394004e-01
4.809817201127887798e-01,5.172862045420848487e-01,4.974262524445086098e-01
4.409802284398753880e-01,5.080050715222003133e-01,5.037015799987192288e-01
5.224849856264595083e-01,5.644086862896540158e-01,5.319597224214644982e-01
5.367287545403132132e-01,4.645202520946693503e-01,4.489418812652520296e-01
5.058802505864283816e-01,4.813671563338491888e-01,5.247850105608357074e-01
5.552237465418120577e-01,4.792617108142289695e-01,4.663527156498263326e-01
4.496108495639871694e-01,5.006408012509701022e-01,4.230556524042153876e-01
4.787779469051063885e-01,5.243486370141275943e-01,5.215055732331478344e-01
4.942821346134480542e-01,4.987983441607246049e-01,5.378206657573100236e-01
4.226955309382456338e-01,5.101836673454184234e-01,4.907575426133369834e-01
4.597643185483172301e-01,5.192957878698357677e-01,5.192147177838205563e-01
5.000284147349709496e-01,4.894648362174462974e-01,4.708576182595331505e-01
5.420575483712410936e-01,5.890040228052112470e-01,6.942614683556864730e-01
4.262971708650734048e-01,4.685619868482601702e-01,5.330285989326142282e-01
5.222987706396077234e-01,5.198229545780008731e-01,4.670769434024955591e-01
5.664981665016830537e-01,5.791133754122926858e-01,4.946459175059638169e-01
4.675102216237873032e-01,5.253463014230675965e-01,4.655925574776325626e-01
4.754101407806287094e-01,5.074038300232724952e-01,4.832322404850833419e-01
4.764016203440826769e-01,4.959661240803898696e-01,5.215825930069243332e-01
4.968177517139590327e-01,5.368286726372449857e-01,5.013133950008725748e-01
4.785846362768160778e-01,4.806608194649620858e-01,4.746570282349320546e-01
5.114291887279879267e-01,4.873179098683053656e-01,5.000260795547303294e-01
4.748961401735255494e-01,4.498786057363948765e-01,5.054611045616039799e-01
5.078919922455498170e-01,4.840962467013527060e-01,4.383926719780171233e-01
4.757493482511820915e-01,5.670846618398224237e-01,5.157146524670648269e-01
4.500129836607953959e-01,4.705431308714820848e-01,4.646144330410592049e-01
5.113804616576349549e-01,5.360498612361676019e-01,4.562248353951871560e-01
5.134134602791926572e-01,4.846714345823963654e-01,4.998913561701266994e-01
4.825712892833227130e-01,5.429157185253219442e-01,5.342215685685023363e-01
5.418843893335238970e-01,5.804485896687034963e-01,5.675807414672807694e-01
4.529944002125197433e-01,5.373405818119014743e-01,5.004114828462773445e-01
5.068360940879209631e-01,5.259154241817896036e-01,4.707676065619398886e-01
5.000513641827588618e-01,5.145482696435691450e-01,5.402143908769033720e-01
4.085595395130107166e-01,4.704687331812020257e-01,5.279463888135604854e-01
4.219218576333564341e-01,5.705697522190950055e-01,5.140655199384569496e-01
5.453414398500134874e-01,5.132511483438072508e-01,4.711551690048491059e-01
5.630866207685408797e-01,4.918956075100109904e-01,5.095297797327053013e-01
5.542089306561962525e-01,5.294888336119355499e-01,4.375892266037207379e-01
5.406786250714742392e-01,5.347677938645498674e-01,5.038098336273582056e-01
4.831366420527480887e-01,4.852655838297019741e-01,5.172215097662813399e-01
4.713729022889611153e-01,4.681907219317372193e-01,5.040889250081682649e-01
4.701485191976942368e-01,5.667541901676547145e-01,5.051447437740469448e-01
6.035529009549671642e-01,5.397543095264374369e-01,5.129737245286275504e-01
4.498210112041344799e-01,5.853562399964041818e-01,4.734789200216319993e-01
4.931566632124422811e-01,5.166674951741294652e-01,5.309672028436475122e-01
5.123198401489147402e-01,5.384129875167517065e-01,4.387937185960805730e-01
4.890625225003452647e-01,4.200334754702221840e-01,4.861093994011754793e-01
5.705771483549875178e-01,5.197177900218034052e-01,4.876653889606109016e-01
5.119642073676200500e-01,5.155931225662714334e-01,5.228153151291503598e-01
4.582703000070012522e-01,5.132244911664982645e-01,4.758479596285667967e-01
4.597152790671200639e-01,5.060456371644583839e-01,4.781501585689495459e-01
4.542844383165207112e-01,4.930826152928642903e-01,4.561035701920386209e-01
4.917387269523330051e-01,4.853121760707548860e-01,4.735030218019097292e-01
4.775898054825511996e-01,5.030184451711531279e-01,5.360795891853583628e-01
4.774113847722620818e-01,5.218689505773692616e-01,4.076628386564557505e-01
5.298046581103690311e-01,4.556727492067667029e-01,4.920932996336920273e-01
5.270394309180805870e-01,4.935458249093475636e-01,5.220938934369914186e-01
4.300466016825027493e-01,5.531082322017752961e-01,5.081610467860100400e-01
5.324115546116174880e-01,4.674946721625194979e-01,4.751764074650486891e-01
4.826710972217798101e-01,4.865817173422853914e-01,4.778121514570165540e-01
4.659953081891004545e-01,5.425166490448946055e-01,4.895158361478396669e-01
4.617849905818371403e-01,4.623240746309150162e-01,4.691144620865944082e-01
4.709626002046573556e-01,5.270438090304641054e-01,4.703889969387734515e-01
4.544837497573217533e-01,5.017364098675505257e-01,4.805386883743096860e-01
4.933643717405254425e-01,5.312603633796090241e-01,5.072589609059023896e-01
4.743624213630278641e-01,5.345237592988704156e-01,4.867367783925475311e-01
4.362364527359097743e-01,5.562956005049062291e-01,4.412506237916082319e-01
5.471579587877133388e-01,4.650568169834858323e-01,5.059241411740078576e-01
4.666085886558354323e-01,4.097339530254909268e-01,5.078654839152119127e-01
4.671512513933949173e-01,5.091053808668826175e-01,5.566597925634440003e-01
4.939769979364976304e-01,5.415624073060830712e-01,4.887944842846394522e-01
4.923905820642478504e-01,4.743555542233025002e-01,4.666886025832984730e-01
4.847859679030349644e-01,5.375647288372640276e-01,4.765650007513606567e-01
4.991742782154350300e-01,4.601994127014851221e-01,5.606418078982690067e-01
5.070008751070260722e-01,5.434419920968098783e-01,4.631320984173575850e-01
4.470023694935718050e-01,5.129268463896610175e-01,5.401097646566355159e-01
5.159940816700983035e-01,4.625923278709740960e-01,4.356064336526015990e-01
5.607683244027668046e-01,5.574331054562369214e-01,5.104079907356521284e-01
5.072932585792104820e-01,5.742597708433435644e-01,5.949202405529048221e-01
4.050480818678855455e-01,5.076211971070209161e-01,4.203846661215098757e-01
4.821205653353897169e-01,5.149622613049862352e-01,5.903730868007596166e-01
4.322503213815715450e-01,4.723549940478600773e-01,4.774887279583890365e-01
5.277633926751988946e-01,5.027140555032253433e-01,5.129356993610963977e-01
5.391034619544603501e-01,4.997571080272001365e-01,4.921732628421417455e-01
5.248998929861604656e-01,4.347250181046543593e-01,4.857548237320613027e-01
4.977343613377790965e-01,5.326787549355462836e-01,4.890076561819803880e-01
5.394503360335134445e-01,4.471865616004198629e-01,5.129794860616256891e-01
5.265766392980504307e-01,5.695129790403175019e-01,5.170037250928385397e-01
4.295166245540136263e-01,5.940594591343629771e-01,5.501599727592334510e-01
4.922157832002578837e-01,4.999979497666193762e-01,4.637013027886500716e-01
5.676342687966154932e-01,4.882312580528543888e-01,5.152532078717262376e-01
5.467166579562973139e-01,4.634279446582230122e-01,4.487347120671569822e-01
4.169342896662632802e-01,4.697543514395071118e-01,5.125941502106281522e-01
5.111078804053842406e-01,5.087571844228920837e-01,4.749645292626690218e-01
5.265407503305347126e-01,5.144599816290353900e-01,4.729751273278463564e-01
5.079144125006347377e-01,5.503903876936562245e-01,4.754357791611758532e-01
4.999996246407416578e-01,4.635034351516468809e-01,5.381576443678496302e-01
5.125489490308826612e-01,5.386416867542761500e-01,4.302335511367890164e-01
4.384974849748074499e-01,4.318020203800502776e-01,5.097169569414804480e-01
5.105418579209399788e-01,4.276515030623261326e-01,5.622137972006557849e-01
5.293465811004076649e-01,5.081519474674320858e-01,5.196922614155667919e-01
4.080970562689470449e-01,4.187759048069873979e-01,4.632534858403802858e-01
5.093052246464885302e-01,5.080524629974924045e-01,4.445697328189266995e-01
4.362986571007636538e-01,5.030721782850610113e-01,5.421190442759009631e-01
5.125608324886127276e-01,5.070104468160614442e-01,4.482872109441945474e-01
4.466254474058561907e-01,4.202615940173191622e-01,4.785040569629014362e-01
4.719503302063833283e-01,4.039456115979311313e-01,5.191379476695302531e-01
4.205629590274597152e-01,5.365032959372129095e-01,5.549959225056229073e-01
5.306991066381042677e-01,4.925703232876663118e-01,5.124968687316289184e-01
5.499580758259984270e-01,4.802158312067332235e-01,5.237222277102434598e-01
5.235952030609541952e-01,5.357256312782395780e-01,4.439575310183141998e-01
5.087626663834475815e-01,4.907812058306217362e-01,5.522378383767679866e-01
6.142120976510131447e-01,4.445401597231333213e-01,5.157237242513305064e-01
5.792701480873014841e-01,5.507646154593800469e-01,4.206827457996146213e-01
4.690242276621797712e-01,4.416424892067853936e-01,5.353379753868641178e-01
5.263795246571435493e-01,4.905057763428020134e-01,5.012686607613083822e-01
6.055467305679095302e-01,4.544973596606078914e-01,4.388182565124399415e-01
5.157410786785369128e-01,5.038962623304791277e-01,4.096859455196933952e-01
3.988273774793578141e-01,5.302809860309454226e-01,4.844483271918880729e-01
4.662356991642951365e-01,5.245985715202287070e-01,4.675533812806856315e-01
5.377643253335880891e-01,5.499294662137724776e-01,4.215461255815136088e-01
4.880927946373028181e-01,5.078111146329187253e-01,5.687306469443668133e-01
5.553205198494535200e-01,4.771778136285701466e-01,4.937569233391764234e-01
5.171410812241414856e-01,5.118958696014338505e-01,5.765157884975544711e-01
4.440294987868806387e-01,4.979116001239458633e-01,5.802160547898965737e-01
5.033444873793927465e-01,4.677457117304956169e-01,4.663762453284092113e-01
4.574459510245024174e-01,4.664215587539107255e-01,5.419008817831999503e-01
4.673264063418062775e-01,4.249158025505447300e-01,5.151390889285443198e-01
5.250624288794563110e-01,5.393187714934326582e-01,4.618292669873929612e-01
5.817731695735653963e-01,5.027051701882584434e-01,5.256422633879023198e-01
5.548128493919002313e-01,4.919673714912561335e-01,4.861021246505702331e-01
5.856360070204557067e-01,5.600586330003605173e-01,4.029979537860278738e-01
5.677486717272154371e-01,5.630813072622046223e-01,4.995586323149392438e-01
4.900972545392529578e-01,4.946374575377971428e-01,5.196487217206238185e-01
5.888707692070888067e-01,5.188388499227786221e-01,5.168031185655032056e-01
5.117640990674907631e-01,5.200982931841456880e-01,4.991010996021704171e-01
5.542718155000107005e-01,5.624039676541638944e-01,4.492493764334563600e-01
4.718431352472200468e-01,4.796603143749051945e-01,4.173791791389057093e-01
4.939253189996674620e-01,4.734578913583556981e-01,4.324507779178178857e-01
4.799449831861655191e-01,4.040246001077376081e-01,4.443610324816212875e-01
4.966524627663363445e-01,4.460013933290990495e-01,5.814089233401427137e-01
5.435113488868046350e-01,5.441241906655340799e-01,4.220609392834326346e-01
4.550924695901212291e-01,4.699534297712575359e-01,4.804385169823802704e-01
4.244517857573825159e-01,4.946974152564894700e-01,4.316322359859723901e-01
5.381749017685844017e-01,5.510950430440686443e-01,5.151435633646709311e-01
5.123443847454212108e-01,5.016351406160859394e-01,5.054077525748398303e-01
5.499572765700164734e-01,4.768829833101168036e-01,4.920252578913447139e-01
4.945066414797069099e-01,5.578734441599476623e-01,4.869150309151215605e-01
5.267041056806435195e-01,5.274424894999966140e-01,4.825641943264833977e-01
5.245450491521305159e-01,5.932008388573825064e-01,5.881687870015497310e-01
5.072293065498295617e-01,4.707671672566419163e-01,4.648735757971089733e-01
4.860449096817201498e-01,4.870419275920908619e-01,4.945869502845366972e-01
5.343658622993205931e-01,5.542462312086651188e-01,5.002248749201968492e-01
5.615611536255640246e-01,4.339061675036779420e-01,4.669651297207945695e-01
4.958705165631273615e-01,5.497607736347277507e-01,4.743422297221360218e-01
5.200094322151963544e-01,4.883101332715117371e-01,5.099777355554869773e-01
5.198955683414318019e-01,5.292008006172524981e-01,4.765060851864446612e-01
5.107275232037942203e-01,5.084934130615798020e-01,4.755300513336592760e-01
4.613109963911859457e-01,4.761661956443248855e-01,5.120650987722669134e-01
5.241696277095049261e-01,5.041066573988490784e-01,4.828224292076013224e-01
4.341977362482279945e-01,4.860787500619491719e-01,5.071063146879379868e-01
5.606735765909030000e-01,5.597745652994770005e-01,4.640690104890359269e-01
5.025923697860823491e-01,4.580917638964923100e-01,4.897650373718238082e-01
4.773200614651644802e-01,5.067350910915717765e-01,4.933486355762589648e-01
5.096534741202635166e-01,5.083102005279986901e-01,4.837901436610760886e-01
5.029952922678290195e-01,5.806467352935875681e-01,4.820160548772113307e-01
4.877931105544817125e-01,4.549062567016703973e-01,4.819189022305423453e-01
4.510801754984747891e-01,4.863256327850928873e-01,4.704128879290638832e-01
4.623470723593435805e-01,5.153646942819934962e-01,4.651232778233162501e-01
5.221012855967692712e-01,4.393576490057888306e-01,4.808821063179332667e-01
5.686610674193154358e-01,5.032164690355174219e-01,4.795354557760622138e-01
4.442768353917856960e-01,5.001257068756554958e-01,4.754521466791476469e-01
4.568547895831280847e-01,4.448833286697201350e-01,4.608386169120866072e-01
5.302856256297865389e-01,5.286480300667176779e-01,5.105219906953588627e-01
4.766553030847376360e-01,4.569271474266729527e-01,5.676094285588800803e-01
5.134697888993944304e-01,5.147609258281848899e-01,5.249280795433985958e-01
4.950213375413329842e-01,5.328540897952583899e-01,4.172903211923261746e-01
5.427772678283797614e-01,4.560055131425598263e-01,5.449348374358732316e-01
4.511366231049718789e-01,4.661783716144979328e-01,4.752175727061442867e-01
5.193508492085862072e-01,4.681036002160485210e-01,4.426669707860686476e-01
5.299127116798587611e-01,4.734794116565514410e-01,5.318590396875986226e-01
4.477305222825785358e-01,5.129922681877963075e-01,5.120282699317445507e-01
4.756259232618454957e-01,4.879878855223896417e-01,4.870912963492111669e-01
5.214846050667456545e-01,5.940181959194452688e-01,5.494899148749964324e-01
4.846563294626895502e-01,5.727293459193152358e-01,4.936719759644215277e-01
4.372248923862420700e-01,4.490909762712370079e-01,5.303784783312175399e-01
5.272592669457846215e-01,5.879576688148858699e-01,5.419526484006532696e-01
4.448350958560208790e-01,5.061270944456744969e-01,4.922089350979377276e-01
4.278695517137229842e-01,5.135713226220288696e-01,4.630205443735872506e-01
5.051963984378081696e-01,4.963917989255854368e-01,4.630631641978322222e-01
5.082843701252963697e-01,5.408491697291275546e-01,5.352860759408881730e-01
5.348219047900887313e-01,4.688554512840872879e-01,4.850998838484540943e-01
5.358610669896186618e-01,5.615186781431094065e-01,5.412454218132501937e-01
4.462664044735695779e-01,5.773149435318823963e-01,5.026817356355898214e-01
4.586526732581586163e-01,5.142237983030204518e-01,5.139986804957411559e-01
5.646261968795358577e-01,5.609594344271423560e-01,5.001956073741953279e-01
5.498208273838892657e-01,5.431789985653696640e-01,5.146347282337550011e-01
4.771570980946301943e-01,4.712542684845661967e-01,5.085097518070075262e-01
5.944855253862585398e-01,5.171449648597843396e-01,5.333508565293922921e-01
4.817639095045925246e-01,5.546395407603449401e-01,5.533370226041980366e-01
4.567075702212942678e-01,4.316217493785410864e-01,5.265783384574100889e-01
5.389598019348812441e-01,4.977305826845899728e-01,5.856186657388064987e-01
5.034016334327747755e-01,4.545232853131936368e-01,4.980089961534148735e-01
5.381120692734957522e-01,5.031237581926033542e-01,5.176328388199814556e-01
4.945572567145277154e-01,4.922402349189846649e-01,5.007010631722821348e-01
5.195614343806677082e-01,6.206786585721386640e-01,4.377220762182453262e-01
4.388186653631646061e-01,5.132999504337956154e-01,5.020270810236977521e-01
5.186896630652119145e-01,4.430330617419706019e-01,5.819046060190091740e-01
5.229572490620769676e-01,4.006100034339036831e-01,5.154915931671235629e-01
4.837770009408198235e-01,5.088020291425647823e-01,5.675643501090255061e-01
4.855442295857758106e-01,4.690407411401678606e-01,4.775568085289070286e-01
5.071434078779889498e-01,4.956980711980464305e-01,4.560626623078704589e-01
4.637199184325072054e-01,4.744381170878129717e-01,5.074623578433216098e-01
5.161603432784299672e-01,4.680882234160073097e-01,5.250717940080282808e-01
4.633941736398054512e-01,5.300521595375339290e-01,4.656702185563378893e-01
4.766581068762947293e-01,5.123824768977547350e-01,5.161336278244416098e-01
6.099996006146762850e-01,4.732835759188163127e-01,5.195489202215584079e-01
4.524595236097407325e-01,5.130360666736474284e-01,4.940373626248453220e-01
5.092294449981666915e-01,5.391633385265357514e-01,4.270635774558308451e-01
4.473996626052316739e-01,4.791654669766136077e-01,5.335985223160433222e-01
5.698895703072245356e-01,4.878596739152734618e-01,5.348073319031175776e-01
5.134980944417273374e-01,5.198198426464787358e-01,4.745016790289165454e-01
5.735561948423326672e-01,4.711951921730658244e-01,5.226605418178290607e-01
5.146533867619217384e-01,4.927167402102403115e-01,4.483861303210079918e-01
4.054868045559315015e-01,4.001030381459810825e-01,5.233661230165868039e-01
5.296015525930797274e-01,5.289150214434970021e-01,5.217388934759629171e-01
4.723437846478251712e-01,5.287960369647939363e-01,4.451362571424233305e-01
4.563772936709500350e-01,5.225863786367889174e-01,5.415500634704067950e-01
4.669956857247902771e-01,4.570725131427140209e-01,5.062942002820335352e-01
5.141973249855610328e-01,5.568328103663419126e-01,5.089589300134913508e-01
5.203241703862924172e-01,5.161843867180432310e-01,5.135373945687103925e-01
4.535536287860675864e-01,4.668421159870577708e-01,4.618492951524576506e-01
5.347649343762912455e-01,5.113374230353420202e-01,5.714317006771548746e-01
4.416196242338642497e-01,4.639579375849341436e-01,4.417021670516846910e-01
4.401629383211798641e-01,5.013399862469015700e-01,5.562503407571969261e-01
5.276035158360784516e-01,5.103769233445661913e-01,4.910750070920717469e-01
4.829722829500686099e-01,5.173235551915993380e-01,4.240075859803630332e-01
5.021206818903196645e-01,5.228220645476352457e-01,4.977301996758544678e-01
4.881522633438686309e-01,5.450460485759728302e-01,5.318632736156144736e-01
4.017090707056219512e-01,5.081363819437421103e-01,5.677119625363596933e-01
5.299968810456126000e-01,5.055668424323362942e-01,4.754664320666776578e-01
5.591214073393196982e-01,4.769657758303904593e-01,4.836052166775455796e-01
4.481904303757961450e-01,5.369591179695017980e-01,5.045947303729061417e-01
4.852987930816070050e-01,4.531156667416451067e-01,4.686360277527070739e-01
5.969916861040719391e-01,4.562639183380016727e-01,4.813556505651531148e-01
5.050680440434580643e-01,4.646337976532802228e-01,5.452923053709273216e-01
5.149741963535339195e-01,5.145762654335110931e-01,5.432696715057384607e-01
4.939908951421260186e-01,5.111433678405709058e-01,4.950810709147258626e-01
5.503657766197594947e-01,5.135929862344977836e-01,5.525918080877516569e-01
4.361941268671908345e-01,5.309620449546660348e-01,4.298088942286952263e-01
4.288972646281302703e-01,4.745225163292567383e-01,4.252444667873033768e-01
4.825912417352067330e-01,4.871964743999361303e-01,5.623522711598843982e-01
4.515883908051620543e-01,4.430643455491632410e-01,4.861098427753152706e-01
4.577959861808352793e-01,5.398862803822295220e-01,5.292178618706347981e-01
4.937118108881452527e-01,5.208041003747710951e-01,5.501549986347120669e-01
5.041624941287359274e-01,5.761720856498162568e-01,4.562930148156563726e-01
5.200977521910407075e-01,5.533134899577948351e-01,4.826804856548866374e-01
5.199948654922853519e-01,4.912792005833752640e-01,5.105048819482109757e-01
5.072118917000590921e-01,4.543246670218434313e-01,4.639660382079092149e-01
5.620793330977070790e-01,5.554281813979660143e-01,5.654541725511259553e-01
4.568590611653092770e-01,5.394631862321572768e-01,5.633201046668389056e-01
5.250551860747212363e-01,4.671463521972451516e-01,5.422576045479465812e-01
4.658770991254606586e-01,4.898460536771429563e-01,4.779299873145854693e-01
5.269959399201771255e-01,5.671603059653155254e-01,5.571114582563884143e-01
5.030428145442574772e-01,4.728450668005020896e-01,4.773555701039255417e-01
5.144734506985882971e-01,4.185179569472830541e-01,5.052436669977545813e-01
4.233278590340743830e-01,5.504523676869678139e-01,5.353025209440944732e-01
4.399273909058350474e-01,4.816842775945122113e-01,4.691041505270174272e-01
4.784393943575521724e-01,4.874322683664973344e-01,5.566380380576235742e-01
4.795128496807458118e-01,4.741658662231777455e-01,5.230659491722279286e-01
3.631630074946890496e-01,5.264073162282074669e-01,4.919095606794744446e-01
4.869360924731696572e-01,5.653858716627758740e-01,4.973204808082064554e-01
4.358002086429916266e-01,4.895651958647517232e-01,5.181161623351007162e-01
5.465948360273217288e-01,5.009892206083803590e-01,4.419128962879133038e-01
5.121788524628120287e-01,5.223596691446680262e-01,5.535064139971891395e-01
4.897249701388509124e-01,5.400121194702581784e-01,5.037330300835775043e-01
5.055191492896767835e-01,4.859628292857933740e-01,5.123074041481795460e-01
4.467398913633773838e-01,5.294323142632425538e-01,4.861136985804490052e-01
6.046819409428232373e-01,5.036522681552233482e-01,5.212153478355289193e-01
6.083485616271739893e-01,4.653358184924206720e-01,5.261459358071783887e-01
4.690786448875751691e-01,5.182233136709791799e-01,5.157077593617784839e-01
4.712523696148451791e-01,5.352277053289959952e-01,5.464503219754914820e-01
5.073538462769346946e-01,4.381737792077989857e-01,5.435157399440093684e-01
4.318197390140836034e-01,4.928806912874468815e-01,5.087262306088169428e-01
4.104561852262832988e-01,5.139221986462267910e-01,4.560525440761170057e-01
4.029652312375907042e-01,5.734133567071568738e-01,4.345696854839060652e-01
4.643654350106675155e-01,5.082033831654952927e-01,4.762274574503385649e-01
4.541021688524280453e-01,5.142910604126881280e-01,4.765657205370151250e-01
4.924050074072404692e-01,4.943320410581818480e-01,5.749542305995153368e-01
5.345854195300252520e-01,5.809418898420388722e-01,5.898992887827355647e-01
4.930079597892260690e-01,4.554867125557339746e-01,4.948984720439750795e-01
5.189217498128241290e-01,5.342315957919518965e-01,4.641378077716923345e-01
4.792810782630708144e-01,5.910524986929474034e-01,5.943805217046069789e-01
5.001970830396618162e-01,4.952878509831646903e-01,4.769462468841567659e-01
5.403143819601362585e-01,5.066949581497337540e-01,4.634072299310640908e-01
5.052744917016088744e-01,5.822318654064710941e-01,5.825144761006518790e-01
5.285811572236994715e-01,4.847146006568692211e-01,4.322913216019888538e-01
5.578686179531250344e-01,5.595017895646120509e-01,5.348567951224002526e-01
5.162719754823401619e-01,5.252317115700309014e-01,4.867609828693638119e-01
4.277794053849011124e-01,5.388583325950616620e-01,5.025820626050865325e-01
4.960527911491022235e-01,4.410667124493925506e-01,5.074162329662306181e-01
4.643159108492304066e-01,4.923857820416026598e-01,4.593552880762420410e-01
5.457672523016350308e-01,5.300694132838940087e-01,5.061321100302748066e-01
5.018154462861114107e-01,5.494326141946009878e-01,5.124079108885871703e-01
4.926819560631316430e-01,4.255402346092119203e-01,5.173077425287040398e-01
5.085650460578029497e-01,5.570057509503059112e-01,5.609089021525497376e-01
5.154538269555011265e-01,5.400792327777497182e-01,4.702250383901697139e-01
5.122890403036283180e-01,5.625457907989898088e-01,5.491549392461192447e-01
4.323208285394868344e-01,4.939450441118349300e-01,5.272716398262002890e-01
4.890066159947013547e-01,5.590344143575451952e-01,4.417274018180806228e-01
4.981893781218148520e-01,5.098204337572551648e-01,4.850229344699129586e-01
4.814041736363939838e-01,5.227425603968194334e-01,4.876532980361745206e-01
4.886956514117882233e-01,4.594037669526443990e-01,5.034189814747340730e-01
4.503065340860222809e-01,5.322648688616166135e-01,4.874988445360255995e-01
4.907441053767657158e-01,4.857756172802493166e-01,5.178096057062675506e-01
5.290933438862326366e-01,4.733329183070425494e-01,5.908187447975656870e-01
4.225536446415717462e-01,4.675308255662520840e-01,5.202441369529098303e-01
4.719731120726336493e-01,5.858073072255861602e-01,4.422747483209721886e-01
4.707131837499853866e-01,5.193265751366070715e-01,5.120574652675854432e-01
4.326612328452218992e-01,5.123219040169824101e-01,5.135985714898588794e-01
5.793855009637115527e-01,4.703043937897423699e-01,4.689854073980729288e-01
4.737984823309863702e-01,5.045220686474156668e-01,4.742822838210555281e-01
4.771657054315549540e-01,5.504571281861903032e-01,5.398604877560038151e-01
4.550015693663333471e-01,4.298314928466349105e-01,5.176102809695170004e-01
5.046273182414151570e-01,5.183001187284396183e-01,4.942722124217144297e-01
4.692465484043140678e-01,4.713001003128827748e-01,5.196067846121410483e-01
5.099352599335114089e-01,5.209131895328816819e-01,5.299882875068004928e-01
4.912337521637761828e-01,4.153720915421598159e-01,5.116650999231210362e-01
4.958693128380707860e-01,4.648464139785093985e-01,4.756756119995437793e-01
4.894650513546254800e-01,5.000743779784011522e-01,5.054738232218000116e-01
5.024654494439022567e-01,4.842232919542768799e-01,4.667834325039457721e-01
5.297125501396166003e-01,4.872183766175363084e-01,4.104993789924007430e-01
5.523023149014500977e-01,5.031655178011165130e-01,5.680976733296596581e-01
5.269307288730942229e-01,5.571225913465578383e-01,4.826235521831876429e-01
4.417269879820400202e-01,5.528824631024702452e-01,4.742880325653567875e-01
4.912675089714517163e-01,5.327909435401491089e-01,5.292031094016507176e-01
4.131163938535394875e-01,4.634526785405518878e-01,5.362880564100023228e-01
5.565081786629831884e-01,4.705905621754469803e-01,4.661854964034753968e-01
6.087352112456255737e-01,4.830854139978550954e-01,4.761754088980145738e-01
5.029378415156932070e-01,4.836451825436893226e-01,4.861848458866481759e-01
5.416963622170364312e-01,4.608731890327243952e-01,5.192564152276809564e-01
4.346405735391568048e-01,4.763593302214227942e-01,5.207390832070263320e-01
5.354689753341523861e-01,5.956105134216508334e-01,5.129770612175340583e-01
5.071981432831940140e-01,5.651891376722978366e-01,5.108469765706269428e-01
4.958245036195904065e-01,4.736191961780243376e-01,5.192201973033984119e-01
5.192891191895876446e-01,5.364441785636596682e-01,3.886178088301818767e-01
5.406141841156713035e-01,4.975990616711075676e-01,4.187158162188428512e-01
4.932022119447090902e-01,5.597175502648554790e-01,4.755087224540439084e-01
3.996171628269528098e-01,4.972709290752976852e-01,4.364353327152756812e-01
5.228993576807726695e-01,4.531919525736454735e-01,4.627604452161486193e-01
4.200385834500413584e-01,4.992134165557065573e-01,4.645952205522327905e-01
4.447455328677629161e-01,5.324376745970045288e-01,4.391199557651128127e-01
4.898699030319645931e-01,5.189632501589629410e-01,5.248926248207280709e-01
5.561371071349244799e-01,4.271331949652525939e-01,4.996767292537657723e-01
5.140142611312146226e-01,4.411376252586671209e-01,4.781746172672413642e-01
5.251860894035960126e-01,4.960945325285858187e-01,5.569065282604633849e-01
5.182682574849991619e-01,5.536290347046087801e-01,5.192720011749792919e-01
4.694750115725898065e-01,5.189059947301134512e-01,4.783533435121979371e-01
4.774674515902118666e-01,5.246248116712004528e-01,4.435647103047195006e-01
4.866617702678751600e-01,4.968427590436815255e-01,4.762917411124118483e-01
4.785957069903986061e-01,4.266023936854668186e-01,4.654047358981205362e-01
5.551075362532451596e-01,4.726854182729527953e-01,4.619702881059422062e-01
5.496239433915970363e-01,4.195188647024127304e-01,5.591834490556715220e-01
4.923706339006924115e-01,5.130570610013900357e-01,5.165992461233166466e-01
4.809924867789618919e-01,5.175582626808294950e-01,5.710463801049822097e-01
4.941714548816283359e-01,4.248801034869972848e-01,5.160092254702656200e-01
4.610788109388104239e-01,5.442865619608291405e-01,5.010100729451218982e-01
4.221197002542319554e-01,4.587543964643048255e-01,4.817898874511227780e-01
5.071426725082931464e-01,5.022127787324904835e-01,5.357236922615022934e-01
4.834378416227660402e-01,4.865473366498782037e-01,4.598502363294989514e-01
5.055787728619153265e-01,4.884138740129061462e-01,4.325397108226904375e-01
4.631026364253919003e-01,5.439336911573778854e-01,5.520438896859670708e-01
4.834395649845670828e-01,5.679298994512352872e-01,5.140464971153202445e-01
5.512885537355398657e-01,4.997258486803340394e-01,4.760934501050875234e-01
5.273819405003458138e-01,5.138159877594385971e-01,5.557788264577789850e-01
4.855031119106844040e-01,4.832632239979419708e-01,5.910289557405601357e-01
5.342868430399521085e-01,4.864175805558066390e-01,5.249682306187652969e-01
4.322104252866953433e-01,4.803315364675114774e-01,5.094470733866431900e-01
5.017818007914999212e-01,4.595307510704331189e-01,5.402454811578422111e-01
5.091107146821436391e-01,5.015391948269376510e-01,4.903986514783884032e-01
4.685540834562209600e-01,4.914208144473581896e-01,4.817899506411045807e-01
4.900795246431818852e-01,5.297894815877484120e-01,5.201839089977825514e-01
4.983087431057772188e-01,4.742569199292863136e-01,4.851490105832866329e-01
5.470475559579606184e-01,5.216238497046805644e-01,4.699961418046313955e-01
5.586479801617402208e-01,5.488183971274808171e-01,5.008179369893097643e-01
4.976220161919846507e-01,4.141994660062843225e-01,5.030004395479898971e-01
4.985935707179657284e-01,5.801836150935432146e-01,4.889865219125620333e-01
5.669111772373679470e-01,4.928145178183110930e-01,5.594793197412053498e-01
4.578711396725682059e-01,4.729486410990952905e-01,4.916198988511591428e-01
4.585855160824052756e-01,4.384223562914064676e-01,5.756926232208418037e-01
5.151849324842333600e-01,4.929262022859042802e-01,5.559681857235571067e-01
4.612145255115354114e-01,5.190284208326753079e-01,4.499975433111517709e-01
5.367490377346717523e-01,5.641160534763448586e-01,5.590751440346243273e-01
5.267864069481087430e-01,5.063899868971610818e-01,4.405865953514483957e-01
5.475431527280690824e-01,4.965731332178065505e-01,4.790037574359039541e-01
5.879425097024829627e-01,5.553037722325084857e-01,5.345060270637995714e-01
4.966684464465973559e-01,5.042415959513030232e-01,4.333077375512598417e-01
4.422276151096453667e-01,5.112068506922983202e-01,4.885409604741609013e-01
4.323784403531887865e-01,5.674326933894864311e-01,5.110422138635906109e-01
4.218071255423808674e-01,5.423044916866105458e-01,4.703419781127350929e-01
4.769456345426361099e-01,4.719000604205224048e-01,4.593117170070853406e-01
4.637929855139140689e-01,5.245086903634722519e-01,5.172636500680304339e-01
4.813765796243464901e-01,5.175532625800327580e-01,5.153761891759823799e-01
5.271750377811775801e-01,5.421915702917809998e-01,5.178394461775601698e-01
5.348490753945823739e-01,5.147641940094160873e-01,4.969216923646428974e-01
5.841016283624564931e-01,4.717224238124966829e-01,4.226035348704989536e-01
4.456273363989661229e-01,4.737673287952057777e-01,4.494900639003487353e-01
5.823815479639471437e-01,4.664853677512710850e-01,4.585958910718321846e-01
5.291260734077203320e-01,4.839451834086102022e-01,4.960437355425315054e-01
4.946872593501119297e-01,4.687191856508599597e-01,5.940965418555396171e-01
4.515744274167780570e-01,4.641987719959227987e-01,4.973836293982689116e-01
5.310558504501881050e-01,4.817355418262129207e-01,4.409221704069969383e-01
5.428532063974510491e-01,4.693540016213010313e-01,5.886108278489146084e-01
4.752583732193019772e-01,5.156221013094104411e-01,4.929270599769903227e-01
4.752117384496197250e-01,5.011574984425433144e-01,4.825845776727192282e-01
4.295393003567948287e-01,5.531830776419487394e-01,4.474055151151263288e-01
4.897891837890920863e-01,5.115547477549261535e-01,5.254304591319478579e-01
4.809405723498963448e-01,5.059400180911527434e-01,5.017774698472943218e-01
4.746025413378599511e-01,4.491793175752490930e-01,5.270180206374507348e-01
4.662352922974531966e-01,5.251429123817111799e-01,5.103794080601635752e-01
4.437953682329645044e-01,5.415551318211819787e-01,4.946124729716921964e-01
4.886021961271601599e-01,5.386524190649800703e-01,5.214640764123267269e-01
4.875592297186994717e-01,5.178118633139312532e-01,5.105960671241597248e-01
4.845534658446540854e-01,4.338939831610987286e-01,5.349586871784257625e-01
4.885031412652267591e-01,5.732035927275306308e-01,5.133864827162397670e-01
5.055186280698747980e-01,4.737872827723697000e-01,4.993368159115770810e-01
5.087753044513385614e-01,5.123115398699576994e-01,4.757864940789125474e-01
5.199777484251473236e-01,5.320748155163818049e-01,4.842593014892479508e-01
4.735132067264682387e-01,4.499756810298500831e-01,5.318279134810092179e-01
5.309760233444331678e-01,5.388383296841027237e-01,4.040284248899281838e-01
4.850142736892337769e-01,4.833457850479736528e-01,4.902473768622619965e-01
4.208279557431790496e-01,4.827042768323682731e-01,5.543673692717493440e-01
4.912311011637265912e-01,5.639775729811157268e-01,5.080510882463600275e-01
4.448493296949463938e-01,5.582028159237575338e-01,5.159395075475066150e-01
5.836074557514241423e-01,5.503646654236576952e-01,5.238590364039474867e-01
5.151774937230928497e-01,5.127592919736683186e-01,5.088790453299378846e-01
4.604726357171547990e-01,6.046787977155797522e-01,4.270872267101210595e-01
4.740789124897729079e-01,5.403264542665959791e-01,5.517998008418352196e-01
5.310911974994202422e-01,4.764627755024684053e-01,4.867275485799003043e-01
5.499109982141281439e-01,4.775424467278157059e-01,4.894692905246076364e-01
5.139577365795645614e-01,4.937155701850718947e-01,4.045104714078883168e-01
5.010639518364091716e-01,4.773845797785363221e-01,4.602506211064152919e-01
5.013157832481823784e-01,4.686957229071999631e-01,4.747973291501695337e-01
5.486764160484509656e-01,4.724489056409754140e-01,4.917570801959194049e-01
4.723071046905389925e-01,4.645265377227755232e-01,3.981054205267454682e-01
6.366386781729540534e-01,5.135535163453062157e-01,4.572829841665063122e-01
5.071441359494012202e-01,5.294021673168545217e-01,5.218552250615487997e-01
5.166678352174939315e-01,4.836545514279219082e-01,4.308643384184670522e-01
4.829784658708961564e-01,5.300857493251845964e-01,5.228040003524306867e-01
4.627217536057004477e-01,5.056560424909183338e-01,4.767524702106740175e-01
4.495698092364953102e-01,5.317640558505968285e-01,5.438399263284204865e-01
4.899078336955478563e-01,5.155853201636266814e-01,5.346442771044053188e-01
4.573112944680328140e-01,5.552139362358498031e-01,4.830915594383553557e-01
4.785515917722037993e-01,4.625044810457264455e-01,5.307985446643023186e-01
4.954116787779107023e-01,4.426442835454595937e-01,3.690826225858713783e-01
4.838512836278085483e-01,4.308297267766962313e-01,5.214010874518657523e-01
4.797913986441683654e-01,4.696506637154335695e-01,4.964867089110935883e-01
5.605682493482571083e-01,5.134723799620569684e-01,5.493853835462150226e-01
5.160898469510108999e-01,5.026349368432954101e-01,4.823935102956014576e-01
4.725859148471549531e-01,4.787532474493159662e-01,4.959178577228544604e-01
5.326061646052973053e-01,5.177671904711822481e-01,4.436637325133118148e-01
5.263814426967853288e-01,4.830595903082148257e-01,4.599695529275467099e-01
4.980675954347975054e-01,5.285799321879279811e-01,5.345827271773218037e-01
4.916798172883174445e-01,4.863418391710295219e-01,5.617057204479128929e-01
4.975487892815260715e-01,4.138816725414665720e-01,4.965362532270298224e-01
4.698131059618722571e-01,4.039175043520877306e-01,4.901583880643540780e-01
4.974501958679007907e-01,4.375281250633862862e-01,5.157539359759965025e-01
5.271379577562950169e-01,5.305266647323383378e-01,4.845023181460281214e-01
4.614845760737490976e-01,5.590490685417202066e-01,5.342439425770363348e-01
5.303300518553583087e-01,4.542139701843168065e-01,4.831075518882561037e-01
4.593438190566123680e-01,4.348307866870956828e-01,5.080118061566317733e-01
4.708087052648111670e-01,4.986021643191804742e-01,4.520721573119069192e-01
4.690432856782602578e-01,5.149209942570720511e-01,5.357132597972679156e-01
4.787232110712815736e-01,5.338015583723789703e-01,5.320940426254144873e-01
4.347398055193849586e-01,5.141347067279693483e-01,4.674030422467248536e-01
4.943983579608395296e-01,4.813426563633100286e-01,5.206731588676692946e-01
4.978679923051626544e-01,5.791969207653758778e-01,5.295354513383393469e-01
4.971394346046661417e-01,4.766785776044260570e-01,4.293680132752248357e-01
4.870787679199675146e-01,5.317543677901631627e-01,5.183618274670576120e-01
4.921993892936178394e-01,5.674060683468922228e-01,4.918040938365781378e-01
5.088450902474651594e-01,4.832760246304866891e-01,5.093499329297820344e-01
4.566800324062135208e-01,4.441134433777169099e-01,4.607310370032271507e-01
4.775188261204438844e-01,4.751721330053379488e-01,5.560186886473341694e-01
4.675545136528461154e-01,4.044564827260793138e-01,4.446108367067443390e-01
5.342795262624470132e-01,4.653923602968676465e-01,5.592682489343248076e-01
4.444271803463042403e-01,4.931505014344644278e-01,5.398482555062384947e-01
4.989091167218295264e-01,4.841527736208987576e-01,5.118741392762532483e-01
5.376429505783736351e-01,4.406363076654457034e-01,5.232254598116805600e-01
4.629357782373164643e-01,5.752422300040084258e-01,4.825004467757306736e-01
4.861123930502564416e-01,4.673240105179324866e-01,5.506986473111381564e-01
5.360206268124744211e-01,4.512835489757484053e-01,5.686728763725276137e-01
4.670905182202449990e-01,4.547814306268949114e-01,5.293807160726303751e-01
5.506988313088703180e-01,5.057606927580100553e-01,5.241049541538419509e-01
5.194971170933073701e-01,4.894372603638694752e-01,4.470959294354198144e-01
4.504065820407882614e-01,4.851351848331869610e-01,5.315326168543273999e-01
4.934451486886473059e-01,5.545780074804937954e-01,4.895482499407608490e-01
5.085065471907895818e-01,4.998523828711128325e-01,5.391896811613502427e-01
5.782521250501004850e-01,6.410280206635117217e-01,5.439103103156156527e-01
5.210132242903471322e-01,5.469152333643517716e-01,4.702247486845740343e-01
4.607816126870892814e-01,4.913479827029584301e-01,5.254821805749353425e-01
5.420855438920395564e-01,5.239250080155456457e-01,4.463811530799102756e-01
4.608903372993847225e-01,5.154611461503101344e-01,4.777588229827653410e-01
5.423150810199064420e-01,4.275818718272162977e-01,4.818472196187863488e-01
4.818343906595626835e-01,4.356138180763624024e-01,5.076503961901162043e-01
4.709712258968102860e-01,5.223643523076406670e-01,5.174329030616298120e-01
5.158672055881248220e-01,4.855875722763465241e-01,5.208842182042415780e-01
4.917747152673338507e-01,5.985270711544222744e-01,5.704548097404552598e-01
5.132801517929737045e-01,5.627486103714777199e-01,5.579510164178372866e-01
4.857578059710627727e-01,4.981654391172350427e-01,5.249200211418424411e-01
5.166258915532042639e-01,4.372386673805880863e-01,5.116714734964857847e-01
5.009730923475591569e-01,5.078151141112940969e-01,4.807827125456464179e-01
5.138135776223086149e-01,5.255464670036696928e-01,5.521422705164300559e-01
4.956190986270278542e-01,4.940412794416376707e-01,4.850229185833933032e-01
5.649229501911438023e-01,5.227772604345537477e-01,4.776869296558333700e-01
5.228426819105550516e-01,5.084490508072282422e-01,4.874882335317887172e-01
4.984831979429103499e-01,4.488818178501677858e-01,5.359627000433307975e-01
4.869967070388555030e-01,6.044612762616587975e-01,4.659349185561532103e-01
4.919147025901907666e-01,5.303517931263143081e-01,4.535412240290389585e-01
5.075589444663979322e-01,4.282345819501265916e-01,5.258252008792025922e-01
4.633197716008303213e-01,5.066270562853991688e-01,5.010536266263472260e-01
5.796339966145361844e-01,4.535270866087966479e-01,4.995578297902750764e-01
5.297576455838813869e-01,5.541086194019613220e-01,5.021184437461367889e-01
5.577687376756604865e-01,4.990918987260538620e-01,5.594875401557970473e-01
5.095117245359339631e-01,4.999733030796815192e-01,4.967541500386523090e-01
4.747329008649887050e-01,4.977549230298638494e-01,4.987638907700543967e-01
4.959039733925298954e-01,5.081669211249818519e-01,4.679757205875019754e-01
4.859093594283924178e-01,5.096470888334985183e-01,5.854193905892808303e-01
5.158292353687198295e-01,5.315327566478702526e-01,5.359005960001737012e-01
4.894311057571173462e-01,4.490769939035758607e-01,4.789291891957543346e-01
5.083794718563776627e-01,4.168628015251787944e-01,4.891199598994320219e-01
4.925391402136379826e-01,5.293311526661375055e-01,4.694076218979125747e-01
4.790228285859275958e-01,4.547705035245142025e-01,4.553792681701816503e-01
5.332758065032039418e-01,4.918824280492456458e-01,5.048964819311907437e-01
5.134873844026833778e-01,5.173635007943132580e-01,5.641092837352545963e-01
4.627180840857493260e-01,4.569691752184973366e-01,4.687457904851379809e-01
5.336041742611622452e-01,4.043699851927022859e-01,5.195599575313882834e-01
4.759886348105315523e-01,5.637944432027364172e-01,4.843347428303113045e-01
5.206341198138701998e-01,4.622902635218754108e-01,5.251816790476847574e-01
4.373555061974402913e-01,5.792406801854284026e-01,4.535225198186114692e-01
5.523907459270329667e-01,5.052487775297777040e-01,5.324401113579328992e-01
4.832770319359480093e-01,5.305109170465380775e-01,4.976772169573720483e-01
5.818156118604708160e-01,4.977867960218430587e-01,5.384825673779854993e-01
5.144769397947033251e-01,4.424012701477614273e-01,5.418497284118287682e-01
4.817171168789691760e-01,4.539988846375106468e-01,5.123078085645152990e-01
4.338995396595777265e-01,4.804979922269566051e-01,5.796357635618920590e-01
5.159220677546778600e-01,5.265195048681213796e-01,4.533554062548643127e-01
5.594028825213447353e-01,4.980159216657462085e-01,4.913347922679082713e-01
4.721532781090279629e-01,4.321599774230426849e-01,5.452077125043347516e-01
4.659634590461954051e-01,5.300542670056983541e-01,5.294500982949909007e-01
6.020721055566775615e-01,4.686002917762990272e-01,5.836475987687433920e-01
5.323439865977629415e-01,5.164222663283704051e-01,4.298089935970337838e-01
4.961146416924460123e-01,4.191382035306518428e-01,5.187368833573915428e-01
4.997924363282075233e-01,5.164419894489017393e-01,5.597453829048625318e-01
5.152534694210466615e-01,5.177010399459260892e-01,5.349580929299172505e-01
5.129938304376345792e-01,5.440987449872491943e-01,4.838493666327803866e-01
4.615037507456192234e-01,5.104674838681394489e-01,4.077870775177873663e-01
4.682825029565539365e-01,4.751731247265736924e-01,5.712881400668247123e-01
5.007534846504619885e-01,5.306080213997906858e-01,4.680078495912567971e-01
4.884024191457293496e-01,4.601273930394611522e-01,5.006093228056234246e-01
5.393659016939832407e-01,4.916859120198494026e-01,4.662231037280158419e-01
4.880869044077717489e-01,5.820288767527511675e-01,5.065004340490596446e-01
5.024835000556447939e-01,5.736480689368858021e-01,4.368191240137853093e-01
5.155556273115484700e-01,5.555339153006781938e-01,5.304696091551014403e-01
4.805081143746868788e-01,5.685508161016359363e-01,5.434223017084235385e-01
5.225824414486136549e-01,4.782392729290091959e-01,4.445342980248590536e-01
4.581827921685268645e-01,4.527164920545510562e-01,4.919259786349669539e-01
5.030763639730330139e-01,4.592881455381395139e-01,5.390829277273221365e-01
4.338946796379704041e-01,4.880253226712569226e-01,5.044681003858726420e-01
4.674333247462114094e-01,5.355476661365681235e-01,5.351168421652057194e-01
5.217121994451580091e-01,4.872872773089156895e-01,5.685552210976764220e-01
5.904946050533687041e-01,5.220483146636426541e-01,5.297020649398500591e-01
5.177744534239642205e-01,4.586453627992824744e-01,4.390277400415151798e-01
4.779036584209218064e-01,5.631026798213110141e-01,4.595870627914444562e-01
4.912718538782340216e-01,5.070293302136245073e-01,5.100231718277949966e-01
4.777045288395649347e-01,4.672877805042343624e-01,5.192928798309458527e-01
5.562105689885874504e-01,5.080885618470012410e-01,5.698821382215103482e-01
5.094775744970567732e-01,5.247172614224602238e-01,5.015214481113846601e-01
4.583167880535740646e-01,4.502261575299081886e-01,5.237660804297535888e-01
4.543305657431558342e-01,5.861836739832709808e-01,4.142209824145928199e-01
6.017237315792843821e-01,5.234505186737610227e-01,5.306709472284303342e-01
5.342638792167481165e-01,4.965616924942198862e-01,5.088000414742023247e-01
4.875284825960626844e-01,5.138673024238950005e-01,4.645174277673403407e-01
5.048530888673027350e-01,4.627283610126048941e-01,4.340169193929513947e-01
4.785463528616449858e-01,5.376273618239050256e-01,5.056400449187040680e-01
5.217451599095921377e-01,5.145615905862949147e-01,4.537817522176050833e-01
4.661699322308811566e-01,5.698578391123180209e-01,4.754695567454803595e-01
4.645704304193598588e-01,4.784103072495900499e-01,4.478934009617268619e-01
4.296367020654164315e-01,4.921734091958270829e-01,4.847281759351247388e-01
4.628495086431158034e-01,5.339224780458694530e-01,4.843343573049300188e-01
5.231215746941905165e-01,4.974266337850836162e-01,4.675309160070126313e-01
5.139089733538386717e-01,4.887867649712403506e-01,5.596559175425825927e-01
5.656042825858341727e-01,5.468898381974925949e-01,4.618044207342413277e-01
4.776775523068940155e-01,4.580784759536213335e-01,4.644572736512926348e-01
5.349335844144266217e-01,5.304888880738873880e-01,5.098094664130395914e-01
5.003822811783874558e-01,4.912715590308655567e-01,5.384252232364228341e-01
4.830872778430106984e-01,4.529076429829229644e-01,4.665080992951472494e-01
4.873119985494561712e-01,5.039657168804109189e-01,4.555912849462969705e-01
5.439790798803090244e-01,4.907168739979138605e-01,4.699530400284798737e-01
4.666106176806967820e-01,4.856763151113372978e-01,5.098092518205856738e-01
5.022021776920128078e-01,5.902872485367485211e-01,4.924593984088697085e-01
4.882511144383742119e-01,4.786925704665525028e-01,4.930792275725703888e-01
4.214030572154520149e-01,5.249359490872284040e-01,4.499898217189831628e-01
4.932796571250066542e-01,4.990946994219275790e-01,5.041409276376918047e-01
4.670484266037041587e-01,5.516544749303838868e-01,3.631288360837576779e-01
4.829454389748742416e-01,5.372295489147000946e-01,5.179253988863494751e-01
4.647477964277135221e-01,5.006326168852873737e-01,5.599790195239618962e-01
4.917590501703855699e-01,5.103361816063779477e-01,5.277583505872485148e-01
5.220223751171872983e-01,5.542363669202430287e-01,5.010465375605828164e-01
5.267609457874554701e-01,4.811936838709721664e-01,4.986729717540520079e-01
5.104030131396316561e-01,4.646183588000176723e-01,4.897609450947629228e-01
4.851135262309362317e-01,5.683129605170833543e-01,4.989927153662032655e-01
5.828910820679727989e-01,5.957822973336313055e-01,4.793770643496720330e-01
4.476196587113120406e-01,5.187599062687010543e-01,5.126107266656659833e-01
5.244199516175612752e-01,4.103943593649436727e-01,4.345863617062550865e-01
5.103557558875047029e-01,4.796533411242490663e-01,5.312403471830382529e-01
5.066515474163204580e-01,5.212608926605191151e-01,3.718045356209669361e-01
5.269050167954927311e-01,5.095359182421563826e-01,4.435034669391255679e-01
4.959941291017276321e-01,4.857675244316737029e-01,4.960107152521614493e-01
5.293284388710355337e-01,4.631056225146821248e-01,5.091408790514948546e-01
5.752719797956680203e-01,4.575143167397364707e-01,5.421421910609147687e-01
4.900375607111219223e-01,5.341113667754195937e-01,4.365201474246268587e-01
5.197254101091619560e-01,5.041927655047357959e-01,4.929034225884494913e-01
4.691130293144183394e-01,4.661286094920460976e-01,5.048330059122491109e-01
4.747997103127390428e-01,5.279019203197053978e-01,5.050312515649076905e-01
5.506834890104255198e-01,4.800062393118558202e-01,5.201171805707406337e-01
4.642844055339754861e-01,4.742440815530721832e-01,5.078775696086433866e-01
4.076687885604540207e-01,5.286320718021848553e-01,4.905584815953380473e-01
4.517070167017643301e-01,5.194074912507954389e-01,4.904576076669671658e-01
4.575608936919448588e-01,5.231064405225424041e-01,4.805635384078463246e-01
5.167546515013328179e-01,4.826632554995169411e-01,4.734068821708979913e-01
4.029393982760371418e-01,4.578308938234726400e-01,4.921366461943217918e-01
5.164031207321926331e-01,5.588775175601324863e-01,4.860386076176291814e-01
5.682686278764099708e-01,4.359378396612896278e-01,5.344742768117541898e-01
5.204821329253647155e-01,4.264596634908089379e-01,4.614211684880820674e-01
5.281526986606850382e-01,4.694088230073523160e-01,4.914443882161023125e-01
3.737352318825918895e-01,4.693331033682509035e-01,5.146286789317437993e-01
4.767935481298490319e-01,4.894856514333296160e-01,4.989480610341550104e-01
5.193870131849451788e-01,5.316611019701608098e-01,5.128270628957229960e-01
5.265590248878441182e-01,5.346910634692241260e-01,4.402804631954040926e-01
4.985634530159843703e-01,5.539919162514702622e-01,3.760830022109727944e-01
5.436243011861167096e-01,5.444303619297654606e-01,5.404264383570734909e-01
5.029545333937004425e-01,5.295335639450872156e-01,4.555930409739053499e-01
5.058020430675098655e-01,5.669542501280456781e-01,4.960390645457781744e-01
5.362037158124365321e-01,4.745927803065484452e-01,5.203873367635253322e-01
5.069699019189789491e-01,5.036947534214771816e-01,4.624049498275310532e-01
5.207222207194880381e-01,5.021786931059937231e-01,4.942163372154381173e-01
5.189044215393507908e-01,4.411819639311513330e-01,5.172018981330976928e-01
4.735351779510060810e-01,4.781515041864652371e-01,4.848779748384455801e-01
5.646959460618393711e-01,5.405978734296413846e-01,4.731729589173344075e-01
5.364723692496259355e-01,4.328085806518837675e-01,5.423172782598684183e-01
5.281327497666772341e-01,5.781936994522407502e-01,4.907431793312198587e-01
4.709417894193228538e-01,4.814128480872665872e-01,5.104827542591846568e-01
5.098121729855904505e-01,5.310752831560502374e-01,4.800576012143298321e-01
4.767406349322233505e-01,4.902118021682926874e-01,5.431090860113609864e-01
4.882639294663964069e-01,5.162564861055647381e-01,5.707550098200886435e-01
4.435228802129238534e-01,5.100948967259677502e-01,5.041139038726155652e-01
5.535923839472317587e-01,4.489369182941181924e-01,4.664446085435556277e-01
5.314197224317912527e-01,4.805834628913029927e-01,4.517579423039613240e-01
5.391518194246203155e-01,4.968376765908159021e-01,5.592791648173026653e-01
5.555776989816304523e-01,4.683923976493306607e-01,5.146527372495950381e-01
5.040748884674107755e-01,5.794417487408743961e-01,4.673070186885888155e-01
5.061973739549934237e-01,4.889683323986890318e-01,5.011935664869819895e-01
4.688765161510793367e-01,5.517535433090555719e-01,5.251263252197899689e-01
5.894999493033321603e-01,5.021334304824199846e-01,5.467223320113741014e-01
4.644763526006178700e-01,5.694060582476905275e-01,5.242876343253943805e-01
5.451323179130668217e-01,4.652632893546045367e-01,4.951164240901189673e-01
4.766564461272350672e-01,5.190225355295521315e-01,4.775968354983741726e-01
5.054977401404233683e-01,4.599040953735911708e-01,5.196328535232684898e-01
5.052346726902241514e-01,5.137586622434949790e-01,5.440127948209581010e-01
5.381841807916790676e-01,5.151926080278398379e-01,5.184111183524783284e-01
5.131419075018273102e-01,5.882884145102471596e-01,4.828014209604319373e-01
4.273852827723754744e-01,4.919618920924244132e-01,5.403217247819112057e-01
4.289803971215421785e-01,4.898691456351963458e-01,4.934594310463695788e-01
5.340540246508043154e-01,5.426243411412704498e-01,5.214369463774605196e-01
4.338993194238981443e-01,4.646238031169404592e-01,4.884597017584843548e-01
5.294191760738861108e-01,4.569012327406198892e-01,4.816933544052969807e-01
5.521801530021763771e-01,4.794409617683309532e-01,4.792647504795209956e-01
4.396820650086019633e-01,4.687948396485210334e-01,4.776265605116110646e-01
5.641448292826568567e-01,4.878830836042853947e-01,5.633110245462650267e-01
4.729372382231330496e-01,4.784984262948103195e-01,5.203274671593752787e-01
5.334806357469551452e-01,5.243273470168354766e-01,4.740281551215602684e-01
5.687991031637118500e-01,5.046021964184500552e-01,4.821751737134398197e-01
5.308591868325767127e-01,5.161454835774295091e-01,5.578412232227959455e-01
5.126456643300875138e-01,4.899200419916096005e-01,4.796020886609819178e-01
5.215576963650786491e-01,5.052186205961929355e-01,5.480676606625565217e-01
5.645980824267722298e-01,4.640953645733772448e-01,5.450067367112640948e-01
4.841737343125294690e-01,4.367854127214561566e-01,6.018561507500276297e-01
4.954065093514442575e-01,4.871750001012865594e-01,4.512687249537522538e-01
4.668921573191845420e-01,4.605467676458382398e-01,4.321004578061997115e-01
5.240670174151211835e-01,4.537407252167645066e-01,4.324336356228609124e-01
5.040945955476963114e-01,4.898745100278630860e-01,5.224334333011114717e-01
5.582736000838161017e-01,4.524088657971086502e-01,4.992979615729123966e-01
5.074425433183786804e-01,5.620276770390321142e-01,4.878539650890325041e-01
4.647977130951151947e-01,4.149358873360437516e-01,4.916144556970409307e-01
5.123508700950730743e-01,4.692451402032488117e-01,5.609769399983793869e-01
5.327254882926013568e-01,5.711828849166816768e-01,5.148079635839092338e-01
4.988955172276065553e-01,5.624372742296362970e-01,5.216455569725430008e-01
4.892821153444261717e-01,4.971264338468562305e-01,5.478962860492453402e-01
5.247314141506295160e-01,4.894529492114303437e-01,4.798371076381081068e-01
4.435492472655008234e-01,4.853453042590576416e-01,4.261255894106086850e-01
4.907976281610709202e-01,5.248705211853073038e-01,5.517314396796088038e-01
4.294891601269752446e-01,5.375909044077853416e-01,5.504949135784532599e-01
4.479456151061484426e-01,5.420898795168135331e-01,4.884021760551029434e-01
5.029553684990158979e-01,5.016836520579717185e-01,5.506699443420596252e-01
5.620202051183563752e-01,4.776227858536595261e-01,4.179128711911060390e-01
5.601938950068492407e-01,5.008686793993154529e-01,4.620086891089161263e-01
4.872117538342253251e-01,5.383366102436115685e-01,4.983034542643027809e-01
5.118717984067144844e-01,4.741607764049158291e-01,4.941880594579592390e-01
5.017315120512929605e-01,4.662362685290660780e-01,5.389204958789430844e-01
5.378448716561455845e-01,4.437511438199587266e-01,4.878813385307401163e-01
4.454190009492535740e-01,5.396062832174070012e-01,5.082736756763001074e-01
5.757406339157657982e-01,5.131102436978037806e-01,5.395220128908261303e-01
4.766887698328828860e-01,4.679621979432924683e-01,4.825429056351098200e-01
5.009629798407883028e-01,5.456179049110839729e-01,4.879599149883337428e-01
5.489844768810637765e-01,4.383338733240341734e-01,5.227450875522271501e-01
5.652138957616263948e-01,5.117050636252374884e-01,4.810549927398129477e-01
4.677190573253187655e-01,4.463607613850331668e-01,5.044256952405534733e-01
4.440828660501021652e-01,4.775971940517764192e-01,4.719282865959982809e-01
4.620445915631766209e-01,4.720390330869675410e-01,4.737031033573335104e-01
4.980471296571565287e-01,5.173629320328776426e-01,4.256390245859372201e-01
5.363270327771922918e-01,5.152401189770611234e-01,5.158520185459362084e-01
4.649928775152676885e-01,4.822201833813928307e-01,5.288205171746850342e-01
5.341336354559731436e-01,5.127143280940592573e-01,4.848163821549681951e-01
5.581839368092570419e-01,4.611469579348516645e-01,5.281973480796821052e-01
4.515855661215518180e-01,5.109056814108368094e-01,5.207767188886650578e-01
4.757647135865751831e-01,4.561309748086471716e-01,5.032149414926142539e-01
4.530612592401305760e-01,4.724611053884898992e-01,5.411922386627356918e-01
5.501803771944900889e-01,5.249915556082862533e-01,4.777150661243321772e-01
5.406911832737303358e-01,5.147190215661958668e-01,4.188881800596814808e-01
4.965980162184436830e-01,5.352506334515272357e-01,5.048312672340521390e-01
5.155346299651161202e-01,5.429850279081640529e-01,5.518543227986258959e-01
4.526528351714960707e-01,5.074694425410944953e-01,5.120723776160068796e-01
4.933274698198235053e-01,5.109619177574916682e-01,5.032968233354883081e-01
5.189140494685610117e-01,4.809469344910105582e-01,5.278482050043651341e-01
5.330671565568595449e-01,4.605061093353559065e-01,4.636858248818602202e-01
4.846478060159609691e-01,5.042279059653600459e-01,4.750376674730493187e-01
4.605632920344918668e-01,4.642286800360908572e-01,4.558237049795353935e-01
4.287414208688965500e-01,4.982486957393131299e-01,5.593416577901290099e-01
5.370209746098322245e-01,5.479135189084789470e-01,4.703490841470301387e-01
4.770513245678280057e-01,5.175101907860502060e-01,5.240478134853099323e-01
4.611692898710031963e-01,4.449079517324449062e-01,5.104851391849311026e-01
5.335428998200928419e-01,5.329788587898849350e-01,4.787352059671745597e-01
4.854206466139203147e-01,4.639924393198376906e-01,5.338518592899390569e-01
4.947638436281421859e-01,5.311103750414641889e-01,4.588802523931260202e-01
5.320646787469757166e-01,5.368217827740277004e-01,4.371034276878584812e-01
4.621479884739559396e-01,4.873638157617270483e-01,5.029082736760014383e-01
4.993885884091265326e-01,4.696979844344726929e-01,4.331608201994113228e-01
5.265944957019391692e-01,5.511029189252049099e-01,4.426190523941082033e-01
4.676093051171378301e-01,4.476949008581088685e-01,4.911807454025752806e-01
4.859276948942420349e-01,4.352750120728999250e-01,5.033987741123484572e-01
5.167040070515076522e-01,4.417994032230054824e-01,5.703312336857416787e-01
4.527731334667510765e-01,5.014966824644550014e-01,5.187088737568542607e-01
4.826214501058311845e-01,4.806809356187112248e-01,4.985332729381726224e-01
4.067177834025135219e-01,5.705641444241963400e-01,5.111800782001996168e-01
5.552484816198363093e-01,4.413131146016953110e-01,5.976238689417142647e-01
5.212342362188993050e-01,4.924394731947489001e-01,4.977694241456162572e-01
4.918935222606850566e-01,5.654105044974715444e-01,4.969416757009595398e-01
4.730008923026821077e-01,5.236331832167051559e-01,4.963172771081685863e-01
5.245370046819265442e-01,5.438379525484901000e-01,5.511348603983053929e-01
5.454760835791643281e-01,4.072841824632912888e-01,5.260955903295450042e-01
5.433901935142047002e-01,4.814088718676720058e-01,5.187867447298349921e-01
5.726177044623022017e-01,4.483391259288663777e-01,5.700405933067765885e-01
5.253711257247177802e-01,5.137069370887291653e-01,5.261511074077578343e-01
5.949059477976478272e-01,5.306447973828739562e-01,5.088014846792983104e-01
4.694528116089550784e-01,4.823217275801958137e-01,5.284374266802401854e-01
5.024890432366850845e-01,5.509205820676735810e-01,4.795803443614514716e-01
4.184298870508585955e-01,4.804311243276006560e-01,5.283570023301259466e-01
4.894036176335650468e-01,4.280828406095443794e-01,4.467816457813084119e-01
4.787927890388478658e-01,5.600907429659752745e-01,5.369865801670026251e-01
4.884074659177372046e-01,4.716234850549587687e-01,4.582723720653026911e-01
4.946740293239115238e-01,4.506994119254640885e-01,5.194692302705143927e-01
4.903840526205473505e-01,4.802281413196430315e-01,4.726172681662326180e-01
4.987568840033972384e-01,4.806897987732691169e-01,4.517876638893004171e-01
4.449953994425981385e-01,4.823930483720080820e-01,4.921584251794339226e-01
4.623441596322070968e-01,4.754042083457527545e-01,5.094932150592089704e-01
5.248940341839605228e-01,4.799649120198942742e-01,4.989393522518730806e-01
4.558848128019366563e-01,4.905244039152974467e-01,4.670691323765017722e-01
4.747824268607855336e-01,4.674038335143736456e-01,5.109932032291045756e-01
5.099390508091524721e-01,4.826630245317891643e-01,4.354533915943508138e-01
4.780703455695458071e-01,5.154580744393443270e-01,5.037145727367331460e-01
5.185018887748884531e-01,4.826242264059001363e-01,5.064779045834911786e-01
5.432601263976313266e-01,5.098930985590641729e-01,6.129853256557863395e-01
5.180199208493978524e-01,4.956765994975685929e-01,5.440753200140721058e-01
5.219500860193051484e-01,5.556465362221855164e-01,5.258978863362335776e-01
6.013686438799170642e-01,5.462762205636852997e-01,5.152500896990950263e-01
5.092739597189912537e-01,5.316972342818261366e-01,5.058985677661744784e-01
5.528362612689302624e-01,4.957003132738522777e-01,5.457137320550392579e-01
5.331251990047258804e-01,4.848054153145786582e-01,5.299136537609552278e-01
5.761171351883658254e-01,5.079074884352513530e-01,4.739866373400504207e-01
4.603181160577463626e-01,4.731132849197979828e-01,4.831669038247235481e-01
4.504838928522393871e-01,4.903421055473036194e-01,4.713404555235048421e-01
4.577220239894956300e-01,6.060373890363828231e-01,5.026754534881007208e-01
5.268941257618338092e-01,5.028017745967900964e-01,4.682573176598383013e-01
4.610731916377333039e-01,4.749845443055805694e-01,5.651879685341140158e-01
5.452556187550686717e-01,4.913416148047866638e-01,4.940667311672369832e-01
5.654749535609140398e-01,5.758868024059349278e-01,5.052987438052427560e-01
5.317061825915427864e-01,5.289383311689555001e-01,4.918643492967954556e-01
5.852464895811845258e-01,4.734229761030099293e-01,5.754350606756565290e-01
4.872882286477410174e-01,4.938102271461669579e-01,4.720111620535737407e-01
5.592503642880879422e-01,5.124584495944561890e-01,4.957987019549816576e-01
5.172331914141617970e-01,5.272116258317013360e-01,4.991844092660180365e-01
5.033215021446393322e-01,4.887096953047436743e-01,4.934313468337070963e-01
5.016987970146431497e-01,5.479471405853367783e-01,4.057713082675277194e-01
4.446133868400184430e-01,5.357093948187592325e-01,5.477348529890639917e-01
4.273749508782326845e-01,4.461615823241870671e-01,4.140213654026303480e-01
5.143912010869691187e-01,4.799876664125504178e-01,4.850337364656628347e-01
4.359983635486757159e-01,5.443433390191740884e-01,4.691558149791398846e-01
4.836755450400666567e-01,5.106863036772134601e-01,5.553816809767664342e-01
5.302535465481860166e-01,5.471019448964148379e-01,5.504417229342981610e-01
5.060768269761516391e-01,5.160686591537030354e-01,5.193699377894266389e-01
4.223414700497423180e-01,4.894391608491773793e-01,4.819252162717741483e-01
4.934850596223809838e-01,5.737440869028828105e-01,4.968777075681319877e-01
4.597926678451210725e-01,5.209554732500450980e-01,4.425236984262964079e-01
5.148332143142185791e-01,4.551980044746671283e-01,5.271709830877665537e-01
5.173063028550605180e-01,5.448935878473784022e-01,5.790152743974684713e-01
4.800201438859124647e-01,4.678956599469463740e-01,4.073598657963237168e-01
5.220192114882387102e-01,4.393372491676827418e-01,5.800485684865123170e-01
4.689276727900961728e-01,4.821941624014440264e-01,5.399340735160547133e-01
5.398168480339052833e-01,5.765666511796405658e-01,5.028803621343750363e-01
5.037786116378235590e-01,5.170976331353358546e-01,5.404924781915239063e-01
5.127111997252925546e-01,4.730976571389982621e-01,4.568414933670524314e-01
5.204426259712208180e-01,5.251646680344208562e-01,5.657319427836540182e-01
5.753866191635377270e-01,5.316525790862074441e-01,4.690154981416962965e-01
5.517894338273170440e-01,4.554420592516701949e-01,4.706259685416751548e-01
5.040275545800748658e-01,4.455304154207886946e-01,5.380369774145177253e-01
4.378432103658032037e-01,4.872160799302538980e-01,4.920093797082736864e-01
5.127145801138024428e-01,4.556969088555896663e-01,5.030859104650993174e-01
5.110807976333073821e-01,4.642608846599926564e-01,5.026942414169655038e-01
5.377374201395592745e-01,4.979659884292181871e-01,4.932341832052666297e-01
5.457015220291130397e-01,4.467988635694370991e-01,4.908253954169167210e-01
4.799051271074204483e-01,5.292376612278962833e-01,4.443283216601774388e-01
5.197781681941113785e-01,4.877771850596458458e-01,4.563618794098115439e-01
5.633950355705850122e-01,4.608193292653392503e-01,4.864307383726760303e-01
5.611512138835190733e-01,5.043340614147765466e-01,5.196326512145696963e-01
5.913299170975023777e-01,4.828438700363907876e-01,5.617907372157112666e-01
4.628031980267215961e-01,4.808585841815638529e-01,4.854795859442873063e-01
5.231454026119988221e-01,4.822761692746934670e-01,5.192128183161016652e-01
4.970249748966232839e-01,4.663038749103246006e-01,5.651199007755746129e-01
4.881340989054916979e-01,5.407519368452501363e-01,5.295180169850829399e-01
4.806189542433590423e-01,4.499286478714075721e-01,4.977395814991377732e-01
4.750983011120618049e-01,5.538336121073138552e-01,4.478001163928872486e-01
4.657738230314925065e-01,4.848046852374098270e-01,4.806477186334267016e-01
5.314805918862436362e-01,5.815273451422795503e-01,4.445966592259285033e-01
5.063541385947006868e-01,4.699094860135247798e-01,5.145252824322708030e-01
5.300147122513473308e-01,5.754110764597597516e-01,5.238307033625070330e-01
4.773532309064494328e-01,4.857723645862763728e-01,4.838393117949033595e-01
4.917803664456507073e-01,5.367424147436680171e-01,4.266989146569699631e-01
5.966587012792538003e-01,4.893068223894007640e-01,5.175968392411883778e-01
4.994584966482665256e-01,5.122048125955813713e-01,5.408263639007151458e-01
4.946417339729841101e-01,4.642075583598192501e-01,5.286058583963291202e-01
5.124208822900087057e-01,5.252491123845001164e-01,5.726056943008864808e-01
5.455254325352864031e-01,5.170964630809916640e-01,4.806446350621921271e-01
5.518896843490771476e-01,4.404751817824911764e-01,5.665831350092186414e-01
5.085424689952660060e-01,4.415441572009954907e-01,4.571527650743891225e-01
4.794637119298035266e-01,5.539961990282302740e-01,5.430714559895684079e-01
5.017094039512357551e-01,5.036998316329914793e-01,4.806120454756976912e-01
5.867066451677681593e-01,5.269674312019209106e-01,4.189009267467925790e-01
5.536981230756141681e-01,5.140472767790509323e-01,5.231517212672753825e-01
4.657457928432582328e-01,4.986600394613765475e-01,4.850790218717352942e-01
4.773737258318666576e-01,5.464265480133085884e-01,4.828304855080113311e-01
5.263394391216192902e-01,4.843801414344580669e-01,5.014853473096415604e-01
4.458728432582185763e-01,4.715827876870232194e-01,4.757647257047001310e-01
4.706172418282859593e-01,4.790868373386656387e-01,4.840767902684172119e-01
5.094563352678107560e-01,5.431317278334233389e-01,4.554436460951699073e-01
4.927338765605104309e-01,4.500751035288702573e-01,5.484902940970645124e-01
4.936679340431725516e-01,5.953348897348935687e-01,4.771189728739207991e-01
4.228111689071963331e-01,4.367134962434190970e-01,5.630030499735252381e-01
4.730971258745833574e-01,5.163896043463317431e-01,5.173532364109082460e-01
5.124373034377426306e-01,4.311459109558349323e-01,4.681745094244069705e-01
5.003749187206603111e-01,4.964949341652418191e-01,4.490364969641170712e-01
5.260974703970445754e-01,5.044569933173554954e-01,5.036782250632682034e-01
5.421712289591331668e-01,4.713179258839926833e-01,5.504171482414689232e-01
4.439080542081623171e-01,5.668139508256583303e-01,4.489941513536899187e-01
5.241085864841218411e-01,4.644701962808617801e-01,5.285363157108823318e-01
5.287493139255637908e-01,5.273998950475140557e-01,4.566306855008089860e-01
5.352348959261378214e-01,5.208689187629432782e-01,4.349068840204507458e-01
5.271866381565850634e-01,5.299773083935497286e-01,5.366534942417989784e-01
4.742936979719322155e-01,4.559434965089000924e-01,5.283177491263558734e-01
5.024356051079371666e-01,4.945613361359706417e-01,4.972691510710948726e-01
4.698509318813198776e-01,4.604543396562118529e-01,4.807365382327059566e-01
5.579390710987653934e-01,5.658882151101729541e-01,4.421735840238619208e-01
5.135414016978129270e-01,5.120146271524559367e-01,5.299929111044568986e-01
5.149646570580969085e-01,4.699428624679173327e-01,4.807135722878236872e-01
4.795705982693529434e-01,5.115667579648125463e-01,5.051815783226574208e-01
4.993219274949237119e-01,5.019372242250254024e-01,4.952409771497320312e-01
4.936982382882644793e-01,4.603760949679500669e-01,5.287113344225262690e-01
5.679645752823563321e-01,5.029478489571421740e-01,5.346542613356157769e-01
4.938983466069836736e-01,5.353799877479895608e-01,4.311124557444263039e-01
5.786292680701157209e-01,5.234002845332197396e-01,4.394689488660526999e-01
4.939704338763871161e-01,4.710058904400091784e-01,4.503176646640869585e-01
4.272185799419705998e-01,5.733853865201976596e-01,5.163322037291353528e-01
4.707340601720071405e-01,4.173822215461107099e-01,6.025421156914601006e-01
5.666754200228273364e-01,5.935718673919420096e-01,4.655619251272775094e-01
4.851691573927660039e-01,5.385592089742975430e-01,5.182305720512397906e-01
4.996857669658786305e-01,4.480793634836665595e-01,5.146955274448750117e-01
4.936670680875370198e-01,4.490812350110569007e-01,4.540791803406454274e-01
4.391398248142519556e-01,4.947616271755052031e-01,4.578766704813477806e-01
5.441880585469258680e-01,4.658644718363643689e-01,5.002858425281605514e-01
5.462936183780365829e-01,4.178695309809156710e-01,5.317359586117293979e-01
5.398195557054695781e-01,4.574970835403477376e-01,5.636889776337155045e-01
4.603506810048203501e-01,4.936570497697294058e-01,5.369604520299089412e-01
5.396163222408298932e-01,5.540556763708289756e-01,4.881604141965345534e-01
5.094125531644343452e-01,4.840789476082633658e-01,5.494491638091081320e-01
5.848045505159585877e-01,4.845979520649341676e-01,4.696999332528918325e-01
5.130730914762167139e-01,4.300030909975758320e-01,4.436484888457420950e-01
5.336746182695072394e-01,4.339383844850328020e-01,6.057435988623280920e-01
5.138121163405394709e-01,4.160553336243447697e-01,5.080716174784019046e-01
4.927505603045337357e-01,4.759326445873990896e-01,5.443725872244054020e-01
5.132767150035157933e-01,5.976014402757494626e-01,5.409028856846833655e-01
5.641619676129989713e-01,4.585919387920618373e-01,5.180699295610219357e-01
5.340385004052448092e-01,4.914154409881693608e-01,5.472597014392200920e-01
5.339419725858928212e-01,5.351263285957599258e-01,4.749298899364120530e-01
4.869800638750935162e-01,4.729675357698566174e-01,4.613522355109763717e-01
5.571390914396531224e-01,4.994965702202875391e-01,5.648542033868214629e-01
5.192910791652833868e-01,4.456864681765003722e-01,5.016324622377107412e-01
5.103648850033011275e-01,3.837730187500720258e-01,4.982139492119131985e-01
4.642600264688842016e-01,4.377574302322536082e-01,4.827687724072713404e-01
4.780440837918128461e-01,4.778803919809334610e-01,4.886091401860850891e-01
4.407742688703001899e-01,5.418519905132962444e-01,4.816871027447507947e-01
5.154568440891463821e-01,5.194185985299477615e-01,4.916800728420298028e-01
5.431335435588360294e-01,4.613527803912034209e-01,5.644367996124076692e-01
5.420533728061818213e-01,4.190898964647022940e-01,5.282732299706947021e-01
4.046169329175048901e-01,5.176714841710816639e-01,5.721354817459809450e-01
5.140664829502026301e-01,4.788913859902768633e-01,4.479735569028031050e-01
4.933619579912138509e-01,5.419394065377304281e-01,5.322446895072896478e-01
4.306611026519269747e-01,4.870550706280931119e-01,5.246861255448362904e-01
4.707316092646000039e-01,5.131422825669270660e-01,5.083069969523216214e-01
5.198659592210168601e-01,5.642274071245176881e-01,5.177792717057193572e-01
4.861748686115039964e-01,4.725898107553175853e-01,4.578384404482436221e-01
5.080404134561150586e-01,4.172554076245251209e-01,5.340594258344785183e-01
4.970304670446962225e-01,4.933040169500249594e-01,4.917622813104760571e-01
4.774554054697013883e-01,4.467202794651584097e-01,4.734379072598082216e-01
4.959119239937339607e-01,4.675192046402860679e-01,5.173005209408372274e-01
5.109807022962096212e-01,5.483703315437569170e-01,4.813888703260754687e-01
5.153841502264981944e-01,5.170876521688319016e-01,4.512720894806269145e-01
5.534328770496269589e-01,5.085984690476551551e-01,5.468157044755426188e-01
4.748018698313831720e-01,5.437092763747142232e-01,5.100154158959625539e-01
4.546675805234330348e-01,5.259048993245698522e-01,5.375460488995384978e-01
5.283985141834426358e-01,4.091244592928978685e-01,5.039097525481055495e-01
5.742287991195225150e-01,5.099764098279893076e-01,5.511651433914981357e-01
4.675755310868916492e-01,5.492791021520798678e-01,5.448052339641362707e-01
4.142741888589895893e-01,4.724735229210079157e-01,5.355255910694775023e-01
4.571105178324630369e-01,4.933021990147007929e-01,4.950526584438751376e-01
5.006549785955440868e-01,4.790367024037285870e-01,5.792776390317345703e-01
4.466147434691970508e-01,4.280440287224123730e-01,4.755189828044720235e-01
5.632040662303475775e-01,5.270865291719640799e-01,3.714765991686129198e-01
5.074909927436176416e-01,4.615998920830906571e-01,5.286443938918343743e-01
4.937746412307131849e-01,5.064048331735044872e-01,4.886078801000319771e-01
5.589390860663430161e-01,4.890810891087021828e-01,5.313607389338672604e-01
4.930076538225618421e-01,5.269912705736359282e-01,4.781477062467315853e-01
5.498053861404231801e-01,4.722326820660779911e-01,4.655293996842702064e-01
5.894388774202002912e-01,4.679055958303625085e-01,4.952322603296814840e-01
6.393579147661171413e-01,5.222883592993339263e-01,5.614317993197430745e-01
4.421928667831989124e-01,4.866025130918891217e-01,4.560626458971358543e-01
4.451332655215130552e-01,4.823366087414562853e-01,4.853634830668874245e-01
5.197846021208015754e-01,5.315856193756626213e-01,5.306716230301850024e-01
4.423441797955091070e-01,4.687632969707808961e-01,5.016561908292160865e-01
4.559238333410045030e-01,5.986742838373900755e-01,4.897443611964950594e-01
4.971711443129118724e-01,4.904748411014268061e-01,5.191623046835347477e-01
5.120655021014534070e-01,4.328101512666781558e-01,5.734483172419690966e-01
5.195528364649821818e-01,5.200516308023024337e-01,5.620457292261554771e-01
4.571800234828322096e-01,4.795597418500940901e-01,4.539353044707682416e-01
5.500658519231974575e-01,4.245524537879065141e-01,5.210776490897436330e-01
4.701050580803690648e-01,4.687182741223036020e-01,5.668794484367080111e-01
5.122001021496985773e-01,5.027554688562299035e-01,4.687075031523030844e-01
5.026369042295941725e-01,5.595838980925780248e-01,4.047500919478752568e-01
4.732488745164156185e-01,4.738695972351198438e-01,5.063686802250270125e-01
5.593645662172551658e-01,4.821170419580145805e-01,5.140997457820268846e-01
4.932415720716865626e-01,4.457114029685353418e-01,5.583748801303010101e-01
5.708576225740559229e-01,4.700230354508043717e-01,5.198125502032683309e-01
4.541716085126585312e-01,4.923564059797545522e-01,5.173282438654234205e-01
4.205595326379412136e-01,5.562728679141533128e-01,4.522136365026037663e-01
4.801026660952129599e-01,5.088629884336910436e-01,4.635519550128571198e-01
4.508687699748810673e-01,4.223850250822925867e-01,5.037697095275385228e-01
4.860819953105992575e-01,4.867519529000589595e-01,5.479689600012860318e-01
5.023721568675699745e-01,5.325169106341908210e-01,5.519363454297701033e-01
5.505000608503002324e-01,5.106220568463103460e-01,4.689444737609327896e-01
4.849253706336931757e-01,4.570204032968764873e-01,5.402629576725779259e-01
3.888569285857216840e-01,4.611404838743834445e-01,5.279464502571381557e-01
5.694541029202341287e-01,4.848192891148832007e-01,4.739876000024798586e-01
5.085062839509416621e-01,5.190509909613381101e-01,5.971982244346556445e-01
5.189133880097143159e-01,4.953412036786174477e-01,5.028519686976523628e-01
5.210231898664963168e-01,5.123916765608762525e-01,5.020910955886264126e-01
4.898010243603765912e-01,5.343687384624373760e-01,5.190910141057364369e-01
5.173753620760731531e-01,5.588596688675400159e-01,4.992224866822116414e-01
5.626861898419703856e-01,5.559643708945940510e-01,4.502052536431347396e-01
5.499348603228481069e-01,4.594523384348041528e-01,5.575283711594511971e-01
4.789770779650189825e-01,4.856826889235117961e-01,4.837752530317181998e-01
5.435731297561614550e-01,4.711035793702255114e-01,5.568052765814046623e-01
5.652328958412989879e-01,4.760928568613551071e-01,5.340468587959180669e-01
6.128386914715494571e-01,5.700940006349308753e-01,4.767765096824879700e-01
4.831211100981190887e-01,4.351380479791179257e-01,5.355270659218053231e-01
5.303706945523888328e-01,5.059063196920440264e-01,4.961163528692075775e-01
4.893140398675713820e-01,5.349737233912633672e-01,5.001323515762542415e-01
4.773682083523853592e-01,5.184889398332142019e-01,5.129801054896019341e-01
4.821216312766660739e-01,5.306646296798664952e-01,4.413520799412694595e-01
5.187370493651722869e-01,4.484441390904977953e-01,5.210783953479246611e-01
4.799978352736587461e-01,4.846528051879950283e-01,5.494525611001477294e-01
4.812965804404032433e-01,4.975608501222559266e-01,5.550001003116329379e-01
4.581056176263478830e-01,5.029225077778577413e-01,4.658541150407323750e-01
5.394106631670125829e-01,5.390773817266824031e-01,4.892393234491449472e-01
5.081347900167931808e-01,4.822795993792626246e-01,5.484919157319999572e-01
4.872294119810860469e-01,4.926482112187430262e-01,5.050339007863563490e-01
5.810400425465663821e-01,4.745123547533500741e-01,5.700750821532224455e-01
4.995818826280036262e-01,4.851781232873935146e-01,4.745009672420357760e-01
5.146965617434365869e-01,5.591320518249697225e-01,4.848927551968639227e-01
5.353271710372907721e-01,4.982233589673257801e-01,5.483235841116140818e-01
4.912371896013413841e-01,4.312073492608102243e-01,4.986316790160591483e-01
5.347689041634693385e-01,4.950940240491482625e-01,5.750711356957288745e-01
4.790967851296221158e-01,4.778111603342024005e-01,4.939118861754204226e-01
5.251629397831950596e-01,4.956471410285663293e-01,5.251622027472987453e-01
4.756285602791104905e-01,5.336200881747753533e-01,5.464558241479854361e-01
5.276560682043935913e-01,5.471904447035080832e-01,5.795806781805266095e-01
4.855801412748916301e-01,5.412067015012849147e-01,4.856650803140224459e-01
4.539343701963535760e-01,4.582712436667873424e-01,5.774011733985598971e-01
4.352993248712172525e-01,4.881284073843451532e-01,4.918237047345082047e-01
5.584824478059783326e-01,4.832080756589298698e-01,5.100325880313146820e-01
5.351121630986360733e-01,4.839314255190766412e-01,5.162684475274421647e-01
4.811282617418162766e-01,5.436933760476393429e-01,5.344380327157515209e-01
5.429104959389408069e-01,5.404369204828588513e-01,4.938762274296419896e-01
4.516652046549850530e-01,4.349676198930326199e-01,5.345838452867759383e-01
4.142464762465947192e-01,4.740418650135937995e-01,5.600147166086103523e-01
5.236219657287151108e-01,5.278760361469834184e-01,5.239550533797726617e-01
5.029313010893313729e-01,4.809276489843065105e-01,4.885776411767312477e-01
5.434532764968414975e-01,4.920713342101869503e-01,5.882919655651511759e-01
5.378582660340121002e-01,4.802402026458233442e-01,4.922665465184707934e-01
5.457520176916548227e-01,4.980926430159113849e-01,4.850429454478352720e-01
4.935701798193866119e-01,4.509375563746863547e-01,4.732771849937332798e-01
4.935269293266323909e-01,4.801459560098482737e-01,4.970376662304871185e-01
5.793101324057681190e-01,5.023668972665341625e-01,4.085463226252861735e-01
5.076127559138124967e-01,4.128200429126843707e-01,5.262215143020798624e-01
4.065725680260882657e-01,5.033481109458305403e-01,4.700404519730975172e-01
4.888048101899858389e-01,5.380215337703140310e-01,5.065588214658987010e-01
4.698455991812840460e-01,4.992139749882654187e-01,5.815831526377133187e-01
4.576734967251844810e-01,4.528641007482423486e-01,5.452911937478315263e-01
4.850614467614209335e-01,5.863237686160234219e-01,4.889070465477670102e-01
5.115155165388658443e-01,5.244525991838957513e-01,5.081312472468599850e-01
5.476632737725427580e-01,5.799366024009179332e-01,5.574436341980758547e-01
4.878271949713335331e-01,4.826183920267931859e-01,5.765145656489307768e-01
5.142157849385152746e-01,5.449624043487792946e-01,5.935929923991236645e-01
5.274591598245164104e-01,4.672684636496562405e-01,5.216627964434614739e-01
4.872252569935430766e-01,5.083143172319054548e-01,5.907337426440781858e-01
4.737237784461145740e-01,5.173460181457222307e-01,5.525163362390410615e-01
5.149581568893270012e-01,4.790199377130830438e-01,5.578912403499295403e-01
5.560621210454028684e-01,4.696373248955888480e-01,5.580389292170570004e-01
4.242595788723462213e-01,5.244339446246353287e-01,5.157021683911542365e-01
4.617870862502737039e-01,4.941643155331200687e-01,4.366071396195061460e-01
5.614314727289434481e-01,4.693949110927817525e-01,5.043887999902767483e-01
4.151895541273055157e-01,4.948101015397323721e-01,4.457475930692323396e-01
4.712533013506560731e-01,5.213525831310934500e-01,4.865058814213682470e-01
4.375426612158852535e-01,5.199550446847126528e-01,4.523702810907686556e-01
5.174435909802596045e-01,4.903831057232114765e-01,5.124967606244139606e-01
4.992106943974434774e-01,4.624290617310359841e-01,5.047078743951836088e-01
4.623041969226079906e-01,5.173902777046428536e-01,4.679202988063245194e-01
4.845952113637987391e-01,4.577522581639936194e-01,5.663961012323832644e-01
4.849727302429533426e-01,5.248803371752513991e-01,5.124022050762143676e-01
5.241938919641763173e-01,5.031071480534271556e-01,5.632997550016635158e-01
4.848736342614433648e-01,5.403617379792606812e-01,4.772007648565209648e-01
4.605166897832871920e-01,5.459392255803953153e-01,5.099261723277196401e-01
5.088483627446556135e-01,6.092132375428084279e-01,5.493758127587581308e-01
6.193036444301094345e-01,5.565711492792423387e-01,5.050418017198990972e-01
5.115800210417377203e-01,4.946131980058331989e-01,5.066814943335878896e-01
4.850976145786947136e-01,4.742719327236293303e-01,4.935922450398065320e-01
4.501414823453804837e-01,5.517740934200062730e-01,5.233550513861111586e-01
5.027267783596537365e-01,4.653613581454998926e-01,5.365435307843272605e-01
5.284552311657929602e-01,5.462228089669108888e-01,4.524716844024124218e-01
5.039450163101784064e-01,4.815004171500795738e-01,5.711367439153947068e-01
4.781605996239229328e-01,5.040432712014555339e-01,4.581196923438770607e-01
5.224490288525767134e-01,4.824574701571449631e-01,5.324666494218588397e-01
5.298692943137346401e-01,4.970688471779234896e-01,5.382085056176488802e-01
5.004618491432940575e-01,4.982655390957750896e-01,5.382322541655719661e-01
4.955486072485747462e-01,5.146219847645702172e-01,4.883782332473232679e-01
4.996792891212599175e-01,4.502082971054203187e-01,5.132229693039417340e-01
3.913763034728716117e-01,5.127391721374588984e-01,5.016812739736088433e-01
4.521551249734561129e-01,5.178657835119050423e-01,5.465015256275790323e-01
4.525836419709287628e-01,4.527926641966375509e-01,4.109273397651322379e-01
5.742831450251497660e-01,5.179249324267942711e-01,4.635931383558467567e-01
4.898777165855219828e-01,4.408694640080790816e-01,4.735801987945567060e-01
5.728423204886211595e-01,4.810237433858740586e-01,4.324896166647113627e-01
4.978307776686436981e-01,4.190022891712932296e-01,5.470090877063390478e-01
5.031128256102009866e-01,4.889974952811272924e-01,4.365164167595397271e-01
4.637355249462297158e-01,4.145206732337967104e-01,4.210368254269665211e-01
5.426991035936192809e-01,5.093645119833616342e-01,4.520145977156092565e-01
4.009066119375377379e-01,4.557640843040368650e-01,5.641804470362987711e-01
4.904605420997862342e-01,5.079815912993471683e-01,5.044354489841158529e-01
4.427925622920247939e-01,5.268032371598179164e-01,4.385260199126824188e-01
4.767768972039942987e-01,5.701111124001423391e-01,4.369833367029574145e-01
4.973169988967696131e-01,4.887187930801380475e-01,5.231735758231540467e-01
5.452438250071204306e-01,4.969515680661807933e-01,5.175558561379801636e-01
4.631105881722403783e-01,5.317508806077797523e-01,4.921982527912225347e-01
4.744100262150901526e-01,5.117877508039252454e-01,5.420323743859226662e-01
4.860236615432131924e-01,4.841847644548541441e-01,5.050760840725113665e-01
4.862771202073967736e-01,5.502506293266632431e-01,5.235284295527797838e-01
5.339285747368606172e-01,4.090132088872288074e-01,5.640883555061514398e-01
4.785609356829615413e-01,4.523771482959449974e-01,4.766177337474530318e-01
5.742402059346487508e-01,3.923479555938159113e-01,5.274869025126094346e-01
5.057049200027919911e-01,5.635557157300523645e-01,5.020612399335429021e-01
4.684583481623102452e-01,5.399923652381578565e-01,4.886217191578308694e-01
5.238769893730322869e-01,4.653567068527554307e-01,5.819072040712787164e-01
5.411904626307768584e-01,4.428459151387396098e-01,4.869319579660759678e-01
4.973156820023735269e-01,5.323860752119352613e-01,4.737991480806101330e-01
4.502232643765382014e-01,5.071321951443796827e-01,5.332366094526034273e-01
5.769368204408741319e-01,5.395975020779346654e-01,5.173233846519310619e-01
4.934970723889768873e-01,4.795424721503707688e-01,5.559040800115651049e-01
4.937873749258517297e-01,5.501975406995828211e-01,4.750326354985393573e-01
4.656110992314634878e-01,4.963777029925448003e-01,4.912750518935524169e-01
4.890915403835099928e-01,5.091268809028018927e-01,5.495589779739314951e-01
5.644622568731272327e-01,4.991601272679253576e-01,5.117545989285124941e-01
4.557510809209451841e-01,5.331500663165573695e-01,4.230626734151773372e-01
5.852976732617919398e-01,4.085827332034496218e-01,6.003813654818060952e-01
4.621229770557624961e-01,5.080667176089362913e-01,4.791835471844148597e-01
5.256530658530548239e-01,4.300859409890741003e-01,5.815091621512084030e-01
4.563908901399961748e-01,4.314746039160547997e-01,5.221569674577413167e-01
4.944727300649806034e-01,5.244405508913091429e-01,5.545735724423931368e-01
5.120382083852593746e-01,4.588304529123409803e-01,4.773689620394886424e-01
4.554067044249796026e-01,5.050937186228680043e-01,4.632682717456017563e-01
4.656580473664865827e-01,5.135357506327011823e-01,5.644253712459114114e-01
5.452258414808166531e-01,5.087180847494172653e-01,5.560298665968429477e-01
5.248975383091545321e-01,5.047767840154242514e-01,4.453397260672461999e-01
4.512669478249592414e-01,5.062379764588111897e-01,5.156163591755176245e-01
5.582559616487255960e-01,5.965725207787242468e-01,4.390697796597443081e-01
5.174058772836191977e-01,4.608729491649360410e-01,5.167008129288112039e-01
5.132483262378751965e-01,3.415390425398032725e-01,4.260616340858652262e-01
4.885741754075285104e-01,4.650353168716923613e-01,5.366295073463038801e-01
4.711680990597109653e-01,5.275684904817790066e-01,5.575015195420812697e-01
5.531800439934307922e-01,5.678462805378856615e-01,4.710483773862303436e-01
5.296286329505996981e-01,5.749377218302108572e-01,4.202489424328567647e-01
4.865183336922510038e-01,4.583524840591736149e-01,4.961100793983861390e-01
5.245018001892638448e-01,5.144232832205797301e-01,5.144818671078034145e-01
5.531109554235391634e-01,5.157618405290529395e-01,4.853467353127637884e-01
4.665758469227697658e-01,4.630114205579812792e-01,4.589907780657617176e-01
5.509249411864224344e-01,4.312620563272642760e-01,5.082466484662345740e-01
4.126745140150507307e-01,5.232984484122792379e-01,4.601747813356208416e-01
5.955260185413903118e-01,4.596416536005968889e-01,4.579876835138461666e-01
5.111212389054125005e-01,4.291999163049417532e-01,4.904728429018288538e-01
5.547586085995458438e-01,4.715959389891541953e-01,5.495274479642235921e-01
5.160731365168238494e-01,4.844034079535761705e-01,4.781685630634415207e-01
4.978524558980989556e-01,5.026615769617761575e-01,5.110215058648214237e-01
4.661255324289257373e-01,4.514054744314739964e-01,5.557050370582496956e-01
5.571880727857414506e-01,5.170104435058157089e-01,5.294118650609344057e-01
5.036346989255565676e-01,4.910855027064636169e-01,5.002946894396576027e-01
5.743257153341843058e-01,4.612566983111191510e-01,4.617663872707886696e-01
5.596736553965854233e-01,5.367033819254887206e-01,5.671007923818309759e-01
4.905967998613179337e-01,5.059253799929771533e-01,4.676177600944823043e-01
5.492652062322858075e-01,5.180070647576943133e-01,5.126011201670884754e-01
4.805176180303190048e-01,5.600003940738024211e-01,5.262772997052025392e-01
4.794319553533886169e-01,5.296129935924124288e-01,4.851302848118514421e-01
4.900890345913443413e-01,4.718694044090518402e-01,5.565219800626933777e-01
5.736486405438969705e-01,4.294929472963051054e-01,4.377956609540462063e-01
5.267204126303769440e-01,4.954072192254022067e-01,5.280416649063531809e-01
5.078863666910667929e-01,4.666060904396243658e-01,4.639681445395247295e-01
4.625785084061263541e-01,5.235184385437288146e-01,5.224565085909305129e-01
5.448988214220311654e-01,4.985595553740105879e-01,4.699604610180089792e-01
4.426974804940340125e-01,6.009495630904745367e-01,5.135502200178249099e-01
5.462699586819200759e-01,5.434476567860936358e-01,5.135147304441545213e-01
5.424447389926090324e-01,4.998476824010530950e-01,5.119213233856095835e-01
5.380561112300807913e-01,5.630106103207449531e-01,4.730075921872674005e-01
5.490807465070349780e-01,4.707257335341226701e-01,4.688792213996603175e-01
4.935276382638157378e-01,5.136690574753625116e-01,5.122809804109129672e-01
5.337455898348929528e-01,4.516056782706104888e-01,5.943973264364127429e-01
4.800982403501121154e-01,4.979027313247750275e-01,4.892837991338631620e-01
4.592642153407648919e-01,4.918622222913620612e-01,5.227669056150368032e-01
4.460455379015298982e-01,5.496539930440147437e-01,4.633350965562880730e-01
5.514868041955777178e-01,5.177679453703198931e-01,5.028751489489199367e-01
4.950918680935321725e-01,4.929811091520915345e-01,5.173151792162169471e-01
5.077779052856919995e-01,5.876706315774040679e-01,5.626000912871619297e-01
5.052757241454768344e-01,4.538492215102462590e-01,5.509213707536689819e-01
5.532388558716221372e-01,4.779081380377287469e-01,4.989267806061605803e-01
5.298437137322122847e-01,4.788539793789661214e-01,5.377964098368521739e-01
5.058764154020648496e-01,4.917860356192902405e-01,4.692485274676267415e-01
4.300475543618254015e-01,4.752442758907766684e-01,5.796950962693341314e-01
4.625247949124878244e-01,4.984504014031442276e-01,4.552319134146696200e-01
5.298570996854641280e-01,4.448293588826693346e-01,5.458007794256943823e-01
5.034981284801056667e-01,4.349176176622111534e-01,5.329282885118683533e-01
4.578421269158942652e-01,4.541993656133745949e-01,4.803340246191640794e-01
4.498785793399412980e-01,4.932451727088124072e-01,4.902897702718616024e-01
5.393023525226890991e-01,5.039421500068658188e-01,4.979660123852079345e-01
5.240827697965488863e-01,5.015169612849926795e-01,5.242435675661859529e-01
5.092427454390832109e-01,4.712821087642073969e-01,5.457325805637444072e-01
4.540106801242904666e-01,4.443578491758483073e-01,4.904207699722947789e-01
4.801189319489668206e-01,5.489547815936787201e-01,5.055143131795818423e-01
5.900484894663825530e-01,5.251199806575543860e-01,4.940784534620216717e-01
5.235286564481113070e-01,4.860456166849533854e-01,5.070258536519620662e-01
5.141095643118157588e-01,4.961428012524827791e-01,5.245441942888855458e-01
5.006861411874272694e-01,3.802391045546784087e-01,5.085696261502802296e-01
5.484318487510391193e-01,5.556366792614916283e-01,4.739006596382084324e-01
5.075909021984932323e-01,5.066561372507949468e-01,4.513891082582902059e-01
4.837781558078489419e-01,5.074480227812623312e-01,5.001249584162730244e-01
4.747716143034136915e-01,5.294663072809963067e-01,5.096473131288505876e-01
4.909239604246035671e-01,5.042239647042581208e-01,5.030333990996253002e-01
5.092877710933880753e-01,5.607758865818857075e-01,4.705520020726516317e-01
4.583683401235803534e-01,4.670848092865047541e-01,5.964779956756599555e-01
4.769848885511762115e-01,4.890748636395543802e-01,4.287556405024009476e-01
4.475963351678055036e-01,6.171693013209448297e-01,4.744287806726687484e-01
4.402291573202654629e-01,4.644314024097813132e-01,5.136763952367824348e-01
4.452302454554075140e-01,4.900236491910298642e-01,5.462464960954548365e-01
4.644571505364554209e-01,4.784326699475831002e-01,4.795017504638839356e-01
5.048903101114488035e-01,4.804420922478582212e-01,4.860094105073969328e-01
4.029871583246057432e-01,4.924429827119196079e-01,5.103363905325608574e-01
4.988919503234840458e-01,4.618579430901614269e-01,5.767872409438845605e-01
4.786095275236780799e-01,5.853890914677274404e-01,4.989694916529725521e-01
5.051951792533212471e-01,5.705840125184645784e-01,4.958413723898763559e-01
4.742356496582673109e-01,5.640464109420422201e-01,4.808492735216958747e-01
4.500829556455327451e-01,5.114583969032278077e-01,5.124333624847070556e-01
5.325294207163057125e-01,4.080826788690247731e-01,5.495929257029990023e-01
5.888152407083557804e-01,5.514005469403717719e-01,4.698519991199688883e-01
4.700733629250946066e-01,4.807298101362419418e-01,5.461922740310634072e-01
5.160492379340898550e-01,5.465252734814678437e-01,4.525473673118216578e-01
4.420039422215605307e-01,4.908520791401449479e-01,4.892834054350529427e-01
5.271624052448643516e-01,4.467987562949695124e-01,4.203065462598844504e-01
4.969686729843665884e-01,5.130790149370743070e-01,4.113809208650820448e-01
5.166097657064427917e-01,4.616500575256125560e-01,4.854395394323222646e-01
5.304318248780707235e-01,5.179094727946309540e-01,5.157108899288648240e-01
5.237237254209706760e-01,4.723359347477900649e-01,5.530922215348118565e-01
5.249203097492147752e-01,4.227167382318238742e-01,5.312090802906589415e-01
4.906549335963122926e-01,5.430872973320871600e-01,4.355455959212053418e-01
4.904484501548937447e-01,4.972496605052466601e-01,4.954019850157138638e-01
4.985663631451390798e-01,4.810626573941064188e-01,5.421043614631838592e-01
5.401980325953487094e-01,5.139138723645231277e-01,4.356735592459621276e-01
4.756035580556324804e-01,4.747973509170799744e-01,4.249509910794467826e-01
5.588790004892913998e-01,4.855198154533517108e-01,4.353464642351240754e-01
5.248312421291129182e-01,5.160123667299083561e-01,4.853852916904853876e-01
5.005138977991073768e-01,4.041418680862329249e-01,5.343506905028454490e-01
5.197720896171172944e-01,4.699110531574451910e-01,4.745007338724782087e-01
5.180593729509199719e-01,4.952631969219563612e-01,4.834811023860740020e-01
4.770099590241735910e-01,4.856504970927743026e-01,5.070870190584672033e-01
4.012447226030263492e-01,5.547130767103485294e-01,5.368035904765497968e-01
4.888883065873203537e-01,5.156173495068262502e-01,6.044152884445941343e-01
4.659561342567034026e-01,5.055016719624563226e-01,5.230307874853347139e-01
3.778200181711275918e-01,5.597509921630922092e-01,5.451351020241297363e-01
5.479879440905029986e-01,4.930454474997289505e-01,5.687908821415311733e-01
5.133965967654563478e-01,4.675867062764909599e-01,5.529912313042715244e-01
5.699887740287157278e-01,6.314868650452319931e-01,4.395066263726394307e-01
5.472157805528714558e-01,4.745050559552385638e-01,5.497978930321637536e-01
5.668850892374026618e-01,4.794651776791076792e-01,5.435860091682442885e-01
5.692219440835115662e-01,5.313888329221098106e-01,5.262135901396386428e-01
4.973417980719319065e-01,5.270956480594247706e-01,4.875165538804017151e-01
4.625452991872825992e-01,5.251186367630072960e-01,5.298358125141242603e-01
4.980358676359645242e-01,4.891082267892797319e-01,5.178415626176744446e-01
5.266736966383760432e-01,4.948504619267822258e-01,5.018407935682919208e-01
5.380908798555421590e-01,4.548312864916301823e-01,4.680756122587005907e-01
5.473602755323093705e-01,5.647418826936489999e-01,4.750099047099083371e-01
5.229182423199602026e-01,4.191735077644119789e-01,5.581410018907801973e-01
5.940975984931923248e-01,5.043140892889350635e-01,5.362275145985668789e-01
4.293014593347480590e-01,5.063541745127807525e-01,5.501918671040018083e-01
4.439440705130588416e-01,5.049128895589171107e-01,4.601548462188879141e-01
4.342974087283988927e-01,4.936120755918485536e-01,4.242973872920481337e-01
4.828319054816914702e-01,4.883241542320588269e-01,4.584137302332442765e-01
4.907755153393835723e-01,5.521448805194921761e-01,5.804733715040983899e-01
4.872982779063194658e-01,3.990633773244131044e-01,5.017146356072296198e-01
4.648363111424742011e-01,4.585797067171524799e-01,4.644627596871426234e-01
4.963928499978618181e-01,4.333081828412049252e-01,5.346612938832464579e-01
4.350388164740682795e-01,4.806092256962299913e-01,5.191324052843152570e-01
5.101286490047320932e-01,4.858032827421107647e-01,5.556150974135990461e-01
5.340876527827538300e-01,4.935568853768761421e-01,5.436940315773515220e-01
5.364076472705340271e-01,5.001061646211528711e-01,5.426536454500807682e-01
4.688832922838286899e-01,5.104035180109118830e-01,4.271629617854579841e-01
4.274171223859654090e-01,5.305230639067258780e-01,4.934738563802398836e-01
4.601170389973662234e-01,4.242841344736293374e-01,4.158678976896820756e-01
4.387016321725754064e-01,5.218436905873956588e-01,5.416665767912215435e-01
4.325819849575587295e-01,4.862419982134075225e-01,4.968076984294826914e-01
5.000716833194412958e-01,4.890082241542630936e-01,5.141858931852626435e-01
4.338867448455878129e-01,4.384583517230176142e-01,4.700714030375643948e-01
4.653446911871046421e-01,5.128033227530789384e-01,5.340834945525104738e-01
4.760154504577499002e-01,4.834029151765169563e-01,4.881043915440760883e-01
5.636879249658586222e-01,5.475213913109441277e-01,5.256250501773586103e-01
4.923291645599902067e-01,4.930259194866974393e-01,4.519645307414529301e-01
5.192623080692906345e-01,5.057434770007888103e-01,4.980688474951191491e-01
4.790881589235084781e-01,4.252368425566426247e-01,4.338917736846216178e-01
4.856601774964423024e-01,4.835912715795542272e-01,4.920983702522636061e-01
5.449915578002365590e-01,4.849815067193992690e-01,4.594169298884346886e-01
4.780702659847548830e-01,5.195688266821073542e-01,4.762740920887112428e-01
5.525974911168592962e-01,4.768515549096766226e-01,4.757807173694508229e-01
4.898323375540589719e-01,5.242242233986043054e-01,5.223814515663903757e-01
4.520465813476123307e-01,5.170359678125148184e-01,4.657402390622462085e-01
5.162018756774238160e-01,4.949417970246557386e-01,5.587977641204683321e-01
4.879499455426709043e-01,5.302737038176483786e-01,4.767064417353906181e-01
5.411075153325497489e-01,5.118209051084217087e-01,4.578698566405938752e-01
5.022278202065061370e-01,5.117016257984917660e-01,4.957672301067724829e-01
3.464897861081463470e-01,4.941345123253559901e-01,5.080074535563022797e-01
4.873893628035733117e-01,3.795286846647883960e-01,5.303675379212764440e-01
5.811938671944720802e-01,5.322273817699602061e-01,4.920778236171349240e-01
4.458547498906631490e-01,5.553117077296986226e-01,4.813137941940727749e-01
4.544481794694192889e-01,4.371650216793352972e-01,5.076372371721286081e-01
5.334692897044068793e-01,5.449252534343902443e-01,5.344364080009538220e-01
4.795040359996938784e-01,4.953036797668287083e-01,4.917233496002825777e-01
5.705335932005882738e-01,4.765157285826732148e-01,5.101339783831941865e-01
4.855060137398379827e-01,4.868641669633195779e-01,4.688268375922006737e-01
4.297981729225708314e-01,4.954058177025076337e-01,4.583638869866161758e-01
5.025614420442516828e-01,5.213920870204643565e-01,4.785443873965296580e-01
4.859042895435749521e-01,5.819086926478146404e-01,5.784305063934875868e-01
5.314393814185907061e-01,4.271946886856310965e-01,4.865610074538966323e-01
4.683497241148765200e-01,3.989993330107396985e-01,4.366733787465348904e-01
4.933479921103945398e-01,5.067501188863468009e-01,5.012369448370741498e-01
5.278967465322640384e-01,5.746783515075579718e-01,5.428630705224444242e-01
5.640702468846726658e-01,4.907963929178468798e-01,5.224132909508123479e-01
6.188140009638638528e-01,5.962779374006861310e-01,4.180856902820084819e-01
5.422598606610256056e-01,5.069907519811028829e-01,4.497432264181995820e-01
5.900889350634475061e-01,5.677286900468672126e-01,5.133651411084313443e-01
4.809777423511379379e-01,5.752014456226728356e-01,4.970160989838021126e-01
3.837781259865289396e-01,5.171278415892818225e-01,5.113025630637871854e-01
4.455163698873274569e-01,4.926412552563859126e-01,5.066860753321110744e-01
5.342113508315273762e-01,4.337401445206029438e-01,5.170748351645898522e-01
4.720889640250474639e-01,5.354908001685102503e-01,4.332058928699575318e-01
5.053494739590198570e-01,5.343114824774931604e-01,4.786539344684498931e-01
5.005190535348343905e-01,5.471240225835938276e-01,5.012061636528578612e-01
5.416368225726072572e-01,5.274839756983427108e-01,4.732655971843551801e-01
4.594989992789330069e-01,4.817411065997441177e-01,5.556923706179314193e-01
4.946809519662586085e-01,4.942555046401576058e-01,4.999279458906732421e-01
4.379956328633340945e-01,4.882485733408434281e-01,5.244308355203523009e-01
4.673975833371669664e-01,5.341679642421626184e-01,5.113668789355276800e-01
4.589091892383871940e-01,5.259819156316273281e-01,4.867859129609435342e-01
4.985918026559928995e-01,5.036838979929881832e-01,4.890578773197510887e-01
4.192808599800424418e-01,4.872907478724432528e-01,4.090088290223379275e-01
4.850419456662655726e-01,4.750793190617298989e-01,5.118176758805128568e-01
5.060917054381854907e-01,4.209476937472311775e-01,5.371252750101950246e-01
4.716250624966697447e-01,5.734747634759933543e-01,5.487207700398599730e-01
5.114983073343430942e-01,5.029623818749898723e-01,4.935831325546179427e-01
5.134040777084376561e-01,5.404784506521534970e-01,4.484851894832861952e-01
5.021748065019362439e-01,5.688224872689742195e-01,4.871518955442645793e-01
5.542228182262080027e-01,4.693458118001158641e-01,4.658867941343787789e-01
4.201786357718521048e-01,5.150017583467311200e-01,4.678397846086094214e-01
4.814006116775426114e-01,4.606134675174836657e-01,4.808433794022907715e-01
3.784142363064108561e-01,4.958619483533270311e-01,4.815610461547473742e-01
5.945665718782339182e-01,4.625782212108170421e-01,5.533378564208162320e-01
4.976107357621969984e-01,5.157099566934443269e-01,5.431202237205150496e-01
3.782128935891770349e-01,5.491647322815472743e-01,5.532693672751651803e-01
5.204027038501486402e-01,5.060758408088761318e-01,4.991318617220728004e-01
5.189030881981366861e-01,4.924492970774624334e-01,3.562659434038430439e-01
4.727125750022430628e-01,5.784863189669461336e-01,4.342468474274134849e-01
5.052370189246944143e-01,4.828192588061950286e-01,4.697407036464388841e-01
5.090459047711456408e-01,4.816959744475625693e-01,5.024464384174960330e-01
5.152737849361915812e-01,5.139195162777461245e-01,4.929765827825950963e-01
5.390409478225994810e-01,4.997955605057818884e-01,5.109934876110423518e-01
4.737792772559925591e-01,5.051791826942257924e-01,4.970447079032435100e-01
4.650219027478839084e-01,5.757671899157670303e-01,4.923878760828413470e-01
5.224215189981412655e-01,4.754325885416935127e-01,4.979517161623559507e-01
5.057751475470523284e-01,5.040889604644471778e-01,5.625506077572152153e-01
4.596854179926541106e-01,4.821912035927110596e-01,4.626642076758112898e-01
4.532484173800648275e-01,5.167244886751398703e-01,4.323637989561427974e-01
5.257581871448726574e-01,5.448641307727245531e-01,5.095564422523212178e-01
5.093426532983069688e-01,4.967258105487753483e-01,4.823082826442721682e-01
5.343005318984092034e-01,5.377347897018263101e-01,5.430202893177723533e-01
5.551539861639195328e-01,4.387465363181878297e-01,4.591647229096137983e-01
4.279133919842890710e-01,4.883675700532349451e-01,4.932675964767526677e-01
4.861568938746968493e-01,4.904726450740201082e-01,4.729816101538044104e-01
5.088557123746670907e-01,5.359737503447087326e-01,5.074408405737396155e-01
5.312822967579462485e-01,5.132313305489276667e-01,5.068078449738084856e-01
4.882213653200420111e-01,4.985844673203503885e-01,5.565920170417975044e-01
4.441985188998096024e-01,5.079599064057130908e-01,5.209877314950425164e-01
5.109326294127163326e-01,4.667473492572090654e-01,5.056179517762514619e-01
4.500378005979578377e-01,4.938674189335972020e-01,4.937028427073542614e-01
5.847792185907866314e-01,4.654158709176077213e-01,5.274576428544647255e-01
5.426741854484991023e-01,4.944266904525336237e-01,5.729071949080192239e-01
5.643214614022271647e-01,5.033094358294931681e-01,5.380803318678931690e-01
4.777395473324557718e-01,4.614368393232514687e-01,5.065905477302473647e-01
5.089240458119180799e-01,4.967647538061108481e-01,4.601793625716800173e-01
5.353317478590799983e-01,4.454441881420284632e-01,4.539515618817632214e-01
4.270521011971887271e-01,4.702937446554833478e-01,5.249436446438657811e-01
5.393643347246580566e-01,4.850191838360289887e-01,4.250014750231348448e-01
5.030116220846643227e-01,4.524063490229603968e-01,4.712986560078757936e-01
5.176847661967920455e-01,4.652499359732970574e-01,5.337445026326533837e-01
5.268043112725645516e-01,4.644657159051104323e-01,4.312006427223859517e-01
4.890018806733660295e-01,4.864444119391660437e-01,4.966916989045284114e-01
5.390859452202559909e-01,4.819349151822241994e-01,4.915412516887002203e-01
4.672699870070614603e-01,4.453179863221489176e-01,4.833023375882771755e-01
4.595281919136552928e-01,4.781507361249515697e-01,4.661825737027194827e-01
4.853913892752703685e-01,5.474004160398621144e-01,5.318584340652308118e-01
5.116691841544742658e-01,5.009239370700816485e-01,4.556800564342419757e-01
5.477375092903092879e-01,5.883937000640919734e-01,4.920519853016249723e-01
4.368001984811526461e-01,4.204776505432367695e-01,4.529859622305023592e-01
4.945821943097158391e-01,4.854919820738125558e-01,5.537785448917253994e-01
5.435740540352315131e-01,4.492129541246766000e-01,4.965449346745886006e-01
5.231993811938815409e-01,4.360560491086407642e-01,4.374140536623270514e-01
5.136624602695636366e-01,5.901330820687461509e-01,4.552096259185461347e-01
4.944663362928757300e-01,4.844311630184322537e-01,5.196096876446369972e-01
4.014605891007062555e-01,4.953332512010947819e-01,5.418341107151917191e-01
5.437282317392897468e-01,4.945593392427669044e-01,5.406768914122006553e-01
5.680124756369153705e-01,4.753855810809301530e-01,5.076311287852419696e-01
5.479633139463755409e-01,4.942226897372723471e-01,5.029585259934431507e-01
5.539683591923766359e-01,4.242939128986180641e-01,4.920999773856244985e-01
4.594064968585451214e-01,4.795343155699789972e-01,4.551901165563082552e-01
4.168323587277960596e-01,4.985772383884871095e-01,5.185797192838793590e-01
5.355056702452122286e-01,4.893900652216213176e-01,5.286427341826887005e-01
5.245695138768924348e-01,4.449140034179999148e-01,4.894037447538667207e-01
5.033859737407418988e-01,4.961126752317798760e-01,4.940628805313335148e-01
5.869677437524664088e-01,5.275989443788529076e-01,4.652305389045793271e-01
5.631546289029346619e-01,5.185276930846082211e-01,5.705553557249680718e-01
4.430395397352249187e-01,4.454027686610855796e-01,4.964680093594245891e-01
4.740458734829527399e-01,4.378337521416961198e-01,5.148785737849936872e-01
5.462645235400035437e-01,5.488600474153370046e-01,4.690612347202963162e-01
4.672135269256317835e-01,5.453837189936991958e-01,4.301638457095611767e-01
4.468052447762069779e-01,4.929888564731134681e-01,4.657111730575786979e-01
4.208243317001155726e-01,4.892751786667060010e-01,4.652185260954481150e-01
4.474981823882793752e-01,5.130656972911090685e-01,4.834044233429734549e-01
5.317145638811867636e-01,4.561543638592304162e-01,4.622027932441845621e-01
4.923332155902130358e-01,5.103400879155832737e-01,4.706057019171876465e-01
4.754732088661847156e-01,4.510091229967404525e-01,5.315285062301174923e-01
4.919137538100820661e-01,4.964173767703424223e-01,5.808340010858533686e-01
4.400257415421451879e-01,5.354905882891917157e-01,5.521218251671252686e-01
4.919649594443872287e-01,5.187843046540890901e-01,5.352154666864895605e-01
4.854216756744734740e-01,4.594408876594682778e-01,5.181343219186084204e-01
4.272721080564138019e-01,5.609659527843415816e-01,5.602522949828979693e-01
4.075663263651256862e-01,5.460388998483428624e-01,4.828649006312100145e-01
4.974486078590921179e-01,4.800288869053443985e-01,5.103401857978889788e-01
5.368675919716353606e-01,4.363873422908399191e-01,4.582982654269990297e-01
4.621978062617949079e-01,5.205047781368384863e-01,5.255031851100826490e-01
5.164415600235816584e-01,4.994522501365017408e-01,5.317743281042089931e-01
5.072614464829467984e-01,4.628311452799890313e-01,5.656842533326518208e-01
5.561303864492572746e-01,5.597600961808676390e-01,4.502827377261697794e-01
5.287240866185335397e-01,4.918967535501564403e-01,4.931100109466290959e-01
5.588875960748289629e-01,5.766835367702870530e-01,5.258421281352103627e-01
4.652114242001764710e-01,5.053651703853928590e-01,5.238664528995862213e-01
5.274110421893790646e-01,4.978462271975318543e-01,4.616602951837837643e-01
5.551005196094921379e-01,5.276888363057785636e-01,4.589946391753209620e-01
4.788060613199035531e-01,5.151008140782901146e-01,5.101272853883470626e-01
5.096575290446967443e-01,4.958576034034650193e-01,4.856788379808310574e-01
5.195496811903462797e-01,5.458501084544805648e-01,4.393606505862064915e-01
4.571813810455239158e-01,4.823842967858272268e-01,5.299186529347860164e-01
4.630306491086553233e-01,4.984780666594686438e-01,4.994921840837047156e-01
5.393701509215863554e-01,5.895347270854095489e-01,5.349994900862895530e-01
5.020425519305026230e-01,4.916296125594132871e-01,5.261302665593446948e-01
5.018376673862283699e-01,5.914092125342087503e-01,5.193469328049233891e-01
4.949447423730187756e-01,4.756265255195881170e-01,5.227780512315909345e-01
5.542997320188085553e-01,5.407398522171201760e-01,5.402988021330065171e-01
5.275514019184146530e-01,6.053328185049026144e-01,5.228170218601443375e-01
5.407058712839724057e-01,4.909694619856444509e-01,4.648650425965970001e-01
4.900475539600384067e-01,5.470191776186140720e-01,4.454711744313928912e-01
5.102477016542782406e-01,5.085698194979537679e-01,4.709916015807485978e-01
4.356778074786257227e-01,5.620975581731438853e-01,5.419958282381840409e-01
