accel_x (m/s^2),accel_y (m/s^2),accel_z (m/s^2)
-9.346403456037810642e-02,-8.816063316986054443e-02,-1.077081103990530409e+01
-9.826419124989181630e-02,-9.389120537305542524e-02,-1.077291115223726159e+01
-8.737163185311572211e-02,-9.951169174926649541e-02,-1.077784053895659078e+01
-1.067842393572043941e-01,-9.841739540059780966e-02,-1.077542117891320217e+01
-9.582880577728307425e-02,-1.022571575737210720e-01,-1.076643560915589148e+01
-9.414784766944712946e-02,-9.180885539944154405e-02,-1.077060470537022496e+01
-9.111184579738203226e-02,-9.160049921419763375e-02,-1.076973481389633847e+01
-9.390925896669670425e-02,-9.771137674441927878e-02,-1.077119521609796138e+01
-1.053888688402445928e-01,-1.000902225308125393e-01,-1.076720468093221506e+01
-9.953102664770922814e-02,-9.567408316369221954e-02,-1.077149853171813376e+01
-9.962838116114108855e-02,-9.845616121851712144e-02,-1.077188040518351997e+01
-9.559708791965518260e-02,-9.206483552786753899e-02,-1.077860896021771531e+01
-1.055321804098684757e-01,-9.263668058115789861e-02,-1.076901774876334450e+01
-1.008383448571967544e-01,-1.109888686290294302e-01,-1.078213903937003870e+01
-9.376068205061591221e-02,-9.909498899508603631e-02,-1.078275161541549743e+01
-9.595191685811479965e-02,-9.699986142025569802e-02,-1.077551432794358455e+01
-8.952816663926675689e-02,-9.258264206208563496e-02,-1.076935924884961793e+01
-1.003590495378605119e-01,-9.977963286870662751e-02,-1.077640806527485573e+01
-1.010473719060135944e-01,-9.454983919173021167e-02,-1.077322961694467729e+01
-1.018809832672082499e-01,-9.738440711673493344e-02,-1.077618805366991062e+01
-1.013990050182697056e-01,-9.940910146045107976e-02,-1.078347455400484023e+01
-9.628806219135641054e-02,-9.464138310761958939e-02,-1.077656478454783517e+01
-9.443667598055369150e-02,-1.020087722236090177e-01,-1.077079369642897078e+01
-1.013140135120852436e-01,-9.295471710900173046e-02,-1.076915665543494072e+01
-1.030475140463698314e-01,-1.046626604049356590e-01,-1.077766056856575716e+01
-9.948973521228854366e-02,-8.617686468251645193e-02,-1.077504638553823924e+01
-9.409013159817529448e-02,-9.437569089151251478e-02,-1.077869274885114415e+01
-9.733251279125018640e-02,-1.020600598035564521e-01,-1.078058222412832556e+01
-1.033741920124038455e-01,-9.492718894745091895e-02,-1.076107607273210753e+01
-9.538100751302898417e-02,-9.571467412340360637e-02,-1.076451876264271590e+01
-8.830494269240443672e-02,-1.001522234498388175e-01,-1.077098469247589563e+01
-1.036803168229513267e-01,-9.948516926640105229e-02,-1.077027606965889639e+01
-9.269093424376172174e-02,-1.073617621554883855e-01,-1.077403453614610740e+01
-9.254551493566748332e-02,-9.642824629390983615e-02,-1.076197894506205976e+01
-1.020406414176723703e-01,-9.514956048350144135e-02,-1.078387791943854346e+01
-1.024954096127885794e-01,-8.888426077197617015e-02,-1.077309108624618439e+01
-9.593300332000147257e-02,-9.245937530587809705e-02,-1.077893307182333871e+01
-1.042959288180719535e-01,-9.548089585577256011e-02,-1.076884832537028736e+01
-9.925417622315099719e-02,-9.910400579257193365e-02,-1.077074995035163063e+01
-9.392919062209123537e-02,-9.229623649229287685e-02,-1.077862244478095732e+01
-1.033318298951650949e-01,-9.543065881228365854e-02,-1.077116830791018387e+01
-9.741979896264693628e-02,-1.063466610118229544e-01,-1.077207166976094399e+01
-9.348421602444849376e-02,-9.513644539560713043e-02,-1.077061745721148611e+01
-9.538764767276179668e-02,-9.690900845755537341e-02,-1.076768631276977217e+01
-1.002864631143738916e-01,-9.612234812833313213e-02,-1.077655937798536101e+01
-9.363204048619742925e-02,-9.486903267997302824e-02,-1.077584931327762519e+01
-9.189321501671451897e-02,-1.026142323622943886e-01,-1.076368177126327730e+01
-9.228946087997483283e-02,-9.327371647844664992e-02,-1.077227701840055119e+01
-9.040269729209961247e-02,-1.023482008106551822e-01,-1.077851479439837057e+01
-8.837472491691940324e-02,-9.908467762329367656e-02,-1.077952370367363955e+01
-9.715557621319127757e-02,-1.021848180601232781e-01,-1.077803265423543344e+01
-9.511692617993972032e-02,-9.895066901610621857e-02,-1.077832872578318124e+01
-9.379488490858772787e-02,-1.060203301729997355e-01,-1.076796573212708275e+01
-9.858192576516149053e-02,-9.645644621832528964e-02,-1.077747409565062675e+01
-9.519534542681477862e-02,-9.822819165793655882e-02,-1.077235232443174695e+01
-1.016626343502556457e-01,-9.846125105229734664e-02,-1.077721489977726499e+01
-9.599110473146638123e-02,-1.064485084358063050e-01,-1.077864652216463348e+01
-9.051562058573871250e-02,-9.012242100752934637e-02,-1.077669032043456987e+01
-9.073394920779068173e-02,-1.057849863760235015e-01,-1.077756056377546123e+01
-9.881554996981294081e-02,-9.472507002000118970e-02,-1.077130476362976630e+01
-9.383744176625059830e-02,-9.055046890382098534e-02,-1.077557457605206892e+01
-9.312717285256377764e-02,-8.471968811565323831e-02,-1.076609196096936039e+01
-1.012744684055702643e-01,-8.584290684541596994e-02,-1.076675918016070987e+01
-9.647512676451594493e-02,-1.046834910801751617e-01,-1.077037120819640670e+01
-9.318871288540900300e-02,-1.039148887437712082e-01,-1.077680729956455252e+01
-9.718262882754184762e-02,-9.208885897592335168e-02,-1.078536395042428708e+01
-1.061741727024713977e-01,-1.016166299518194566e-01,-1.076962493620221473e+01
-9.890564207626982574e-02,-9.916707976513194911e-02,-1.077638598093662203e+01
-9.622985521611854276e-02,-1.028476122146823879e-01,-1.077368706916014673e+01
-1.044703806896220971e-01,-9.938702057978518467e-02,-1.077621024684907880e+01
-9.131048717903787748e-02,-1.017754743914143223e-01,-1.077803018291217896e+01
-1.089810623160184649e-01,-9.493648298534071439e-02,-1.077200968053177377e+01
-9.740264737032827691e-02,-9.164290389446728968e-02,-1.077183269894731232e+01
-9.514095964563087926e-02,-1.051090254296648263e-01,-1.077515424389610210e+01
-1.010996270640203559e-01,-9.823590186495663457e-02,-1.077043356831824994e+01
-9.516026913856362457e-02,-1.011145092168266313e-01,-1.077862854101986123e+01
-9.791598441756860227e-02,-1.035659740262589168e-01,-1.076330846609964453e+01
-9.818728576308585754e-02,-1.032191185515100446e-01,-1.076908672167595959e+01
-1.020314757889137086e-01,-9.492025461265690689e-02,-1.077159063636013236e+01
-1.047082739567665038e-01,-9.592765182577497884e-02,-1.077578682449654934e+01
-9.169522731455073683e-02,-1.065333154653975989e-01,-1.077641797998602335e+01
-1.045348169186870457e-01,-9.931017942494355100e-02,-1.076896475352027593e+01
-1.028330745442082306e-01,-8.711564714499822615e-02,-1.078392550942842831e+01
-9.297475833324943262e-02,-9.621386043403674926e-02,-1.077571135876137198e+01
-9.739293225483025562e-02,-9.119563499467440992e-02,-1.077358547087837515e+01
-8.750708175917297493e-02,-1.013013933342512690e-01,-1.077697071894163727e+01
-9.608939301351455964e-02,-9.833130878246527928e-02,-1.078062464810373378e+01
-9.891841337724521788e-02,-9.633921911195186816e-02,-1.077145867763607612e+01
-9.488884317160763138e-02,-1.013008125172851909e-01,-1.077790873222214785e+01
-9.419953214487106208e-02,-9.136105908894466554e-02,-1.077442998170647392e+01
-1.050501812162778908e-01,-9.224995326991308753e-02,-1.076247949254146619e+01
-8.908920140431814128e-02,-9.699327749803872412e-02,-1.077581976445322098e+01
-9.346789182196862944e-02,-9.593085943189989806e-02,-1.076999080445096091e+01
-9.901550281348034388e-02,-9.580775022756597703e-02,-1.076684695917382761e+01
-8.954916904734065708e-02,-1.028499447076958589e-01,-1.076761667107296638e+01
-9.313598040009452017e-02,-9.138713478134144474e-02,-1.077028720446963739e+01
-9.910561032641571066e-02,-1.015189023228936505e-01,-1.076875163919204148e+01
-9.972976276639140825e-02,-9.492779417385147078e-02,-1.077912226053317468e+01
-9.265403534872722335e-02,-9.561973309064475401e-02,-1.076949747782369826e+01
-9.451275526758470824e-02,-9.373256824753910255e-02,-1.077339044334500429e+01
-9.004231513566907097e-02,-9.221802140037592410e-02,-1.078164581568111480e+01
-1.023778834258190912e-01,-1.013499607683160386e-01,-1.078080994324137265e+01
-9.803427790612015413e-02,-9.102173382129830070e-02,-1.076282643809726380e+01
-1.086275084294582860e-01,-9.674128391312594721e-02,-1.076368624830641174e+01
-8.784859954807341942e-02,-9.784273887870167941e-02,-1.078035014323385177e+01
-8.337429287583147941e-02,-9.748931372570307508e-02,-1.077021146350024239e+01
-1.045689914036471990e-01,-9.810151182514292856e-02,-1.076802703332385214e+01
-1.009481893366529492e-01,-9.947657740141806204e-02,-1.077345654766901539e+01
-9.200428221098175263e-02,-9.430535081203139658e-02,-1.077388540275588369e+01
-9.407907168851045721e-02,-9.172245857918696899e-02,-1.077996793165134015e+01
-9.594288477041865160e-02,-9.457375280798765993e-02,-1.077043166077581304e+01
-9.480311131563005922e-02,-9.224777881001701429e-02,-1.077552592118324704e+01
-9.994703495988491171e-02,-9.063102751635310206e-02,-1.076886903865948142e+01
-9.623153748832945220e-02,-9.180276410947861565e-02,-1.076388011927161337e+01
-9.493636104556481270e-02,-1.029766620816470052e-01,-1.077381066784683661e+01
-9.879485560070148942e-02,-9.873991914084159771e-02,-1.077480956993278127e+01
-9.092727398754214818e-02,-9.795513396645637305e-02,-1.076968485347462057e+01
-1.004739467058755886e-01,-1.006816301658977064e-01,-1.078008826974748224e+01
-9.808497881145322728e-02,-9.478824866117090131e-02,-1.076173145111953389e+01
-9.433483703898740136e-02,-8.953267741095176369e-02,-1.077555918317958117e+01
-1.059531922628386275e-01,-9.542700919941016213e-02,-1.077945018796184762e+01
-9.315384936262960380e-02,-8.968110822459827991e-02,-1.076974489962435122e+01
-9.728645387919758469e-02,-9.139871564189874786e-02,-1.077358530316610086e+01
-9.045509387784814170e-02,-1.069575713195053124e-01,-1.076971444959010604e+01
-8.611979392307550496e-02,-9.692030405723442432e-02,-1.077709187078457376e+01
-8.936285352881813415e-02,-9.023742154529462711e-02,-1.076804593831096746e+01
-9.876420365936591783e-02,-9.475412369236251020e-02,-1.077391397995485356e+01
-9.876592167299408365e-02,-9.413207309720524052e-02,-1.077720616229176365e+01
-9.878776248555140582e-02,-1.025178299536651794e-01,-1.077012071408855221e+01
-9.497098684141101754e-02,-9.712976027117821431e-02,-1.077709161658768444e+01
-9.930813289768827823e-02,-9.766832713653202103e-02,-1.076725801848785835e+01
-1.034539434941731118e-01,-1.014152142559108655e-01,-1.078257793604860382e+01
-9.180692729529661700e-02,-9.994877247171646273e-02,-1.077903567435060594e+01
-1.046751650127171474e-01,-9.917706422619901319e-02,-1.077135835644267914e+01
-9.330179512865841018e-02,-1.033880749309467606e-01,-1.076794094588039208e+01
-1.033650427593764409e-01,-9.526876555202704044e-02,-1.077645726578062479e+01
-9.471636201282947198e-02,-1.009767908768594291e-01,-1.077840266467238450e+01
-9.694409569508993796e-02,-9.630558938872747776e-02,-1.077717160572073141e+01
-9.240779384792720264e-02,-8.942987564311839777e-02,-1.078056614779966971e+01
-9.851983155478054310e-02,-9.882431267823631182e-02,-1.077082449379600071e+01
-9.420166252607689583e-02,-9.381332911381408401e-02,-1.076185355909996844e+01
-9.913186968269732668e-02,-9.235501712355322079e-02,-1.076829901056894734e+01
-9.577297872559407954e-02,-1.132361812992541683e-01,-1.077594335557171412e+01
-9.241369607063476543e-02,-9.077122107730041523e-02,-1.076490936060384662e+01
-9.027751389855473430e-02,-9.955755803998755926e-02,-1.078103696806073231e+01
-9.032814109553721771e-02,-9.745154887690388179e-02,-1.077356994051854322e+01
-9.154960566973593949e-02,-9.501956620330864745e-02,-1.076486322709482657e+01
-9.401703366173057297e-02,-9.306968549002662960e-02,-1.077974175265110901e+01
-1.008553836301297607e-01,-9.507935483665769238e-02,-1.077599943588669618e+01
-9.788804741822676458e-02,-9.551036472446802761e-02,-1.077273160938915098e+01
-9.477299570661726347e-02,-1.030126586458130489e-01,-1.078373636526494117e+01
-9.983675640823932995e-02,-9.238216814053187842e-02,-1.078323295024004302e+01
-9.140543281665175490e-02,-9.251711538237310239e-02,-1.076343487258115239e+01
-9.467611065693919137e-02,-8.938911427111081998e-02,-1.077588367907588562e+01
-9.700069448471149158e-02,-9.382252014816160057e-02,-1.077248988478044822e+01
-9.741044873371025592e-02,-9.142695183084223465e-02,-1.076863662974285241e+01
-1.042695671502458232e-01,-9.219235566605374355e-02,-1.076978087302794052e+01
-1.005635868528510363e-01,-1.026054006951118425e-01,-1.077616976620011080e+01
-9.304712032926884535e-02,-1.008533918531015483e-01,-1.077059124254380862e+01
-9.741586971198755440e-02,-1.017681707495528137e-01,-1.078149489581957354e+01
-1.006961924115674506e-01,-9.461477004134016822e-02,-1.076993992006233292e+01
-9.446321203151387957e-02,-1.057918144649667297e-01,-1.077525173038086237e+01
-1.060230102795250429e-01,-9.504759384782436593e-02,-1.078212697963543754e+01
-9.670997419119212180e-02,-1.040494915876396531e-01,-1.076946161181605710e+01
-1.037166239116187327e-01,-9.711206342966727245e-02,-1.077227580796722961e+01
-9.246886046156671535e-02,-9.453707490806285973e-02,-1.077215303794614165e+01
-1.000570702481954483e-01,-9.876371051867567641e-02,-1.077072278263712946e+01
-9.880052277975712172e-02,-9.308315836870745263e-02,-1.077313394196448471e+01
-9.810380128561038693e-02,-1.014389833251686940e-01,-1.077896170519117192e+01
-1.019947568701431578e-01,-1.066407367773735404e-01,-1.078056261932394122e+01
-9.914736764234491351e-02,-9.628612271906641928e-02,-1.077850665758445281e+01
-1.022905325749693811e-01,-9.001301266101252585e-02,-1.077614619475461666e+01
-8.825776591411596539e-02,-9.526811197436428624e-02,-1.077496635714773987e+01
-9.653256188188322207e-02,-1.036784052181716348e-01,-1.077392146016099161e+01
-9.500683486032321379e-02,-1.013065364272317803e-01,-1.078103936927492335e+01
-9.972007454355402700e-02,-1.038471854051460502e-01,-1.077893574037167035e+01
-9.281596648116327564e-02,-9.423510068783806648e-02,-1.077098068966504840e+01
-1.035002193518765740e-01,-9.239303266859605346e-02,-1.077041442430074625e+01
-1.011339029122846206e-01,-9.505962917743752960e-02,-1.078410598376639484e+01
-9.818752251322832025e-02,-9.808326248322175867e-02,-1.077517302782192665e+01
-1.010048465806871743e-01,-9.315280928211665257e-02,-1.077547568620405549e+01
-1.022429756145773611e-01,-8.761424610429668913e-02,-1.076766790785491246e+01
-8.943174030279224529e-02,-9.532067076830791352e-02,-1.077765617508138440e+01
-9.805635601113632527e-02,-1.006986188719236480e-01,-1.077298559371978293e+01
-9.890234410889515992e-02,-9.276771393069882521e-02,-1.077429949322554492e+01
-9.177506641046614955e-02,-9.181656219950498632e-02,-1.077368430398750654e+01
-9.457813472431836344e-02,-1.045676340505102969e-01,-1.077895643177383889e+01
-1.104304149065635648e-01,-8.338483436319321651e-02,-1.078039537542613502e+01
-9.655618670583694663e-02,-9.638179194585295984e-02,-1.077594761816206237e+01
-9.492865548426526745e-02,-9.583722731336527523e-02,-1.078296208752759355e+01
-9.759620209161193327e-02,-8.649441020043797945e-02,-1.077206749035412336e+01
-9.192085006599559627e-02,-1.061737225496426490e-01,-1.077690342474704011e+01
-9.955763884547286224e-02,-1.004925127831289844e-01,-1.077356141796100708e+01
-9.680644865394724685e-02,-1.029583995150159526e-01,-1.077285501519344812e+01
-9.334246943053892132e-02,-9.132037796407532770e-02,-1.077286221517929121e+01
-9.532683060518439000e-02,-1.064306596040940633e-01,-1.077077471984003942e+01
-8.951857733130259842e-02,-9.578948276069060297e-02,-1.077453833275580841e+01
-1.027519644096340917e-01,-9.979561983259171987e-02,-1.076673347116297208e+01
-9.605697621822950616e-02,-1.000142471190917787e-01,-1.076839303917280688e+01
-9.786107830555583476e-02,-9.633310619879921488e-02,-1.077661100226896984e+01
-9.846823898741527414e-02,-8.661518842178145272e-02,-1.077309024123896819e+01
-1.079281477314857629e-01,-9.707767464924173251e-02,-1.077051566742108690e+01
-9.813140253857013939e-02,-9.461755997622471603e-02,-1.077322965597898197e+01
-1.016475845395052174e-01,-9.963644913189025065e-02,-1.076866207593935343e+01
-9.961158453615466535e-02,-9.702192894626888997e-02,-1.077161997689044526e+01
-9.578158253167137759e-02,-9.854836344373400780e-02,-1.077040610823589617e+01
-9.393575099988978050e-02,-9.616524826200331666e-02,-1.077549878243346626e+01
-1.027076346530059470e-01,-9.775642010782178981e-02,-1.077721525520279755e+01
-1.016959188324749602e-01,-9.849797049248996961e-02,-1.077953685775727877e+01
-9.852800828408454781e-02,-9.174831245103773347e-02,-1.077540816208904673e+01
-9.560505408125909155e-02,-9.874769582926432032e-02,-1.076863708546752996e+01
-9.336855106850393271e-02,-9.918419225840323372e-02,-1.076768713933053334e+01
-1.092211823969082701e-01,-1.074599143299067167e-01,-1.076890342900318309e+01
-9.519428242687157093e-02,-1.097221639749934585e-01,-1.077175799631670472e+01
-9.349865479240003496e-02,-8.635002472375359617e-02,-1.077922122479116496e+01
-1.024444116777178532e-01,-9.183305616434225827e-02,-1.078492679030204648e+01
-1.002984852020949447e-01,-8.992618469834494366e-02,-1.076913115903853146e+01
-9.960432435591019817e-02,-9.246220364961299509e-02,-1.077026980372663800e+01
-9.311995230013229985e-02,-1.043814243142097975e-01,-1.077741037820246106e+01
-9.656751581361928960e-02,-9.673243482395690873e-02,-1.076658054875701431e+01
-1.002831365005468350e-01,-1.071001208147577127e-01,-1.078276167834448174e+01
-1.000294252934837286e-01,-9.821175256492101213e-02,-1.077464456862283626e+01
-9.526132040606981322e-02,-1.020912359334881503e-01,-1.078271087865777922e+01
-9.837943336634186187e-02,-9.447694290090929981e-02,-1.078437269366070694e+01
-9.901807008653490394e-02,-1.024833624908862845e-01,-1.076827485331671674e+01
-9.298281157900697980e-02,-9.288919612405971415e-02,-1.077855493253638919e+01
-1.040560455900211706e-01,-9.937435004382513815e-02,-1.077249389756693354e+01
-9.700938944494827409e-02,-9.154876715171038348e-02,-1.076726297067254734e+01
-1.022380159586536857e-01,-1.008776463312275884e-01,-1.077222852077250081e+01
-9.454008107953197626e-02,-9.565121861695387306e-02,-1.077767068667554717e+01
-1.047670229081639065e-01,-9.124067421700687852e-02,-1.077563789747079426e+01
-9.441520341062673016e-02,-8.730966479527998980e-02,-1.077513891926261280e+01
-1.000301872303025197e-01,-1.039016650672873049e-01,-1.077345036759935759e+01
-9.886680220225389781e-02,-9.343135770975014021e-02,-1.077916842571534239e+01
-9.568417765575745748e-02,-9.681743245709704959e-02,-1.077223061390820824e+01
-9.912668399028627675e-02,-1.068393981029874262e-01,-1.076866764964158740e+01
-1.009174958642679032e-01,-9.108791434494108163e-02,-1.076778020864301766e+01
-1.038474327946737885e-01,-9.614228552023254548e-02,-1.077041543008046354e+01
-9.188523797552609895e-02,-9.697128130390292311e-02,-1.077837585334252957e+01
-1.035326687612003332e-01,-8.766892096752271213e-02,-1.076981176828112829e+01
-9.464877280009231786e-02,-9.368081811898434919e-02,-1.076869528365354078e+01
-9.279607506565033803e-02,-9.855267608808733482e-02,-1.077811937873514836e+01
-8.962293182303171513e-02,-9.390083047536743055e-02,-1.077375060287127795e+01
-9.444896582276798847e-02,-9.678486568868682749e-02,-1.077465858053425407e+01
-9.911224949760120972e-02,-9.307708936900682684e-02,-1.077567358920673257e+01
-9.555922749136444572e-02,-1.015875899497158258e-01,-1.077456557735783527e+01
-9.892009083630971811e-02,-9.245830458392122198e-02,-1.078164797551415077e+01
-9.923937918151636006e-02,-9.775768021043020062e-02,-1.077086425670669811e+01
-9.503933899482192027e-02,-1.016783703389809168e-01,-1.077275137965322926e+01
-1.015355062058339031e-01,-9.361268960335082656e-02,-1.077875432856031068e+01
-9.939683724962049272e-02,-9.512316225500018485e-02,-1.077201442058032299e+01
-9.059296854186552062e-02,-9.706010377236515274e-02,-1.077364614234103790e+01
-9.510625523480580046e-02,-9.945452191813562715e-02,-1.077622629896630535e+01
-1.024604575308644405e-01,-9.901594932075767630e-02,-1.077007599214452860e+01
-9.883182726981025457e-02,-9.262617416169370566e-02,-1.077566882020895811e+01
-1.033298043139522365e-01,-9.676579098603760309e-02,-1.078070584396139076e+01
-9.402244320553300450e-02,-1.057163804133711971e-01,-1.077777833583199296e+01
-9.924048516048766810e-02,-1.001166693583173117e-01,-1.077586964436404848e+01
-1.041209470314811286e-01,-9.765023162985897454e-02,-1.077433183527655736e+01
-9.336227491364125497e-02,-9.170527048041705875e-02,-1.078220694081844577e+01
-1.031933196809066422e-01,-8.819591949190860869e-02,-1.077782845305743464e+01
-1.051853514714809479e-01,-9.517214063734627527e-02,-1.078197581503915004e+01
-9.021929894423824647e-02,-1.021952841493615483e-01,-1.076900385111154357e+01
-9.695401327175295902e-02,-9.761116082601017929e-02,-1.077618062111511499e+01
-1.002928897183569257e-01,-9.276718468002213835e-02,-1.078151002995432783e+01
-9.357836359666749093e-02,-9.802612391573722883e-02,-1.077615774396316795e+01
-1.044646035930917455e-01,-1.017337954733480432e-01,-1.076527982149577056e+01
-9.436538447567266452e-02,-9.509279575238198390e-02,-1.076630933032448922e+01
-9.709260304551886600e-02,-9.586940775464239395e-02,-1.077572048810965022e+01
-9.736195684031143105e-02,-1.029869624702116904e-01,-1.077264582976876994e+01
-8.824005239275388435e-02,-9.477927390930822316e-02,-1.077855631424867333e+01
-9.328598369009342972e-02,-1.026766715518099837e-01,-1.076770102988607114e+01
-1.000086257625837222e-01,-9.858920330730817916e-02,-1.077610157461015206e+01
-1.015336183730787822e-01,-1.050929886052202472e-01,-1.077951689198072849e+01
-1.028530234641663876e-01,-9.404911912724776835e-02,-1.077495717550951326e+01
-9.612265606129305473e-02,-9.809600038805890709e-02,-1.077390666349405102e+01
-1.015501111239151544e-01,-9.759077209514598061e-02,-1.077265206406080722e+01
-9.186629877975220626e-02,-9.336498431058522229e-02,-1.077808798364802456e+01
-9.965761836139824803e-02,-1.033977822496208732e-01,-1.076568856779499050e+01
-1.159502064956502709e-01,-1.028905280324336480e-01,-1.077033230709549194e+01
-9.860043501777136787e-02,-9.758286940729712922e-02,-1.076854961703945257e+01
-9.599620555661600441e-02,-9.382383932476739963e-02,-1.077580569733021321e+01
-9.539587917576070053e-02,-9.126725644728815590e-02,-1.077178776067452226e+01
-9.743134333532707525e-02,-9.928193040121144342e-02,-1.076707830631594476e+01
-1.077732229445807488e-01,-1.065824843623585788e-01,-1.077089425086681551e+01
-1.031306910706328295e-01,-9.489268598210930106e-02,-1.077505084825859605e+01
-9.806549403054902470e-02,-1.014051282188331571e-01,-1.076878261426070083e+01
-9.602492427393241603e-02,-1.014880698720905944e-01,-1.076758710950751130e+01
-9.190709697284175916e-02,-9.405724479581428765e-02,-1.077472365999829940e+01
-9.838321782412717820e-02,-1.010163650023986753e-01,-1.077902531366916961e+01
-1.046244152119341908e-01,-9.228610928796421309e-02,-1.077495778417660866e+01
-1.026948886723618726e-01,-1.099599007977049570e-01,-1.076354365792519552e+01
-1.011137048230896368e-01,-9.597666843597245367e-02,-1.078498799992970092e+01
-8.642102914557175941e-02,-9.677223586973517089e-02,-1.077436116866384097e+01
-1.002187478542553439e-01,-1.006805431608593648e-01,-1.077208681292409409e+01
-9.843174705081590703e-02,-1.045722248834359408e-01,-1.077636198704744963e+01
-1.003942491550009891e-01,-9.654087143727270448e-02,-1.078042539306204972e+01
-9.025897474429307732e-02,-9.109076969825317949e-02,-1.077692607253741919e+01
-9.404129541926438407e-02,-9.293778278268577386e-02,-1.077356257768174785e+01
-9.261783197054802852e-02,-1.016637621633440514e-01,-1.076703179318188042e+01
-9.340147367867020212e-02,-1.043011880308113287e-01,-1.077400404299253367e+01
-9.907696704277153821e-02,-1.058545990577529489e-01,-1.077308849160815463e+01
-1.018785024777632137e-01,-1.023899010694518663e-01,-1.077117710991637978e+01
-9.821890649712056165e-02,-9.618268511895737560e-02,-1.077570886989324350e+01
-9.367334802074128719e-02,-9.616116555141364375e-02,-1.077892772993252279e+01
-1.059336911657404456e-01,-9.404018211368522784e-02,-1.078142258935784348e+01
-1.052463666914285889e-01,-9.534163438631609866e-02,-1.076971315454456501e+01
-1.079221195886825163e-01,-9.796726297864374877e-02,-1.077085702579363513e+01
-8.946600031081965165e-02,-1.053419715948215318e-01,-1.076575180920739072e+01
-9.303789623513480933e-02,-9.863993203098157803e-02,-1.077175607392836909e+01
-9.227647212041832636e-02,-9.534885014228755562e-02,-1.076024093857599340e+01
-9.080461507631530649e-02,-9.664400219055113705e-02,-1.078397514294057125e+01
-1.090358695482340073e-01,-9.722180790172658960e-02,-1.077941368728921923e+01
-1.065606865895635941e-01,-1.025010732297300803e-01,-1.077451098212139513e+01
-9.992592262275500070e-02,-9.764829165910390851e-02,-1.077334950886838350e+01
-9.939161723613602895e-02,-9.697268660442776023e-02,-1.077949572386267363e+01
-9.993506473242379229e-02,-9.482300230567562715e-02,-1.078088859118983756e+01
-9.966209902018093036e-02,-9.060770926234855416e-02,-1.076557098874031659e+01
-1.031475039824969742e-01,-1.015292848758242300e-01,-1.077761626688783103e+01
-9.103077779119117530e-02,-9.827156920727629641e-02,-1.077328237005532863e+01
-1.009547160482130446e-01,-9.766870516292096294e-02,-1.077626568016664166e+01
-9.826566841637558725e-02,-8.855835374578814589e-02,-1.077677919820830432e+01
-9.998282325780023794e-02,-9.122736069539202908e-02,-1.076981037635756167e+01
-9.466792228394960151e-02,-9.728399644269740409e-02,-1.077898869273298033e+01
-9.957587877474451121e-02,-9.873735218020246451e-02,-1.077067121171572772e+01
-9.774343347877660626e-02,-9.268105828644218613e-02,-1.077296920841279793e+01
-9.478920677485251634e-02,-9.882134083940791180e-02,-1.076766714863453167e+01
-9.510127175305593816e-02,-9.493975160240376854e-02,-1.076980275525892061e+01
-9.706667122619502819e-02,-9.078034404741605612e-02,-1.076997474935823185e+01
-9.157117509201996575e-02,-9.949081572132349727e-02,-1.077012965568704317e+01
-8.731972068278477661e-02,-9.172658207451728218e-02,-1.076932067066659293e+01
-9.520378651738335696e-02,-9.892873801083162943e-02,-1.077813904558179026e+01
-9.717705634703661943e-02,-9.698395342202094371e-02,-1.077319947893825081e+01
-9.490446350927773944e-02,-9.372125647724814657e-02,-1.077622786612250394e+01
-1.081561708497095764e-01,-9.675225477707811994e-02,-1.077763074590914272e+01
-1.005025926212675669e-01,-9.407826594031158673e-02,-1.077384632784580276e+01
-1.014445448958582047e-01,-1.051924141409994046e-01,-1.077419150146548610e+01
-1.035394298591122142e-01,-9.892938671429594988e-02,-1.077171852136249264e+01
-1.014127301922417707e-01,-9.431560595073200381e-02,-1.077113073838504143e+01
-9.978724442365213831e-02,-1.011001433337347932e-01,-1.076505758253117229e+01
-1.047086355342529695e-01,-1.027724803786108504e-01,-1.077006547079368737e+01
-1.013399565051505552e-01,-9.651392512638190535e-02,-1.077585349849935525e+01
-9.736060793012712988e-02,-1.003930032997061433e-01,-1.078206744911680204e+01
-9.399087102334562072e-02,-1.008421896966953252e-01,-1.077861968271828630e+01
-9.710981753571489017e-02,-9.004856503373429022e-02,-1.078019820837392651e+01
-8.940029315276727673e-02,-9.667108452853881428e-02,-1.077109643982529619e+01
-9.963500989994901469e-02,-9.620801954095989372e-02,-1.077495861819389056e+01
-9.685166718677923337e-02,-1.037363081693260525e-01,-1.077914252501226144e+01
-1.005945903164335853e-01,-9.336020143750833888e-02,-1.076676528593797322e+01
-9.888117792404238493e-02,-9.820272972265373101e-02,-1.077114858780753259e+01
-9.938755294578120736e-02,-9.529272084807487164e-02,-1.077301254611013093e+01
-1.056503556038448227e-01,-9.075988618380503858e-02,-1.076986067432267546e+01
-9.367408961694419223e-02,-9.535150681650483850e-02,-1.077166952980118886e+01
-9.182968085015370818e-02,-9.796782847720782172e-02,-1.078231363474447591e+01
-9.380484166614681818e-02,-9.338579983482381275e-02,-1.077523566309024439e+01
-9.248163456026622931e-02,-1.016036984734533521e-01,-1.076148953177051837e+01
-9.834804081656202401e-02,-1.005988502077822255e-01,-1.076701882926921350e+01
-8.986479186699602995e-02,-1.004193439527570619e-01,-1.076908185551599750e+01
-9.722209607697905598e-02,-9.302933789422564159e-02,-1.077280024628552901e+01
-9.704584978816951923e-02,-1.026819588118323551e-01,-1.077118558977160312e+01
-9.995590270217880047e-02,-1.006299114395385191e-01,-1.077991658807675535e+01
-9.479180946301825339e-02,-9.760269165000738656e-02,-1.077281064085445195e+01
-1.014954240627442411e-01,-1.009009660162997896e-01,-1.078038381917041377e+01
-9.789403706558821860e-02,-8.745248323818728686e-02,-1.077778087627846659e+01
-9.447982106196742280e-02,-1.075987407655326356e-01,-1.076934791744890951e+01
-9.539124271163609836e-02,-9.754935204404989457e-02,-1.077437489350279698e+01
-1.009419211207837341e-01,-8.989695460900738733e-02,-1.077610476335407874e+01
-9.154862613749230327e-02,-1.025948199592563170e-01,-1.077310967714338297e+01
-9.612119895282060511e-02,-9.341068438126229334e-02,-1.077722573067571155e+01
-9.491712583042745399e-02,-9.822933594766193599e-02,-1.076683799838248490e+01
-1.025867692180159607e-01,-9.785575747928001999e-02,-1.077531339455975790e+01
-1.048580585460028164e-01,-9.155176600719693025e-02,-1.078144884702747319e+01
-9.615145032411709369e-02,-9.884526405265534055e-02,-1.077231047507651951e+01
-9.171196390352147343e-02,-9.470541117060139735e-02,-1.077615226106409807e+01
-8.578117458054390632e-02,-9.329190386023269999e-02,-1.076696274873539849e+01
-1.065252370448700053e-01,-9.533723432152101107e-02,-1.077143212491249535e+01
-9.995538730141879935e-02,-9.374306311465256669e-02,-1.077426516090984165e+01
-1.057864745148782981e-01,-9.552133447813630773e-02,-1.077804523796623037e+01
-9.987558576418364975e-02,-9.869271488011208127e-02,-1.077146290651616489e+01
-1.016549031773373163e-01,-1.000192714276126743e-01,-1.077730575429745663e+01
-9.830709160109055156e-02,-1.047767104332122251e-01,-1.077986255450298003e+01
-9.686841412815266894e-02,-9.789175345449221965e-02,-1.077457243540536247e+01
-9.819884690147397122e-02,-9.147021105929130369e-02,-1.078560306999311891e+01
-1.029894972830800864e-01,-1.003378720675605906e-01,-1.076856924567669083e+01
-1.001191802404164666e-01,-9.736973017655005391e-02,-1.077706740602630653e+01
-9.557626903232092908e-02,-8.868459430740253946e-02,-1.077155287144380402e+01
-1.027894750646935890e-01,-9.020865570126504474e-02,-1.076647603938909192e+01
-9.439371298418354483e-02,-9.998643339987765832e-02,-1.076946625230963051e+01
-9.826526669271726244e-02,-9.706566137616060019e-02,-1.077406195965159164e+01
-9.843824101859033338e-02,-1.019967084180444100e-01,-1.077968986603890400e+01
-8.562070318256617685e-02,-8.601773599935778891e-02,-1.077949784794122223e+01
-9.733965430383657857e-02,-9.529271592286657488e-02,-1.077499665905010495e+01
-9.150424026430924174e-02,-9.475759190159727119e-02,-1.077880004612878651e+01
-1.044718966273136679e-01,-9.909161915869015014e-02,-1.077191873930234500e+01
-8.827576872710687916e-02,-9.469370991139788862e-02,-1.077246883813462475e+01
-9.864678211219027326e-02,-9.965572106744932657e-02,-1.076868670276200213e+01
-9.558220019239163645e-02,-9.928327266374588345e-02,-1.078280911334685044e+01
-1.028442301183872254e-01,-8.779438399338104770e-02,-1.077298727286776625e+01
-9.647285641840352977e-02,-9.600386690935759637e-02,-1.077330678686449161e+01
-9.596918051664236893e-02,-9.993634212779463344e-02,-1.077415832138197160e+01
-1.002525669005527725e-01,-9.645710518364424002e-02,-1.076796433118700769e+01
-1.003902498371808116e-01,-9.985284020991060105e-02,-1.077735978144422901e+01
-9.742392466171402587e-02,-1.071632518223369079e-01,-1.077634459685866197e+01
-1.075382289952734605e-01,-9.604722548788557912e-02,-1.077568108774102562e+01
-1.042447576889886790e-01,-9.440207634241558343e-02,-1.077114863649135401e+01
-9.369172075764548024e-02,-9.561289947611399664e-02,-1.077487863992674377e+01
-1.012422376690516879e-01,-9.840551669023750447e-02,-1.077361088058427008e+01
-1.004764154562495931e-01,-1.018706668980589314e-01,-1.078079082219792006e+01
-9.654201732458014829e-02,-1.065146068739864504e-01,-1.077649379136073549e+01
-9.366412294255846427e-02,-9.676704104568083220e-02,-1.077075448932027157e+01
-9.843770186449364579e-02,-1.039455125110950867e-01,-1.076727876605964518e+01
-9.896362748358257522e-02,-9.897521928376207256e-02,-1.077764195242144041e+01
-9.904246247060470576e-02,-1.005462105534400546e-01,-1.076835419542524264e+01
-9.013823007392228470e-02,-9.512804867020600852e-02,-1.077080408620986773e+01
-9.827517818602435340e-02,-9.923456365314124727e-02,-1.076828280938788041e+01
-8.868340797434190459e-02,-9.786448792233094773e-02,-1.077395911218659563e+01
-1.016823373859270102e-01,-1.007401314935208181e-01,-1.077473438009631934e+01
-9.733710514751324483e-02,-1.047962038324878192e-01,-1.077672209829347949e+01
-1.080401326622378450e-01,-9.618665622508902613e-02,-1.077325345120308775e+01
-1.004265345874652549e-01,-8.928821697162105109e-02,-1.077941420095424796e+01
-9.198231498003109352e-02,-1.074264247888036400e-01,-1.078169624686376693e+01
-9.574080180265291673e-02,-1.045795976746037026e-01,-1.077794424145335483e+01
-9.617951107877090178e-02,-9.729456752283459353e-02,-1.078091901937391839e+01
-9.556027868043182050e-02,-8.762377379959322699e-02,-1.077065890329713937e+01
-9.308997213561265305e-02,-9.705231491076410366e-02,-1.076736114450085680e+01
-1.026852160617609949e-01,-1.019047606026054487e-01,-1.077441421243553954e+01
-9.760784272893942293e-02,-1.045124418396468496e-01,-1.077259610084078822e+01
-1.003867336421695317e-01,-9.354946474286444935e-02,-1.077058102132307482e+01
-9.026545989970349848e-02,-9.755129704245033007e-02,-1.077780367773677916e+01
-1.067752037087908584e-01,-8.953877098778971477e-02,-1.078398549647704741e+01
-9.474899761400432108e-02,-1.005263920408015210e-01,-1.077341895816496908e+01
-1.020893289922389507e-01,-9.960828862920738380e-02,-1.076910960497016845e+01
-9.674892397600136362e-02,-9.795631139888162642e-02,-1.077915770124002570e+01
-1.002720913043916862e-01,-9.252791520127702507e-02,-1.077459195997908736e+01
-1.029263811829417147e-01,-9.610215779494631072e-02,-1.077183551479117796e+01
-1.017974856763666086e-01,-9.008342616364871380e-02,-1.077459525811634045e+01
-1.022816814552268416e-01,-8.718568883848294704e-02,-1.077329590567519801e+01
-9.410424817505094741e-02,-1.011996835507981696e-01,-1.077018214217044445e+01
-1.080461285507620939e-01,-1.006697503465236038e-01,-1.076596312312369186e+01
-9.078139977689470008e-02,-1.005512165991045426e-01,-1.077254224055240250e+01
-1.000149837022246690e-01,-9.914193176905096438e-02,-1.077081677023155315e+01
-9.118070037227099522e-02,-9.139550633655660339e-02,-1.077086767266597711e+01
-1.054776283372949042e-01,-9.442151081286495606e-02,-1.076747508277531296e+01
-9.787267829229009952e-02,-9.870305038731159997e-02,-1.077706602667381119e+01
-1.021791459049217338e-01,-1.000127136378334003e-01,-1.078079101204026813e+01
-1.020774872341336792e-01,-9.974191559261180728e-02,-1.078011522794461996e+01
-9.483790174647223348e-02,-1.017594676320103114e-01,-1.077654344571168643e+01
-1.048418407990258649e-01,-9.298325899878044642e-02,-1.076646968652893932e+01
-9.920815994677488481e-02,-9.595604718814533529e-02,-1.077649975677003802e+01
-1.040871440887668753e-01,-1.020572960612691621e-01,-1.076347586174464332e+01
-9.260978639828698622e-02,-9.651937691672701769e-02,-1.077130390791980830e+01
-8.508737791614860713e-02,-9.429141832247361910e-02,-1.077348028725706541e+01
-9.081331119732818924e-02,-8.921145198852553637e-02,-1.076878639307316732e+01
-1.084840700596203661e-01,-9.523541215553027461e-02,-1.077044700261262022e+01
-9.356927625915328894e-02,-1.087467305218133146e-01,-1.077146278138453361e+01
-1.050037064576191531e-01,-8.969920738206620114e-02,-1.078141825099093687e+01
-9.681259359382665686e-02,-9.088047770169349615e-02,-1.078343353674666716e+01
-8.944387279611633323e-02,-9.693539503377691935e-02,-1.077558134464875472e+01
-9.679823242008055162e-02,-9.969703549998595871e-02,-1.077740789739344685e+01
-9.947265911176107755e-02,-9.487153363372505255e-02,-1.077158062215586654e+01
-9.907514440891687646e-02,-9.810031598151500165e-02,-1.076873318228309095e+01
-9.622311019402747523e-02,-9.383131087044774277e-02,-1.077492879133544434e+01
-9.790962921965337684e-02,-9.498339335930526539e-02,-1.077824729824242844e+01
-9.086236799609635761e-02,-9.856025738940994707e-02,-1.078219784731963671e+01
-9.151770100798251040e-02,-9.780868935650190166e-02,-1.077921858750364770e+01
-9.780086971268756035e-02,-9.893856176564097549e-02,-1.077015052856250499e+01
-9.471912851456910920e-02,-1.044344676237920350e-01,-1.077474066722191992e+01
-9.124433210029356256e-02,-9.307098701466698376e-02,-1.077784022093451277e+01
-9.893798334887550505e-02,-8.748428173784084105e-02,-1.077104972576511166e+01
-1.047753124407799913e-01,-9.440399875962227072e-02,-1.076769108385877516e+01
-9.882128954240899932e-02,-9.532607595312772575e-02,-1.077275288552439392e+01
-1.046933498959902592e-01,-1.040019373513267203e-01,-1.076883951069050305e+01
-9.764755291891924482e-02,-9.147939703753461826e-02,-1.077811074820865755e+01
-9.618396604449384879e-02,-9.903871849996806476e-02,-1.076554383684356075e+01
-1.059119048580644817e-01,-1.001334138159723636e-01,-1.077901075009135923e+01
-1.063915459096727023e-01,-9.752811325538282561e-02,-1.077143153394899855e+01
-9.629969727425582993e-02,-9.188907434802401353e-02,-1.078065879229786006e+01
-9.268857036432746888e-02,-9.059491184856936774e-02,-1.076870826306079465e+01
-9.646402351679088383e-02,-1.063545927897792398e-01,-1.077993331704600344e+01
-1.036809068281110552e-01,-9.258666052872956131e-02,-1.077299733472166032e+01
-9.692581878996958666e-02,-9.742187961053110079e-02,-1.076683555917731994e+01
-8.998228496658731979e-02,-9.437131354462188759e-02,-1.077231953222155880e+01
-9.244314174709410137e-02,-9.219005395208204612e-02,-1.078297734269691510e+01
-9.788513761251300960e-02,-9.333998061361378773e-02,-1.076684274247263851e+01
-9.166240563335779912e-02,-9.845606613827194431e-02,-1.077385667441620853e+01
-9.859733519957036840e-02,-1.005570184171285381e-01,-1.077029661489468282e+01
-9.682282606319345120e-02,-1.016614753713015462e-01,-1.077264152192293878e+01
-9.168733295949324513e-02,-1.044291361557971726e-01,-1.077748244048760462e+01
-1.000769903267007405e-01,-9.638862079846331754e-02,-1.077703188024043612e+01
-9.885821266994147816e-02,-8.710478067297809657e-02,-1.076478285565765880e+01
-9.859487933345696675e-02,-1.014257923314462323e-01,-1.077213401925788183e+01
-9.614345060865925330e-02,-9.700064264805972891e-02,-1.078004157430531151e+01
-9.485614850786129593e-02,-9.524906387559642362e-02,-1.077262771128322782e+01
-9.901749576487217652e-02,-9.977129309427720805e-02,-1.078454580162157761e+01
-9.535416170653622514e-02,-9.343161035076126553e-02,-1.076534794542516238e+01
-9.126135967452229936e-02,-9.440625181514876452e-02,-1.077681386860205848e+01
-9.650145604435747537e-02,-9.533046094975225482e-02,-1.078124385894320092e+01
-9.977038188696177312e-02,-1.047980036176701935e-01,-1.077670454377385489e+01
-1.111812715695894432e-01,-9.797831494131099828e-02,-1.077509382923054915e+01
-9.446065073895142106e-02,-9.895480387813988810e-02,-1.077346187856839776e+01
-9.923475269208451022e-02,-9.761621509988244183e-02,-1.077619445481866300e+01
-1.033475273538720929e-01,-9.305437138703841204e-02,-1.076466583550399569e+01
-1.018401732315463160e-01,-9.378711779298280760e-02,-1.077637865836952713e+01
-9.837589286420701795e-02,-8.653618855976696889e-02,-1.078553180506806086e+01
-9.746880727806327138e-02,-9.579155874166170315e-02,-1.076827278878007199e+01
-9.765912505137279431e-02,-9.445801764440066306e-02,-1.077860528781001470e+01
-9.453013680843991295e-02,-9.168251810218426556e-02,-1.077075530125816094e+01
-9.824643683799558214e-02,-1.033386199283167772e-01,-1.077975218007382274e+01
-9.453234661214028611e-02,-9.899126577215394684e-02,-1.076440055280999886e+01
-1.010673457639542500e-01,-9.758055447501005897e-02,-1.076705447883825428e+01
-9.160896891692954513e-02,-9.362135823053049921e-02,-1.077220487435861784e+01
-9.814499561121668714e-02,-9.377838427680189326e-02,-1.077578759374589268e+01
-1.023024666698396229e-01,-9.694091281112952874e-02,-1.077919796100522731e+01
-1.049327703898478709e-01,-9.823434405528333468e-02,-1.076765581198053212e+01
-9.882476002119548741e-02,-1.026799057270418591e-01,-1.078179962249596002e+01
-1.066670350406430934e-01,-1.060871932254630889e-01,-1.078019261177427524e+01
-1.002658945943847857e-01,-9.327147820926323663e-02,-1.077190371262976853e+01
-9.442173829526603890e-02,-8.766856707528385140e-02,-1.077544161862256544e+01
-9.413970482157274500e-02,-9.748581602600601970e-02,-1.076968993663548702e+01
-1.024434582239229091e-01,-1.030376392080286779e-01,-1.077518244961966687e+01
-1.012357054293173825e-01,-1.009953449553157578e-01,-1.077841176129935796e+01
-9.436248625486035047e-02,-9.808976611764476383e-02,-1.078037089638908164e+01
-9.904511657740325270e-02,-9.965890187572973291e-02,-1.078239359179405099e+01
-8.330041456319092763e-02,-9.793811744009592313e-02,-1.076690749190541574e+01
-1.082452750196073732e-01,-1.048616255056298990e-01,-1.076789258850884323e+01
-9.805036521854930409e-02,-1.023677897458478564e-01,-1.077566233396197859e+01
-1.047587229222745331e-01,-9.473397705542360714e-02,-1.077032275151863239e+01
-9.515987539750897506e-02,-1.069404369852600956e-01,-1.077095653532772879e+01
-9.485075817385879571e-02,-9.505499239654574550e-02,-1.077137743866405373e+01
-8.862868966369448487e-02,-9.390539435993162931e-02,-1.077170880073856374e+01
-1.008773487719802769e-01,-9.574961781690465024e-02,-1.077444706967711419e+01
-1.008026707351766943e-01,-8.961325629804320347e-02,-1.077388260094518380e+01
-9.424209366734087601e-02,-9.552188748338816260e-02,-1.077682288170545100e+01
-1.002981812510201493e-01,-9.853781077804367461e-02,-1.077891819535406803e+01
-9.384849934200056865e-02,-9.602737557407936553e-02,-1.076918315860509168e+01
-1.030576605706390175e-01,-1.000426717896469170e-01,-1.077491891832117687e+01
-9.821071946157892973e-02,-1.002403094164826536e-01,-1.076696227452403143e+01
-9.714923852316764696e-02,-9.690889151239281962e-02,-1.077757145207140255e+01
-1.080038930531625613e-01,-9.392324551816833011e-02,-1.077087827898815320e+01
-1.012453492667634847e-01,-1.016403746008362474e-01,-1.076786932007992448e+01
-9.099963814984818322e-02,-1.025276202882702964e-01,-1.077508531967063199e+01
-9.671584200021424160e-02,-9.436460281005173978e-02,-1.076902373669795132e+01
-8.827445484707938106e-02,-1.026235579379894680e-01,-1.077885875755737466e+01
-1.009697694353781788e-01,-9.958129535239199082e-02,-1.076291483515450587e+01
-1.099053957959985062e-01,-1.024901435507526715e-01,-1.077997278266784420e+01
-9.035268160439322016e-02,-9.405175378295878297e-02,-1.077479894091627699e+01
-1.052097580704889068e-01,-9.642339146297211616e-02,-1.077638437537739868e+01
-9.838094332157545918e-02,-1.032821665862690280e-01,-1.077703915489636088e+01
-9.423463098414401606e-02,-1.008466519400311179e-01,-1.077938402128192941e+01
-9.631774772113717298e-02,-1.060816366255223769e-01,-1.078418843395492033e+01
-1.041429901765587446e-01,-9.845603569162036939e-02,-1.077280539804267434e+01
-9.490986255420712225e-02,-1.025504384636475169e-01,-1.076899408377137313e+01
-9.846068749602827908e-02,-9.057565180277181438e-02,-1.077248038285087794e+01
-9.685273884124015464e-02,-9.761822040685168289e-02,-1.077859855205585227e+01
-9.424527495562610990e-02,-9.870673676479357894e-02,-1.076975381157889444e+01
-9.241369623955635049e-02,-9.815726546372031958e-02,-1.076877784904398183e+01
-1.000986078515549438e-01,-9.357861403713828297e-02,-1.077443577397059116e+01
-9.755647758412590298e-02,-1.008829669334800200e-01,-1.077316784569507746e+01
-9.450213046727302946e-02,-9.021642251710661198e-02,-1.077905811323305585e+01
-8.495911250614811283e-02,-9.656217493381669126e-02,-1.076815587105838290e+01
-1.031903568343722072e-01,-1.015381432809076140e-01,-1.078078097366620014e+01
-8.970478822768021554e-02,-1.006285089107130243e-01,-1.078247738790009258e+01
-9.576400932729785265e-02,-1.017320800199259662e-01,-1.076617522980352248e+01
-9.987493628465905771e-02,-1.009643838152630146e-01,-1.077849178684574305e+01
-9.603695026203383500e-02,-9.303699157981458467e-02,-1.076603714076275509e+01
-1.006413661583132751e-01,-9.885242430943663727e-02,-1.077282510493079037e+01
-1.025774228136539373e-01,-8.843016679145176973e-02,-1.077302474814774946e+01
-1.063508142492922831e-01,-8.964869480787110434e-02,-1.076323942461026739e+01
-9.609354224639021780e-02,-9.454187062441371525e-02,-1.077167675635771005e+01
-9.772155606832845509e-02,-9.785703963132653949e-02,-1.077942847086685418e+01
-9.220456634848364641e-02,-9.412452066838650211e-02,-1.076992379209400497e+01
-1.020230422240082507e-01,-9.673755146184709330e-02,-1.077804358390560147e+01
-9.650718893609259996e-02,-1.083190618257791615e-01,-1.077187881283863824e+01
-9.499669324007614657e-02,-9.619040835697369174e-02,-1.076629240873022475e+01
-9.358136380422318878e-02,-9.390936355376955369e-02,-1.077316743508051644e+01
-8.489522362914340980e-02,-9.390517695065378478e-02,-1.077799588716392165e+01
-9.983130249604266204e-02,-9.205207237545269539e-02,-1.077158580315244585e+01
-9.213494558032586657e-02,-8.951937444987012604e-02,-1.076951735650822606e+01
-9.991292152238988311e-02,-9.684891633595260618e-02,-1.077438232989595512e+01
-9.685535302993844575e-02,-9.656236130261208750e-02,-1.077601204988955885e+01
-1.043344427257266865e-01,-1.006433838347586679e-01,-1.077748593446781200e+01
-1.022627299818630597e-01,-1.065631021917181759e-01,-1.076864827085556975e+01
-9.554403658785923237e-02,-9.294991377950724554e-02,-1.077177078964143853e+01
-1.098502785139874038e-01,-9.658563652939126942e-02,-1.076664621666612831e+01
-9.212666611208536471e-02,-9.654898496395816765e-02,-1.076927748806867058e+01
-1.010339827231354348e-01,-9.854732271324664894e-02,-1.076423254354167725e+01
-9.742643904116647657e-02,-8.997642943097071411e-02,-1.077679708635737299e+01
-9.356095391316622545e-02,-1.036719209747489767e-01,-1.076825543555240117e+01
-8.858070683297987469e-02,-9.069495132678484506e-02,-1.077316033206434653e+01
-9.009137625178491315e-02,-9.524671419094823954e-02,-1.077383682356874850e+01
-8.953204021111847710e-02,-1.046236946711222027e-01,-1.077055762893805024e+01
-8.692104275285944537e-02,-1.064944318891641734e-01,-1.077217934121807730e+01
-1.066933054039289341e-01,-1.051845987543832128e-01,-1.077608307118452480e+01
-9.272081197485949888e-02,-9.812382438369701698e-02,-1.077777731343302747e+01
-8.980304004141284602e-02,-9.512414196926340104e-02,-1.077187195716827972e+01
-9.290202511177231282e-02,-9.522801331686912840e-02,-1.077520180972676656e+01
-9.527328212245048111e-02,-9.220380983418080545e-02,-1.077218561582063749e+01
-1.019020878144525633e-01,-1.041207614028950290e-01,-1.077447445142084170e+01
-1.008601995548639441e-01,-9.954106437241504179e-02,-1.077806922225120800e+01
-9.468088362827234428e-02,-9.341143066787190030e-02,-1.077114040385965232e+01
-9.712284526296662002e-02,-1.031004716030482909e-01,-1.076840516928514369e+01
-1.052357531437965732e-01,-9.602816291331271736e-02,-1.077770353736651288e+01
-9.302361307755895037e-02,-8.944454647754002119e-02,-1.077361466598301476e+01
-9.538243849013700038e-02,-9.986333972158430161e-02,-1.077107352900918791e+01
-9.522060385280518846e-02,-9.754110169263163765e-02,-1.077515424352745121e+01
-1.077654145922271600e-01,-9.885100939584275104e-02,-1.077267250400214493e+01
-1.068973399621068188e-01,-1.032796646727967838e-01,-1.077160906003259022e+01
-1.021890010048649294e-01,-9.415440941261518648e-02,-1.078257002537102238e+01
-9.257698780551287809e-02,-9.754960337441107021e-02,-1.076924982383217611e+01
-9.824570722343402285e-02,-9.203867053144099142e-02,-1.076081788133737938e+01
-9.746839003675501767e-02,-9.694194182851610664e-02,-1.077346895609827193e+01
-9.197711470049937943e-02,-9.917764376391176306e-02,-1.077848609402943936e+01
-9.847750393272639013e-02,-9.516797846257177285e-02,-1.077896335237879200e+01
-1.066102436943668352e-01,-9.918624013735338751e-02,-1.077177997050387681e+01
-1.030632491653171723e-01,-1.047821756011126509e-01,-1.077131482000930873e+01
-1.008931810544346497e-01,-9.789582993960839474e-02,-1.076737534020172404e+01
-9.667935061078253289e-02,-9.900760674599762279e-02,-1.077330455788714580e+01
-9.448799779118401132e-02,-1.017397841265505198e-01,-1.077095808162007984e+01
-9.677762726054388309e-02,-1.011786441186176833e-01,-1.078855423677148551e+01
-1.021620341021442224e-01,-1.069552730170199861e-01,-1.077327744322575498e+01
-9.412154847325215901e-02,-9.616215408829741074e-02,-1.078067361010714542e+01
-1.036257488742788196e-01,-9.739808504144832624e-02,-1.077184734533675403e+01
-9.234372089933370886e-02,-9.094847040338234490e-02,-1.077234763189854405e+01
-9.329340732504726175e-02,-9.981788145950998281e-02,-1.077007579751480826e+01
-9.865030824815915200e-02,-9.585784956106072063e-02,-1.076972751653164018e+01
-9.585148461010728482e-02,-9.348497394877615385e-02,-1.077833531490697894e+01
-9.897829820476654328e-02,-9.409616109651372517e-02,-1.077336708690485523e+01
-9.686913702149975436e-02,-9.918478177348205582e-02,-1.077719958720627602e+01
-9.803937777627651229e-02,-1.048641685954986164e-01,-1.077720045097697898e+01
-1.036631011635498895e-01,-1.028180752308173324e-01,-1.077860155489250005e+01
-9.185987256390583389e-02,-9.070488839719437202e-02,-1.076948058714320666e+01
-9.652398472374196237e-02,-9.668804067491461318e-02,-1.078056170676153691e+01
-9.874091374136650945e-02,-9.859324277180907259e-02,-1.076916233671409984e+01
-9.429891388090158588e-02,-8.898479990080439272e-02,-1.078549327627963983e+01
-9.220244712581182611e-02,-1.077781623471338740e-01,-1.077632958962039744e+01
-1.056937015964676957e-01,-9.098588094887698208e-02,-1.077466997878874189e+01
-9.808211117089526976e-02,-9.259562631796472432e-02,-1.077825638918885964e+01
-9.406509192232564986e-02,-1.004174712359663657e-01,-1.076884322110445780e+01
-9.797818563641660927e-02,-8.992894446135983599e-02,-1.076786876659961933e+01
-9.172920767168414591e-02,-9.286217240657163030e-02,-1.077417647954855795e+01
-1.023005073794317765e-01,-1.035537548315999534e-01,-1.077166051119169587e+01
-9.153624158427435542e-02,-9.753438712259422660e-02,-1.076329860298841368e+01
-9.627944444865628448e-02,-9.709452293326026329e-02,-1.076802108743101627e+01
-8.984150210856167718e-02,-9.846262231721412961e-02,-1.076658700794201629e+01
-9.339450664175458217e-02,-9.674878278556606204e-02,-1.077321369035229814e+01
-1.015507367311014736e-01,-1.058625347625228585e-01,-1.077932928027768789e+01
-1.001091960438599548e-01,-7.774333134161098835e-02,-1.077888698539078582e+01
-9.745949607415967109e-02,-9.471823557848857433e-02,-1.077751784568730997e+01
-9.304050438558332525e-02,-9.818368217888027993e-02,-1.076583956994029379e+01
-1.087867988892962101e-01,-9.868283268075135617e-02,-1.077744183818827395e+01
-9.932463796747301177e-02,-1.023864822346127329e-01,-1.077471515497412291e+01
-1.033607449834103298e-01,-9.260976164912382291e-02,-1.077718429232701602e+01
-9.501357999691514844e-02,-9.524930939916485817e-02,-1.077801558084562394e+01
-9.102807454969213952e-02,-9.402841913676282526e-02,-1.077243481127139724e+01
-9.455057786779294537e-02,-1.029819873389810625e-01,-1.076860256014960093e+01
-9.722250246635052995e-02,-9.755992902800648958e-02,-1.077357948566673684e+01
-9.539387592278210370e-02,-9.665116443257541767e-02,-1.076636139544594251e+01
-1.033584379725724645e-01,-8.579685750718916981e-02,-1.077248775348614807e+01
-9.835425121028176787e-02,-9.025794572692075191e-02,-1.077540870834059739e+01
-9.354351976333018237e-02,-9.825588493686125691e-02,-1.076751714959539896e+01
-9.687722022268038802e-02,-9.932708326719390246e-02,-1.076428280125400860e+01
-1.004540461776348564e-01,-9.249344265390060937e-02,-1.078140494661448834e+01
-9.724176647415784525e-02,-8.902710350233060399e-02,-1.078150077463797807e+01
-8.990099180003069401e-02,-1.015410804474306816e-01,-1.076995940724836665e+01
-9.217132302910656383e-02,-1.075853941290642740e-01,-1.077308384097143268e+01
-9.190279098025329330e-02,-9.660171988308383084e-02,-1.077807854401270227e+01
-9.316579786897735693e-02,-9.985856280613972236e-02,-1.077327951336055989e+01
-9.749351709226203311e-02,-9.546403616718848739e-02,-1.076482985590582686e+01
-9.646054383371222007e-02,-1.006592652937704363e-01,-1.077518033774991402e+01
-1.007654135006989249e-01,-1.006234912995542380e-01,-1.077395019894591144e+01
-9.708863754260341206e-02,-9.142749511443636068e-02,-1.077303674039564285e+01
-9.639278980757119697e-02,-9.734753265744065798e-02,-1.077475198469880802e+01
-1.049530926175869239e-01,-9.652284994544309271e-02,-1.076593663901716447e+01
-9.646713383702915090e-02,-9.587087699997855206e-02,-1.077719707676165406e+01
-1.021474703635214254e-01,-1.025404819185622013e-01,-1.076826961020131712e+01
-9.175451860913022561e-02,-1.010038870816224177e-01,-1.077226402913427350e+01
-1.003918733476937691e-01,-9.092084006572971611e-02,-1.077261204147764317e+01
-1.046291562027556743e-01,-9.245649515450139744e-02,-1.078566902232259928e+01
-9.747107110575989330e-02,-9.946330742649779622e-02,-1.077216211930562473e+01
-9.645475992434396351e-02,-1.018473473662842993e-01,-1.077355865987695971e+01
-9.663023341020667012e-02,-9.814333338962004383e-02,-1.078060718988526467e+01
-8.867375860086877670e-02,-9.640026669773864298e-02,-1.077752781865899934e+01
-1.114321617288586419e-01,-1.036622278507966233e-01,-1.076488166270134705e+01
-1.030096735317851259e-01,-8.640913135855327054e-02,-1.077402453081396949e+01
-9.823218332990681090e-02,-9.864427805633184387e-02,-1.076559969292021357e+01
-9.387447345420962819e-02,-9.355799220565666485e-02,-1.077630239474672891e+01
-9.100488828155006704e-02,-9.081487225008594288e-02,-1.078431347200284307e+01
-1.093630780112947037e-01,-1.027900044969970866e-01,-1.077608089493311283e+01
-9.738550686460889505e-02,-9.400925615728417117e-02,-1.077236002050362451e+01
-9.823297075687330293e-02,-9.738589713170842099e-02,-1.078305255666709606e+01
-1.001659882591554723e-01,-9.300104138265374853e-02,-1.077147071653280008e+01
-8.593046904293755173e-02,-1.009415975092569362e-01,-1.076432247028682276e+01
-1.005694796828166676e-01,-8.377672687606629864e-02,-1.078037621110406796e+01
-1.012903495610530114e-01,-9.519446775692082252e-02,-1.077668981059858133e+01
-9.121015018734177082e-02,-9.836116345882864320e-02,-1.076827948277443170e+01
-9.946693081654688073e-02,-1.054737978716185631e-01,-1.077863621825820850e+01
-1.008152770746319898e-01,-1.031641135082687205e-01,-1.076679620750244837e+01
-9.269123178773701344e-02,-1.001419205814203794e-01,-1.078236010246087950e+01
-1.004756404089628685e-01,-1.016838392968645310e-01,-1.077706658010256113e+01
-9.573412529351195410e-02,-1.021412564174436488e-01,-1.077992609233026222e+01
-8.981666162914837825e-02,-9.204967635446682783e-02,-1.077019161351315368e+01
-9.306543453506729846e-02,-9.559719708671741978e-02,-1.076961074708065347e+01
-9.426690051566576078e-02,-9.832433527124094519e-02,-1.077360773094096125e+01
-9.514418648287420455e-02,-1.110137823250165884e-01,-1.078390344689064939e+01
-9.637929069218054146e-02,-9.443519173933638544e-02,-1.077705152463646421e+01
-9.564172859876840516e-02,-9.151616728855679894e-02,-1.077611130927386895e+01
-9.022350928750309806e-02,-9.251461915646480572e-02,-1.077969417005191666e+01
-1.025469629738187671e-01,-9.825548397149244662e-02,-1.076830862335662253e+01
-9.276260121774818068e-02,-9.651077973473963512e-02,-1.077545651407175420e+01
-9.569007768167107908e-02,-8.598589126468611510e-02,-1.077026555559447374e+01
-9.525924331902595188e-02,-1.005569871005650429e-01,-1.077534226058012301e+01
-9.651753739626953155e-02,-9.946071490334168486e-02,-1.077257642803597903e+01
-9.581001296212850182e-02,-9.445205359055319771e-02,-1.077271212611035445e+01
-9.364869652424927249e-02,-9.952546574171042271e-02,-1.078445835672236797e+01
-9.269107399731939256e-02,-9.859089400073395293e-02,-1.077907338062435194e+01
-9.718544577753289448e-02,-1.093226957913929348e-01,-1.076436610468329391e+01
-9.533343894504718585e-02,-9.977539453329423158e-02,-1.077528481128242355e+01
-9.817045302367728710e-02,-1.091525844075239976e-01,-1.077965137070471968e+01
-1.056824536561070255e-01,-1.052419971674189714e-01,-1.078051185529263734e+01
-1.035001886452981690e-01,-1.044101222067074508e-01,-1.077150574173528597e+01
-9.989626691045572215e-02,-9.794732807351068382e-02,-1.077549144811277415e+01
-9.701769541225184479e-02,-9.522289316658370806e-02,-1.078026210065578638e+01
-1.018973510608156691e-01,-1.015486819513848893e-01,-1.077680565140289914e+01
-1.012110226498621202e-01,-9.616209972996965505e-02,-1.077336633722915948e+01
-9.444527447220206484e-02,-9.871440283963435480e-02,-1.077158868041436257e+01
-9.924812287450186787e-02,-9.881696000078259157e-02,-1.076820831191991168e+01
-9.303219494444733839e-02,-8.765709304847510430e-02,-1.077074255590911100e+01
-1.070256693425795103e-01,-9.082965154229719063e-02,-1.076465071821293762e+01
-9.920598478474948467e-02,-9.672828380362492873e-02,-1.077355435988303434e+01
-9.255878978615351971e-02,-9.656034576909795775e-02,-1.077895187163916368e+01
-9.327411280411633532e-02,-9.820572380473514829e-02,-1.077632225629782425e+01
-9.871400562006082957e-02,-9.517668035767858081e-02,-1.077627241267330760e+01
-8.926497685157709638e-02,-9.699795176970514576e-02,-1.077786303886080610e+01
-9.260794345214176659e-02,-9.329657284949589846e-02,-1.077585904195400346e+01
-9.387208718300107946e-02,-1.003745390634663975e-01,-1.077666692209142241e+01
-9.842632072763650430e-02,-9.015348722295449257e-02,-1.077592583468449305e+01
-9.240556029571110608e-02,-1.000189101397282870e-01,-1.078244262911708340e+01
-9.714457465154802129e-02,-9.082279846738482154e-02,-1.077392682826024917e+01
-8.949888195869934449e-02,-9.621042899286116890e-02,-1.077754659149249328e+01
-9.238492272459343513e-02,-9.666804525293418160e-02,-1.077733096351585118e+01
-9.666902661803537800e-02,-1.060371279115423504e-01,-1.077689055420172615e+01
-9.391414929645473808e-02,-9.320488131753311423e-02,-1.077204631580613103e+01
-9.782817893062170644e-02,-9.579306006365007065e-02,-1.076761499656226384e+01
-9.465318462790417442e-02,-1.007090948168856970e-01,-1.077305258261868026e+01
-9.113684505407561309e-02,-9.842028361080341903e-02,-1.077101960743745401e+01
-9.719027337298442870e-02,-9.790712029121304005e-02,-1.076819767257004123e+01
-9.406255289793427621e-02,-8.665972611595436359e-02,-1.077754624567771735e+01
-9.159977560050037992e-02,-9.389444755789103092e-02,-1.076895123032102930e+01
-9.479170649521857783e-02,-9.973626503076023220e-02,-1.078026952240992919e+01
-9.753045966607128137e-02,-9.332623240901197215e-02,-1.078057309391705765e+01
-9.901400979279366410e-02,-1.046411528989029532e-01,-1.076931351548973836e+01
-1.042217687514941787e-01,-1.010338080923516152e-01,-1.078162674946848121e+01
-9.413929691393271848e-02,-1.005852184786859976e-01,-1.077360782650033677e+01
-1.059112663607753857e-01,-9.941932364797165245e-02,-1.078149944288800377e+01
-1.013032307670677090e-01,-9.261850612357747092e-02,-1.076836674041563313e+01
-1.047142400086673170e-01,-9.996344780303639821e-02,-1.077987802180127197e+01
-9.157180162280142977e-02,-9.448169537996820022e-02,-1.077813874027665264e+01
-9.352845130254219819e-02,-9.818145027436044059e-02,-1.077757797319647182e+01
-1.020131389292360385e-01,-1.095406437569704239e-01,-1.077878453834728845e+01
-9.545048018767486597e-02,-9.526107398835741147e-02,-1.077383048981027081e+01
-1.001942450617929053e-01,-1.020549071917672135e-01,-1.076972518042157922e+01
-9.366462651421408880e-02,-9.930037758602468234e-02,-1.076971232832307201e+01
-9.882678076909895415e-02,-1.103524508686511973e-01,-1.076785968358728951e+01
-1.008588375355602557e-01,-1.001137759606223199e-01,-1.077372067183436144e+01
-9.498597720108441222e-02,-1.051848694112396676e-01,-1.077052876061202014e+01
-9.596608639462785029e-02,-9.412554440093678920e-02,-1.077640295713981189e+01
-9.814077313925034796e-02,-9.466485169643491793e-02,-1.078131805673331556e+01
-9.704506423174130703e-02,-9.527750754982382275e-02,-1.077473251701524859e+01
-1.026178958096155280e-01,-9.413331402872167353e-02,-1.076891961558848898e+01
-9.931346057621794066e-02,-9.599389446720212049e-02,-1.078060924324683079e+01
-9.900257895025867116e-02,-9.809772073868247566e-02,-1.077233796756080508e+01
-8.822706866037334505e-02,-9.778993540935661255e-02,-1.077126004834759954e+01
-9.170126768901350200e-02,-1.068794785508065115e-01,-1.077089885071608499e+01
-1.045635862602057181e-01,-9.334410829786997377e-02,-1.077210126520511935e+01
-8.975293281228918785e-02,-1.042171039674349708e-01,-1.076478433607496754e+01
-8.990814798438333255e-02,-9.293734569722723882e-02,-1.076607483387532227e+01
-9.975456544209346244e-02,-9.940701617687820735e-02,-1.078029969564806834e+01
-1.063855416776920693e-01,-9.162430970261656316e-02,-1.077647002626404316e+01
-8.700257350196358153e-02,-1.005083852878292244e-01,-1.078568137048974052e+01
-1.010152326035404780e-01,-9.745975913777585320e-02,-1.077354026385009966e+01
-9.867334275130852650e-02,-9.545990151145596070e-02,-1.078240536143414730e+01
-8.904644659860311284e-02,-9.520943692031429151e-02,-1.077043113206960179e+01
-9.429958341276191425e-02,-9.123917495602189287e-02,-1.078179692374703436e+01
-1.026435506926287461e-01,-1.037248778099310598e-01,-1.077562888096342775e+01
-9.680625465338610347e-02,-1.029326138215889558e-01,-1.077387102781396422e+01
-9.184320726868999696e-02,-1.045643223194499538e-01,-1.077901695639496538e+01
-1.058773162013215835e-01,-9.923459633854009310e-02,-1.077092213596416670e+01
-1.025100744347399728e-01,-1.005164154575095836e-01,-1.077647487119455683e+01
-8.707907618645439884e-02,-9.910365430493482675e-02,-1.075613067978345505e+01
-9.830190616712769502e-02,-9.829134859790891743e-02,-1.077930811821280699e+01
-8.916397071505102745e-02,-9.484355563655795518e-02,-1.077353409593699674e+01
-9.774136318264667334e-02,-9.598952030892377030e-02,-1.077940053401086296e+01
-9.829787850510351976e-02,-1.000444575961517285e-01,-1.077071555607970588e+01
-9.154420188445766549e-02,-1.081500421843510085e-01,-1.077942564596650143e+01
-9.379501668865139474e-02,-1.020695894592673625e-01,-1.077060658152279693e+01
-1.024678560983674214e-01,-8.975211888573342289e-02,-1.077409114945632851e+01
-9.377132031017608449e-02,-8.827805862647886137e-02,-1.077199277784105114e+01
-9.459120934701255312e-02,-1.040084936908496765e-01,-1.078243204199498528e+01
-9.655836983235276116e-02,-9.430545980169832698e-02,-1.077009338682746709e+01
-1.010298663413400216e-01,-1.001056363859146869e-01,-1.077898113486326892e+01
-9.290409853696440790e-02,-9.286349593402025426e-02,-1.078204358629061232e+01
-1.075973408251931079e-01,-9.327217116072269998e-02,-1.076826268497512906e+01
-9.375645033366135361e-02,-1.048247185523809577e-01,-1.077544265166476478e+01
-9.911563676727755401e-02,-9.953966123770620344e-02,-1.078191720304259071e+01
-9.826640409644350760e-02,-1.066208195293626149e-01,-1.076890122138829398e+01
-9.064405592408400492e-02,-9.416594998021624030e-02,-1.077783312721657438e+01
-9.872553909659835536e-02,-1.038160031961926216e-01,-1.077995771331103825e+01
-1.038300603971547414e-01,-9.405462764224771510e-02,-1.076915567628027226e+01
-9.511541483514641959e-02,-9.065923211617617217e-02,-1.077464488358043404e+01
-1.018578590599299172e-01,-1.011204974638695298e-01,-1.077462939489952554e+01
-9.333441238731277068e-02,-9.796656076176601946e-02,-1.077395059661349919e+01
-1.009810176712515328e-01,-9.896618524501303582e-02,-1.077977020648293305e+01
-9.955417261842584853e-02,-9.554781406542443845e-02,-1.077707509218939919e+01
-9.453004640742501685e-02,-1.022467887407241399e-01,-1.077312074790854801e+01
-1.046924761072515336e-01,-1.003932866696846393e-01,-1.077503947494263414e+01
-1.013618149580417654e-01,-9.651030943487079461e-02,-1.077675480817245024e+01
-9.734831503638748107e-02,-9.209072740430182535e-02,-1.076420291461923107e+01
-1.003292585619247196e-01,-8.880761570110129455e-02,-1.077739208837821216e+01
-9.354095682533285216e-02,-1.005541213133999551e-01,-1.077022032015610620e+01
-9.774780895113696633e-02,-8.494723024201970840e-02,-1.077028494003358361e+01
-8.404235755922291606e-02,-8.693899103303170950e-02,-1.077338657661726273e+01
-1.011689664022312474e-01,-9.175006619397910179e-02,-1.077943938844622274e+01
-9.368981348699409462e-02,-9.200898212562398648e-02,-1.076845604872293372e+01
-9.854147239787200419e-02,-1.040381462798961043e-01,-1.077453442952759310e+01
-9.639618952701171917e-02,-9.534494927403383557e-02,-1.076740602671591596e+01
-9.014020820538015677e-02,-9.908011213487101509e-02,-1.077536131515262596e+01
-9.557190510042203047e-02,-1.011025679917707254e-01,-1.078287929850848670e+01
-9.750864681449461502e-02,-1.001490929680774883e-01,-1.077255537755435277e+01
-9.044660056130304771e-02,-9.191680122312971546e-02,-1.076927436191081888e+01
-1.038112003708090147e-01,-9.970164308295877131e-02,-1.077173181169281335e+01
-9.562804393009302628e-02,-9.917631065940596402e-02,-1.077095220778920392e+01
-9.557590976855837028e-02,-9.297285122487201903e-02,-1.076601026178043163e+01
-9.952966922420546092e-02,-9.351838517010362117e-02,-1.076675610584738330e+01
-9.794618087455168876e-02,-9.208505034388569932e-02,-1.077337977066418517e+01
-1.036892312296681107e-01,-9.617983521843841144e-02,-1.076613306822583560e+01
-9.804886094413606257e-02,-9.334269347679492734e-02,-1.077155714890574956e+01
-1.020761081219491440e-01,-9.558059978472634166e-02,-1.078170931778433683e+01
-9.210219075314314552e-02,-8.946023875795922065e-02,-1.076978930927866962e+01
-9.780659679234436632e-02,-9.658108085872051107e-02,-1.077316278638084945e+01
-9.334342162121736508e-02,-9.098850970636930546e-02,-1.076688063867631406e+01
-9.492177265673103215e-02,-9.061550085159233991e-02,-1.077693995744712296e+01
-9.659357401320514680e-02,-9.533917753034523712e-02,-1.077860755519247782e+01
-9.527885920350773197e-02,-8.689307826424480519e-02,-1.077885690192208834e+01
-1.006085434883660229e-01,-8.796832565154563688e-02,-1.077262155690395495e+01
-1.033539541989925564e-01,-8.979719281661528718e-02,-1.077440221424155631e+01
-9.656074596307702429e-02,-8.840874993183388264e-02,-1.076951433405083236e+01
-9.831804166664433187e-02,-9.762039292467292184e-02,-1.078511631398554016e+01
-9.427273983202008600e-02,-9.805155471721559157e-02,-1.077428664859100316e+01
-8.965157370297976991e-02,-8.624572499822112659e-02,-1.076425144890899332e+01
-1.061715271851849246e-01,-1.005306291763490012e-01,-1.076466392257827209e+01
-9.348468759150865837e-02,-9.751523448804533256e-02,-1.077000263201706609e+01
-9.974557291752841892e-02,-1.030272127994887182e-01,-1.077106657869852491e+01
-1.004303641133242747e-01,-9.523134034475655429e-02,-1.077271613745518053e+01
-8.910611240717591919e-02,-9.396966504439709100e-02,-1.076816456289888713e+01
-9.839632210761246889e-02,-9.712353885389576891e-02,-1.077505269601300775e+01
-1.008859729483541356e-01,-9.841070577368696282e-02,-1.076261195034637730e+01
-9.490383273431704514e-02,-8.626873676787120970e-02,-1.078239075947087500e+01
-9.437175535159454676e-02,-9.405544218538183787e-02,-1.076916742184699949e+01
-9.466729781347660300e-02,-1.005780044310966431e-01,-1.077746594414219672e+01
-9.239412269241489839e-02,-9.405342907600712510e-02,-1.077683247115243148e+01
-9.671265035081728911e-02,-9.553644448093895347e-02,-1.077932620435316124e+01
-9.898818005031220779e-02,-9.404038281048231196e-02,-1.077457482395208643e+01
-9.730464829683263539e-02,-1.054957089507110313e-01,-1.077536107481128624e+01
-9.570345624570822385e-02,-9.350576933324612761e-02,-1.077070908305455710e+01
-1.036280623077196761e-01,-9.725109072625673368e-02,-1.077888494391318197e+01
-9.415432081965866007e-02,-9.467286932373043806e-02,-1.077535834166318551e+01
-9.789691014319920614e-02,-9.060072212973208083e-02,-1.076605393614007156e+01
-9.440159495205339979e-02,-1.018903391491621235e-01,-1.077084345218702488e+01
-9.881463193424876168e-02,-9.691529946194121781e-02,-1.077565718233835312e+01
-9.809986194214911914e-02,-1.001230665847140100e-01,-1.077638927355624610e+01
-9.484094755288088874e-02,-1.059409976712517715e-01,-1.076594878788227128e+01
-9.669616935812715142e-02,-9.738516543004907544e-02,-1.076723825421990455e+01
-9.686888724605971501e-02,-9.049880260482530414e-02,-1.076430061009840600e+01
-9.363624036928147598e-02,-9.251206116629333287e-02,-1.077056376930093151e+01
-9.381254616084164222e-02,-8.165805161857617178e-02,-1.077645557963659861e+01
-8.869578590472040891e-02,-1.048385661845377126e-01,-1.077282546657669648e+01
-9.578654481506312934e-02,-1.015757530414266308e-01,-1.076817002656027178e+01
-1.004881456400806006e-01,-9.965036630521142968e-02,-1.077360114270043923e+01
-1.053780965606253700e-01,-9.374710262874855204e-02,-1.077277597210489901e+01
-9.904396376127598545e-02,-9.777225923801098617e-02,-1.076953815765473799e+01
-1.040394877610374413e-01,-1.017041841065307317e-01,-1.077373444208078723e+01
-9.571219772147829263e-02,-9.333878793874007818e-02,-1.077328346561576211e+01
-1.013187012792956115e-01,-1.031038156495835828e-01,-1.076219828849854387e+01
-9.742168821480313989e-02,-9.142137202494358961e-02,-1.078228481652761239e+01
-1.100153017583664489e-01,-1.011684160310441227e-01,-1.077191738563601398e+01
-9.837844489085591226e-02,-9.248369568195809187e-02,-1.077967531724435624e+01
-1.006772294820637015e-01,-8.917641337604603757e-02,-1.077735882865206918e+01
-1.078493031455026036e-01,-1.051678068987459136e-01,-1.077623560526928692e+01
-9.681703538338939929e-02,-1.004106743630247267e-01,-1.077992641186229861e+01
-9.690288118251244587e-02,-9.545397180642603563e-02,-1.077338844296263609e+01
-9.201420515095903863e-02,-1.033601386149429757e-01,-1.077242688967870521e+01
-1.027979967217974716e-01,-1.031371322342359981e-01,-1.077121837322018649e+01
-9.954543605804275219e-02,-9.703919112449536921e-02,-1.077389062796288854e+01
-1.004971412155650362e-01,-9.144228648908639401e-02,-1.077796229978794784e+01
-9.727740601499984541e-02,-9.564310365650410817e-02,-1.077501143542111706e+01
-9.903348607597428632e-02,-1.019693210473080341e-01,-1.076571547185055877e+01
-9.949638341291698607e-02,-1.013633552390211939e-01,-1.077282348505690024e+01
-9.280198319961389941e-02,-9.605570713677337447e-02,-1.077747148611993389e+01
-9.925657983005299612e-02,-9.745913152987181749e-02,-1.078094550184829359e+01
-9.615603374250998592e-02,-1.013070715792872833e-01,-1.077943280670067239e+01
-1.007562230628888389e-01,-1.001833032381442001e-01,-1.077353293450583926e+01
-1.052544972337379758e-01,-1.009260995562524105e-01,-1.076246237936494055e+01
-9.187034757811710084e-02,-9.833943032459072087e-02,-1.077511182787577582e+01
-9.133501812042746359e-02,-9.264799621055269663e-02,-1.077399702148081140e+01
-1.079875324083514193e-01,-1.053797742597048920e-01,-1.077990388963387147e+01
-9.412286640102160429e-02,-9.957223319614959267e-02,-1.076755178071098307e+01
-9.423142859498997992e-02,-9.978993966385849013e-02,-1.077582868609209221e+01
-9.485903483769161926e-02,-9.230297692861839931e-02,-1.076577837712232544e+01
-9.675693720604636172e-02,-9.641593279211213563e-02,-1.077759535758085718e+01
-9.662641778560167316e-02,-9.731104160704545647e-02,-1.076816783885280238e+01
-1.009539519092324256e-01,-1.012986819217547574e-01,-1.077633835738340728e+01
-9.801550074044314276e-02,-9.905868569973877436e-02,-1.077619682497210363e+01
-9.466565261205234227e-02,-9.694844281821753118e-02,-1.077523682392980398e+01
-9.958852681320733147e-02,-1.029964394071976735e-01,-1.076694131816026534e+01
-9.539014510091130272e-02,-9.477617009117400571e-02,-1.077256486361173948e+01
-9.434030542698632060e-02,-8.739894037481057976e-02,-1.077296144451127802e+01
-9.255963754971353874e-02,-9.934654119011313012e-02,-1.077911081425231110e+01
-9.803003550009152522e-02,-9.020827414098413211e-02,-1.077532179162782278e+01
-9.797942038204789095e-02,-1.027557682449762450e-01,-1.076554683232890852e+01
-1.005936814922187561e-01,-1.021583659856103027e-01,-1.077672266797936373e+01
-1.098104482739628573e-01,-9.528679423320940423e-02,-1.077560338331226220e+01
-1.022637647025940039e-01,-9.876763395034503235e-02,-1.076582720120776138e+01
-1.008803593284883088e-01,-9.439296445073616648e-02,-1.078464141116312547e+01
-1.002218643389191921e-01,-9.361893284443473240e-02,-1.077097701367496363e+01
-9.787179844499070691e-02,-8.939248266959855249e-02,-1.076818242295774652e+01
-9.845892508609095650e-02,-9.203263138141688782e-02,-1.078396906939223321e+01
-9.972491358028413855e-02,-9.696850566945565408e-02,-1.077146064263939351e+01
-1.010625121885876943e-01,-9.077008689608966063e-02,-1.077324350495438310e+01
-9.901731974296404393e-02,-1.015489834295576904e-01,-1.077065810765461329e+01
-8.891132774291084229e-02,-9.182733443815044305e-02,-1.077491294746834782e+01
-1.020395668025571717e-01,-1.029863476453276583e-01,-1.077170122381609474e+01
-9.401805821557962517e-02,-9.133555065680425133e-02,-1.077034269690302537e+01
-9.814181551370053380e-02,-9.468085557859821921e-02,-1.076965752562960965e+01
-9.751721813546990192e-02,-9.945022154605213938e-02,-1.078172013098634174e+01
-1.149548234099082994e-01,-9.630669013485419760e-02,-1.076694907763586784e+01
-9.457887915955680291e-02,-1.049438905433785901e-01,-1.076460358777963577e+01
-9.739442510596960090e-02,-9.571743252566287941e-02,-1.077427760595208284e+01
-1.000137673467116906e-01,-9.465232291449014734e-02,-1.077235339720281715e+01
-1.068208743545636802e-01,-8.018192601265188013e-02,-1.077249260063912040e+01
-1.019282399847514370e-01,-9.962369874883672538e-02,-1.077519940995274617e+01
-9.504290768760727259e-02,-9.376994183093385893e-02,-1.077497671743144636e+01
-9.827216442610768599e-02,-1.033685932397187118e-01,-1.077347357020972751e+01
-9.297460555779889224e-02,-9.827051368661776642e-02,-1.077004046604233700e+01
-8.887136190187609752e-02,-9.125588024891874428e-02,-1.078205003879045698e+01
-9.447801918673889854e-02,-9.734652649988903561e-02,-1.077088736322216356e+01
-9.187913384077613099e-02,-9.493122836483695870e-02,-1.076891762328267532e+01
-9.565024296350481403e-02,-9.566889933720004735e-02,-1.077327627785887465e+01
-8.814942540248316138e-02,-1.068862286133816647e-01,-1.076935394614232422e+01
-9.495915604558655132e-02,-9.054758936068453556e-02,-1.077258950130957160e+01
-9.375007563797525811e-02,-9.941204641647766183e-02,-1.077651910086657061e+01
-1.013207593437153303e-01,-1.024262583859706366e-01,-1.077798951735961630e+01
-1.044599938274663742e-01,-9.237971731064398284e-02,-1.077742844136535005e+01
-9.251283916714542199e-02,-9.961312822939732969e-02,-1.077701392817928827e+01
-1.109211622897278843e-01,-9.942704388524721548e-02,-1.077633295287413695e+01
-9.465635983677977983e-02,-1.040121047119107883e-01,-1.077780452626409691e+01
-9.631946586207008887e-02,-9.123929019447123145e-02,-1.077663027768628545e+01
-9.966811587485276125e-02,-1.037628338222693902e-01,-1.076376959230128705e+01
-9.009985228544331592e-02,-9.186545553086016003e-02,-1.077401171349998599e+01
-9.905303565533407628e-02,-9.940165813146339957e-02,-1.077611175838085700e+01
-9.153346487599846315e-02,-9.851920378166241499e-02,-1.077272894664664982e+01
-1.042995567285899677e-01,-9.291088269947379852e-02,-1.077258160694824696e+01
-9.430963942024149504e-02,-1.029179449592793200e-01,-1.076511801122442691e+01
-8.790460891792388487e-02,-9.822048780289104053e-02,-1.077584733842851961e+01
-9.555745310541105542e-02,-1.004065425342392792e-01,-1.077237168305802228e+01
-9.860285341195521025e-02,-9.993761415924497238e-02,-1.077259665582701231e+01
-9.857124994220288483e-02,-1.007862098891096486e-01,-1.077468483175266378e+01
-9.645845644988633449e-02,-1.038157203633649495e-01,-1.076656061491001104e+01
-1.072826490805972310e-01,-1.073326102895588718e-01,-1.077106126396160235e+01
-1.023112836671496717e-01,-1.005717080776087069e-01,-1.076374687553697207e+01
-9.625587286547802879e-02,-8.642676459937820299e-02,-1.077566911477484091e+01
-9.409646468292333366e-02,-9.213850678577083231e-02,-1.077419707723982079e+01
-9.484644083630765221e-02,-9.136351166977703386e-02,-1.077175100115647588e+01
-9.475624701010777751e-02,-9.205094647887390735e-02,-1.077600843692362886e+01
-9.612704104925183513e-02,-1.048305348078586996e-01,-1.077016523522411795e+01
-9.946592457331532300e-02,-9.302735268137582447e-02,-1.077921728460800566e+01
-9.788064931297243976e-02,-9.060106243991182529e-02,-1.076843210202122059e+01
-1.093822662732838735e-01,-9.980436816841273262e-02,-1.077854305243939237e+01
-1.005056827856961876e-01,-9.272575210061627382e-02,-1.077766974545078860e+01
-9.743723125563474863e-02,-9.104377744882395651e-02,-1.077712820173502983e+01
-1.020847108784488089e-01,-9.418792121317570709e-02,-1.077577252110856065e+01
-9.532201258266891075e-02,-1.027361751157017111e-01,-1.077424744620721242e+01
-9.673267844304363205e-02,-9.274766324537150886e-02,-1.077044552030229596e+01
-9.594298435170754702e-02,-1.043901155694453020e-01,-1.077950456490152398e+01
-9.039316890994809894e-02,-9.987122985212967818e-02,-1.077891762640414086e+01
-9.530992056086702580e-02,-9.575953798344752355e-02,-1.078062079118672223e+01
-9.439995758396572956e-02,-9.317245802679852140e-02,-1.077338960442853377e+01
-1.041478949008551036e-01,-9.736886696202785851e-02,-1.077867895876428683e+01
-1.018476773804725677e-01,-9.775869385479055151e-02,-1.076677567024565185e+01
-1.022082620956103610e-01,-9.969163453309197453e-02,-1.076589550107188842e+01
-1.006891821282231980e-01,-9.821344417605047672e-02,-1.077812578093945461e+01
-9.665773969180112279e-02,-9.605921271856801558e-02,-1.077585480099501858e+01
-1.012081472742509536e-01,-8.972832125467972153e-02,-1.076934218962046508e+01
-1.045850544468927557e-01,-9.672193244279582436e-02,-1.077154080975921069e+01
-9.599214551048540489e-02,-1.041669958488855019e-01,-1.077353462220913194e+01
-9.835200624574672035e-02,-1.027523977690232571e-01,-1.077393655665201422e+01
-9.717460290452338556e-02,-1.070298254692125528e-01,-1.077009956238588373e+01
-1.044038446397042852e-01,-9.394534315887269338e-02,-1.076881295817803874e+01
-1.021636236056774755e-01,-1.007042140481829995e-01,-1.076496848138697260e+01
-9.532933299930544668e-02,-9.399761028502806592e-02,-1.078016884042910561e+01
-9.587393717513162383e-02,-9.759581259557462141e-02,-1.077213423919872248e+01
-1.058377626060529875e-01,-9.321358709206929716e-02,-1.077773504554110495e+01
-9.589011937614012882e-02,-9.481001943305482349e-02,-1.077937624073128653e+01
-9.873865431596912101e-02,-9.448288037508564829e-02,-1.076592803166792223e+01
-1.008120514855328220e-01,-1.086915054488811344e-01,-1.077640764466944212e+01
-1.004834434825957468e-01,-8.869220623643507551e-02,-1.077799060052724833e+01
-9.357623631287179111e-02,-1.052133245178008686e-01,-1.078008570228802476e+01
-9.653506265900589633e-02,-9.992555721799981083e-02,-1.077317922716355625e+01
-9.696089740550777047e-02,-1.016376049479189997e-01,-1.076964193040785389e+01
-1.060049993961749842e-01,-9.255038286655171975e-02,-1.076971262784729788e+01
-9.887232245846795664e-02,-9.921229334532008504e-02,-1.077939098398350559e+01
-1.028641458775822193e-01,-9.975263313975893387e-02,-1.077883063919506412e+01
-9.569841260984306153e-02,-9.725156015306225810e-02,-1.077230401770481194e+01
-1.053944177084314843e-01,-9.808364167219409124e-02,-1.076700968859023355e+01
-1.010081263104361665e-01,-1.048622221904370877e-01,-1.077122487777702986e+01
-9.411298383906321896e-02,-9.467592202027551307e-02,-1.077678984143500962e+01
-1.089708623794306552e-01,-9.688167786634040157e-02,-1.077815617257999214e+01
-9.521781609397368673e-02,-1.034464226852038898e-01,-1.077284160227115350e+01
-9.707463770596011510e-02,-9.356710539038387564e-02,-1.077769774766011146e+01
-9.672522616576927079e-02,-9.414073285780664990e-02,-1.077063047842689691e+01
-9.559865946574222506e-02,-9.129251823088510576e-02,-1.077911025801178191e+01
-9.719022831333222479e-02,-1.014741271083910851e-01,-1.077334136404712339e+01
-1.007657829475546163e-01,-9.026214557836476082e-02,-1.077562473046446634e+01
-9.147181751959276852e-02,-1.033012302883303257e-01,-1.077490517244322810e+01
-1.008097120563915400e-01,-1.001962191180727907e-01,-1.077873279263539352e+01
-1.037608178678235266e-01,-8.892665612665556774e-02,-1.077982990769981519e+01
-9.938346606779201176e-02,-9.154126791867063517e-02,-1.077508157571708125e+01
-9.073566994050176471e-02,-9.073161281722788574e-02,-1.077148048942041747e+01
-1.025340278949544298e-01,-9.961372423944649113e-02,-1.077445590875040260e+01
-1.112909810606297067e-01,-9.937077183180464957e-02,-1.077532808112576568e+01
-1.038025251505641372e-01,-1.074637680629222103e-01,-1.078094598757244960e+01
-9.827980131216296211e-02,-1.034274571729112274e-01,-1.076708282929675953e+01
-9.651977456433208369e-02,-1.022354656963808117e-01,-1.077757286547463167e+01
-1.054276554612795236e-01,-8.501319213673130815e-02,-1.078202848218925958e+01
-9.551735265727007151e-02,-9.532605053980898469e-02,-1.077329122840943043e+01
-9.913135213409321467e-02,-1.061323527853109405e-01,-1.076620225383809704e+01
-9.663036513159924124e-02,-1.020470998693183695e-01,-1.077034238325087223e+01
-9.543522554669124636e-02,-8.819671608912992011e-02,-1.078156296514382007e+01
-9.430946152165405050e-02,-9.132164825576379041e-02,-1.077213750875216469e+01
-9.899429395450946856e-02,-1.002084173972112163e-01,-1.075965988384064254e+01
-9.355933984364402101e-02,-9.962237276954524767e-02,-1.077357194923089700e+01
-1.054113760301982755e-01,-9.889098930442549729e-02,-1.077049762774979946e+01
-8.744552593586378542e-02,-9.618537631970437707e-02,-1.077012070898464380e+01
-9.560578110217397840e-02,-9.587505241036423098e-02,-1.077163818206553181e+01
-9.419706754413197103e-02,-8.705941353535730232e-02,-1.077622486010405112e+01
-1.035478178618605416e-01,-9.595972235546811058e-02,-1.077917783567372823e+01
-9.846711629609708472e-02,-9.578035858433990579e-02,-1.076996761455603568e+01
-9.614221414779319796e-02,-9.813591207490220125e-02,-1.077226764338964138e+01
-9.103555422425473054e-02,-8.931025161231900822e-02,-1.077465011599706202e+01
-9.777144607475593552e-02,-1.000121823248538988e-01,-1.076837730525310022e+01
-9.612503092433730134e-02,-9.416666227398659550e-02,-1.077425285736729776e+01
-9.676343155332731150e-02,-9.540546620809572942e-02,-1.076768813695458960e+01
-9.373810801747858856e-02,-9.189604409306272037e-02,-1.077509326408255141e+01
-9.745863977206088713e-02,-9.827068095716556817e-02,-1.077707960632564621e+01
-1.023512131926221508e-01,-9.429229013271639426e-02,-1.077114174931093515e+01
-1.029987946459360731e-01,-9.809101061276200018e-02,-1.077078991796255458e+01
-1.009766077570953269e-01,-9.526993167117017713e-02,-1.078172878591367301e+01
-9.400193840856552185e-02,-9.468463107171781745e-02,-1.077767029154674994e+01
-8.934996052338349537e-02,-9.402738820211048454e-02,-1.077424891762218806e+01
-1.019363894133098469e-01,-9.714170328284134348e-02,-1.077393221081224794e+01
-1.006444742554598593e-01,-9.546548493537751479e-02,-1.077870721660192288e+01
-1.008144552736217198e-01,-9.140428997892036111e-02,-1.078078735223194329e+01
-1.010376852370113848e-01,-9.840596227248789296e-02,-1.078187125371907662e+01
-9.739347831940063649e-02,-1.003524060345943603e-01,-1.077233314131832920e+01
-9.610117626603016661e-02,-1.010070343633183293e-01,-1.078320957278815939e+01
-1.012519099398644234e-01,-9.495894467028602459e-02,-1.076909401805272637e+01
-9.719807667148347430e-02,-9.605480189465180618e-02,-1.077430280887177538e+01
-9.583490267188840561e-02,-9.545082487149327000e-02,-1.077180620397813904e+01
-9.561502131569346585e-02,-9.050962528638065163e-02,-1.077348988031181065e+01
-9.495939360216174019e-02,-9.259109748959465369e-02,-1.077099520722050663e+01
-1.023959391274918557e-01,-9.074616221216422196e-02,-1.077298474849595955e+01
-9.752523855027424304e-02,-9.684876864465015445e-02,-1.078093717402362550e+01
-9.851720554689132048e-02,-9.357690389450606938e-02,-1.077594204197371575e+01
-1.018462713521891133e-01,-9.676688027132958336e-02,-1.077550572399203865e+01
-1.031696285620244263e-01,-9.620949745080270565e-02,-1.077681111191310492e+01
-9.719301902551992500e-02,-8.814411411214280456e-02,-1.077184619099911700e+01
-9.720305412061726325e-02,-9.337067757834556503e-02,-1.077565569400999657e+01
-9.882702059033954267e-02,-9.197897678924546461e-02,-1.077838484054641022e+01
-1.067197313761098498e-01,-9.048473795254072249e-02,-1.077650136692922267e+01
-9.475914051030973062e-02,-9.048051653073617417e-02,-1.077226683296328602e+01
-9.166847435010652689e-02,-1.016579252290682606e-01,-1.077280055908942558e+01
-9.022751877283366473e-02,-8.999443489948559527e-02,-1.077490194981682059e+01
-9.578034215342612345e-02,-9.613031695278928535e-02,-1.077286328617500466e+01
-1.032314099225980775e-01,-1.068016498531119823e-01,-1.077526580483431395e+01
-9.550070877729947838e-02,-1.001140222249350953e-01,-1.077205809975455253e+01
-9.867479479922197649e-02,-9.572773099855624857e-02,-1.076385028061290150e+01
-9.538471082704051696e-02,-1.007480378335685739e-01,-1.077927630949860927e+01
-1.033659870082528354e-01,-9.122745788211741869e-02,-1.077006688763473008e+01
-9.920113401919362917e-02,-9.423588422571539669e-02,-1.077619065950537447e+01
-9.788051250659800251e-02,-9.765498453122870015e-02,-1.078047629311085487e+01
-9.824203880722212623e-02,-9.266901862858861749e-02,-1.077941874469855676e+01
-9.012380080904952573e-02,-9.773716136656897258e-02,-1.077282438475363691e+01
-9.191717035272176095e-02,-8.771675084099767039e-02,-1.077167957271909238e+01
-9.672335268503971795e-02,-1.032894917394128614e-01,-1.076784578902560519e+01
-1.041877270674681777e-01,-9.423725490761258872e-02,-1.077245142114286836e+01
-9.595735914485505058e-02,-9.761201992272480754e-02,-1.077236677136952103e+01
-1.052565835322448601e-01,-1.049997578603736603e-01,-1.077245064240789851e+01
-1.021513916514233539e-01,-9.435214513032133543e-02,-1.076830127803893156e+01
-1.073549220771016083e-01,-9.674574375211331123e-02,-1.076996037334219025e+01
-9.236421673055358883e-02,-1.019490790113634360e-01,-1.077406158821409932e+01
-1.006160650495415837e-01,-9.353929040690037167e-02,-1.077077516729257844e+01
-9.378672886062794367e-02,-9.586690820194261609e-02,-1.077678394857534450e+01
-9.790392881277006076e-02,-9.675544348694513352e-02,-1.076715847693038519e+01
-1.010942338066374152e-01,-9.746836321062407604e-02,-1.077065800731561040e+01
-1.071448564321834385e-01,-9.660265358464141527e-02,-1.077636513626857884e+01
-1.035235801242131992e-01,-9.441876132362569951e-02,-1.077789185779350767e+01
-9.484788358073920067e-02,-9.744547860620259017e-02,-1.077251768994317160e+01
-1.030870900102301146e-01,-9.798395347140832767e-02,-1.076243158268915145e+01
-1.006708159392819130e-01,-9.411204501189758542e-02,-1.077769288869341580e+01
-8.566471581997879559e-02,-9.722911611435183787e-02,-1.077601895961198153e+01
-9.921601995321631395e-02,-1.014637112570274807e-01,-1.077165323398693886e+01
-1.074925929787845930e-01,-9.249708040711386581e-02,-1.076825978885372948e+01
-9.937052435484107493e-02,-9.377722565291056467e-02,-1.078407238278527913e+01
-8.957234902085385586e-02,-9.815607890160969740e-02,-1.077496315710857111e+01
-9.944510387513655347e-02,-9.282690460909710783e-02,-1.077313921537156638e+01
-8.885678626510565281e-02,-1.006031142993161348e-01,-1.077484357346306609e+01
-9.738796938414377713e-02,-9.954004829103908769e-02,-1.076999008368346544e+01
-9.582528483172890466e-02,-1.001788116604140078e-01,-1.077343279856671288e+01
-8.543761924161882848e-02,-9.694505415260314118e-02,-1.077394701736856852e+01
-9.870615949972309788e-02,-1.021775602785505027e-01,-1.077046674296659390e+01
-9.159394269814938316e-02,-9.675178077027493662e-02,-1.077213944397826140e+01
-1.026440010059250091e-01,-8.770197449657650413e-02,-1.077858665625527124e+01
-9.325408424810666119e-02,-9.151512309480086538e-02,-1.077660207829811512e+01
-1.028620785767846574e-01,-1.048719784236964575e-01,-1.078663755566201310e+01
-9.733622608415049005e-02,-1.018746950667755169e-01,-1.077749186896546441e+01
-1.029073995528163449e-01,-8.942498047984324960e-02,-1.076918835193908741e+01
-9.771531005466414788e-02,-9.268198913999743660e-02,-1.077468885025654721e+01
-9.909895253244571656e-02,-9.505809040552451461e-02,-1.077798333448482815e+01
-1.084915736076768750e-01,-9.229301417085737647e-02,-1.077805005981951503e+01
-1.047402393066426546e-01,-9.679524080637363914e-02,-1.077713101173040400e+01
-9.099413340597765909e-02,-9.598153727451892714e-02,-1.077924628267879115e+01
-8.859048358887919306e-02,-9.808169654668320858e-02,-1.077574126924296216e+01
-9.668683989249783617e-02,-9.226611091879083348e-02,-1.077302931840628197e+01
-9.493289786451944434e-02,-1.014401012623453446e-01,-1.076873334846953689e+01
-9.706177380575883862e-02,-1.036088463352686784e-01,-1.076503475323449699e+01
-9.713885273625430528e-02,-9.906359730640156014e-02,-1.076907672290871076e+01
-1.025622810236877236e-01,-1.012336532700830599e-01,-1.076964869187128926e+01
-1.019060588978359105e-01,-1.052071503766385807e-01,-1.077295466000609458e+01
-8.947092594174693714e-02,-9.785048925981910950e-02,-1.076850677018145497e+01
-9.804259447142511796e-02,-9.909327574940325623e-02,-1.076820674726306493e+01
-9.584049537064151525e-02,-1.004000663943905025e-01,-1.078095842853108621e+01
-1.019890116058566054e-01,-9.773366234608317493e-02,-1.076802242662096099e+01
-1.041614500314924779e-01,-1.010591869513040170e-01,-1.078086475651393172e+01
-9.337402354797200155e-02,-9.708767701015121043e-02,-1.077202433813333293e+01
-9.327584667910565619e-02,-9.428036396266646635e-02,-1.078063807063828072e+01
-9.437128547983153481e-02,-9.776744832515586736e-02,-1.077394858838124847e+01
-9.655653399704862416e-02,-1.039951973112831773e-01,-1.077134066544446078e+01
-1.019888835226603341e-01,-9.361840920781062947e-02,-1.077813275721253028e+01
-9.042997904500291173e-02,-8.826338187144948388e-02,-1.077284402423297394e+01
-1.049935820129586500e-01,-1.024758578097753059e-01,-1.077316648568902835e+01
-1.006624357891201249e-01,-9.384387403814373196e-02,-1.077123980512046231e+01
-9.450757225419806340e-02,-9.873129134105668170e-02,-1.076891011153387190e+01
-9.718790655661270483e-02,-1.051869340920205675e-01,-1.076027239062646679e+01
-1.061133387876194573e-01,-9.652335310039378280e-02,-1.077641086768537626e+01
-9.819524396889446616e-02,-9.462274386604484222e-02,-1.077516678372483661e+01
-9.953427861745868521e-02,-1.080674943801447768e-01,-1.077563996404323987e+01
-9.533199129631009239e-02,-1.021097052495119478e-01,-1.077893181720953386e+01
-1.003939920802441321e-01,-9.721654608028837408e-02,-1.077776163372058527e+01
-9.534700732282394564e-02,-1.000684484300972260e-01,-1.077912349603704278e+01
-9.200064595520816846e-02,-1.028500821471416554e-01,-1.076201756046322622e+01
-9.689556012445858790e-02,-9.827891565475538327e-02,-1.077404089225728612e+01
-8.394675493303054015e-02,-9.598916562102427497e-02,-1.077897966268717589e+01
-9.713432812496657076e-02,-9.457267153351692213e-02,-1.077108059633225778e+01
-1.009872747974576851e-01,-9.640342723890589494e-02,-1.076951829022578444e+01
-9.426415906740832906e-02,-9.547483955522854948e-02,-1.077671731959405044e+01
-9.927997315621130137e-02,-1.000860269147903631e-01,-1.077254310380353708e+01
-9.705893054198030945e-02,-9.020988071400960762e-02,-1.077194734949573451e+01
-1.037871941577236667e-01,-9.942301067407782744e-02,-1.076506608324272385e+01
-9.702342676848547953e-02,-1.092397350085422547e-01,-1.077160273093072718e+01
-9.813348613688926969e-02,-9.662583030709209764e-02,-1.077454418911455214e+01
-9.467201176565166743e-02,-1.067773486167371000e-01,-1.076729041162173139e+01
-8.897041003604631848e-02,-9.768240941807182498e-02,-1.077231779156294600e+01
-9.111083580332397791e-02,-9.694415829540188601e-02,-1.077111952911374537e+01
-8.995862199123233482e-02,-9.720409283393222077e-02,-1.077914254793575921e+01
-8.731590162678543043e-02,-1.006378075649973641e-01,-1.078079097502918060e+01
-1.085430339611984096e-01,-9.802165194715198315e-02,-1.077937428716462342e+01
-9.841742789432982030e-02,-9.761583812973569085e-02,-1.077091170121765629e+01
-9.418748388084258183e-02,-1.132761025807740018e-01,-1.077565029033569921e+01
-1.079271551384960726e-01,-9.785570498436882425e-02,-1.076773290243424519e+01
-9.387502344212141081e-02,-9.862999395177153572e-02,-1.077669286606523791e+01
-1.017049865363896799e-01,-1.000049207886526126e-01,-1.077766822837573102e+01
-9.770365439133155139e-02,-1.047719826798653442e-01,-1.076617231706713618e+01
-1.009433739734770241e-01,-9.578095206153186547e-02,-1.077223210556481270e+01
-9.690305421548177367e-02,-1.062221158674597210e-01,-1.077759285404767731e+01
-9.834047067779401463e-02,-9.394501494979549949e-02,-1.076898102566410742e+01
-1.039391491064263900e-01,-9.907867424155818170e-02,-1.077101292327903792e+01
-9.712315937795763798e-02,-9.810632998883368761e-02,-1.077673221894690769e+01
-8.575202153052206844e-02,-9.314740992167087896e-02,-1.077747452550549134e+01
-9.351907344631575636e-02,-9.752985398267338679e-02,-1.076704407778757222e+01
-1.009630593675264060e-01,-9.896474750787287444e-02,-1.078227081209391969e+01
-1.026155078944344795e-01,-8.821978782036959954e-02,-1.077383009449727602e+01
-9.280429623068804645e-02,-9.414636620235004860e-02,-1.077094039361934463e+01
-1.105648359358920585e-01,-9.746100785062755678e-02,-1.077916650029865053e+01
-9.337922924230496191e-02,-9.833717347794596053e-02,-1.077721517548334340e+01
-1.040209973957312017e-01,-8.917590859353324850e-02,-1.077546296971051731e+01
-1.030711720014595156e-01,-9.296701221919197178e-02,-1.077904033090618263e+01
-9.859375410210451107e-02,-9.510314958422538822e-02,-1.077848526496801007e+01
-9.047751970906069141e-02,-1.054198110042356001e-01,-1.076161132772046614e+01
-9.898417052245035708e-02,-9.876051679658033600e-02,-1.078197352311125989e+01
-1.020907852885249989e-01,-1.001026797901057308e-01,-1.077398037514009133e+01
-9.835442807139904708e-02,-9.976103819473032541e-02,-1.078012645458878893e+01
-1.039611527633454990e-01,-9.386676324183215736e-02,-1.077783965171696146e+01
-9.210379703459380119e-02,-9.379899807723103555e-02,-1.077590474581615254e+01
-9.930514113694337286e-02,-9.666334795365978672e-02,-1.076985985038543703e+01
-8.843333486096201235e-02,-9.801984959813199449e-02,-1.077207272636059265e+01
-1.037431667176716837e-01,-9.485923167916361642e-02,-1.077232510322546943e+01
-9.545074602353936788e-02,-9.666239306286611432e-02,-1.078068436085496629e+01
-9.966049667654361399e-02,-9.050595632221392073e-02,-1.077956172992131201e+01
-1.015026881597280856e-01,-9.812858926040766983e-02,-1.077738314940239128e+01
-1.057522570091651709e-01,-9.678221072889815757e-02,-1.077279301699616809e+01
-9.586626308159924836e-02,-9.151009583226703270e-02,-1.076726961017586781e+01
-1.051832060893414383e-01,-1.143106275390083221e-01,-1.077985712072607249e+01
-9.537821558522728560e-02,-9.997210158688397963e-02,-1.077029983440991678e+01
-1.053316718893025361e-01,-1.009469499862572783e-01,-1.078470650292969424e+01
-9.048940485323045402e-02,-1.016556275209916510e-01,-1.076448965164002658e+01
-9.883810067325279891e-02,-1.040767991641143447e-01,-1.077170096725413195e+01
-9.233170454142462791e-02,-9.246867205881460772e-02,-1.077307956550401435e+01
-9.321999599048375051e-02,-1.011675054969775334e-01,-1.077098572226908324e+01
-9.766953021005755908e-02,-9.867715377830139911e-02,-1.077162899836134002e+01
-9.381377564036466610e-02,-9.303555059065420074e-02,-1.077800796622320867e+01
-9.006221806231294591e-02,-9.478457963682476728e-02,-1.076821654415458340e+01
-9.141637733127565280e-02,-1.024333026982547495e-01,-1.076681610440796533e+01
-9.955210485042415014e-02,-9.476177833838288211e-02,-1.077851458591587530e+01
-8.942638032381013125e-02,-9.647996640342787478e-02,-1.078881819788048446e+01
-1.025873103528864294e-01,-1.016328858887108610e-01,-1.077889387406994892e+01
-9.293991597284889661e-02,-1.010013036980516726e-01,-1.077637368766860959e+01
-9.535052046219892607e-02,-9.703852548761786323e-02,-1.077367003478942031e+01
-9.522035189029251501e-02,-9.608430781529070375e-02,-1.076553864471972055e+01
-1.027961947747523530e-01,-9.379694149428095817e-02,-1.077393179867625683e+01
-1.032215689381131285e-01,-9.905647714244665558e-02,-1.078218029029810232e+01
-9.732554620837474690e-02,-1.086079596163356253e-01,-1.076663316386787272e+01
-9.541941797889502697e-02,-8.935302032081213208e-02,-1.077183190621659392e+01
-9.660729361913761304e-02,-9.130064054834813314e-02,-1.078106143098566072e+01
-9.331138755797319106e-02,-9.281320151769656412e-02,-1.077690733191326977e+01
-9.238771726604720624e-02,-9.656627902677478170e-02,-1.077002165364880604e+01
-9.831801460061449782e-02,-9.591081529344915035e-02,-1.077718648790381550e+01
-1.021926952430539937e-01,-9.902619383458770297e-02,-1.077605344181059266e+01
-9.542122655755917726e-02,-1.046034759301700950e-01,-1.076364657032363148e+01
-9.650301430598848262e-02,-9.788722661622312193e-02,-1.078808542061879017e+01
-1.013291113709414021e-01,-1.029325439539781617e-01,-1.077344792349794389e+01
-1.019007902673552124e-01,-9.494646937688012989e-02,-1.076306220328778629e+01
-9.718182230448742243e-02,-9.596848005002975301e-02,-1.077934079251729038e+01
-9.213570155191339039e-02,-1.089191049694020474e-01,-1.078042554638604322e+01
-9.813899154200793340e-02,-1.050830448212328877e-01,-1.077312118870677260e+01
-9.980854299264386997e-02,-9.179762015804578124e-02,-1.078095264042439005e+01
-9.343460455359582639e-02,-9.269473497876991319e-02,-1.078072649857874410e+01
-1.006694865481482237e-01,-9.263624022186019158e-02,-1.077750095499540706e+01
-9.890260673415540715e-02,-9.323229449168322913e-02,-1.077325685396226973e+01
-9.947706820728594024e-02,-9.082256980928876677e-02,-1.077470646981032587e+01
-9.957007418481501893e-02,-9.191041560802265531e-02,-1.077251939305883077e+01
-9.049262202241378783e-02,-9.834116103042700452e-02,-1.078530398478149799e+01
-9.518213308982198528e-02,-9.418637000270690951e-02,-1.077706652353328920e+01
-1.023849757059045046e-01,-9.967233888807611186e-02,-1.077340309210668501e+01
-1.049544531837917072e-01,-1.009166968614144261e-01,-1.077779529081477250e+01
-9.703289244394396051e-02,-1.034190100374463156e-01,-1.077516281009765997e+01
-9.629447067574133101e-02,-9.957782022127401045e-02,-1.077334450113502839e+01
-9.169397207920461368e-02,-9.553129905951691925e-02,-1.077483141464081839e+01
-1.057100154881262938e-01,-9.138716713781991352e-02,-1.077457735920486392e+01
-9.804922061972157210e-02,-9.571192890706807510e-02,-1.077294365934315401e+01
-9.954621109255393230e-02,-1.006991577434902946e-01,-1.077827764344596240e+01
-9.488679702400541760e-02,-1.016658347755908520e-01,-1.076654849629038324e+01
-1.035229506055888038e-01,-1.008289895235504052e-01,-1.077313617104449683e+01
-9.595916899656004029e-02,-9.879851116724058802e-02,-1.077941396665459806e+01
-9.580525286944442664e-02,-9.353440894867598443e-02,-1.077259212485773965e+01
-8.616283310212619062e-02,-1.000836224108331146e-01,-1.076273977823212924e+01
-9.068397601588160106e-02,-9.653069992014924605e-02,-1.076580726166893065e+01
-8.938545952336245104e-02,-9.513746404690608116e-02,-1.076825440888336338e+01
-9.797237812295810089e-02,-9.491698152384119014e-02,-1.077000143831200418e+01
-8.901991153220774333e-02,-1.034512841460744625e-01,-1.076956770698997623e+01
-9.961511814604595560e-02,-9.691746973037294877e-02,-1.077027164652021618e+01
-9.229869516988901956e-02,-9.712688064111119068e-02,-1.077243267489727074e+01
-1.011020777842187440e-01,-9.333586304829723235e-02,-1.077534030147602273e+01
-9.682671652659796679e-02,-1.012834930944128825e-01,-1.077268919465712571e+01
-9.771501702203673478e-02,-1.045741196383050409e-01,-1.077443246377598030e+01
-9.373465781558916465e-02,-9.111965227251564436e-02,-1.077112352199818446e+01
-9.665266629922142361e-02,-8.732484376614789434e-02,-1.077305574796938537e+01
-1.004116625767619009e-01,-8.875078935155455984e-02,-1.077886963950750498e+01
-1.044539410991530415e-01,-9.293830406382418141e-02,-1.076782879036186635e+01
-9.290220154384333517e-02,-9.646824444728181736e-02,-1.077394697370466048e+01
-9.715927522632489266e-02,-9.548904918135490971e-02,-1.077402175154017883e+01
-9.135042800753652437e-02,-9.278556790007842781e-02,-1.077233868200320011e+01
-9.269480745547878375e-02,-9.807126827905304767e-02,-1.077688040730046382e+01
-9.214182000492006364e-02,-9.371616074190267098e-02,-1.076832167184448252e+01
-9.460364143114483038e-02,-9.827441865315547642e-02,-1.076770671723548389e+01
-1.030085073057530054e-01,-9.494437323139102991e-02,-1.077155654947699759e+01
-9.356297271676237981e-02,-1.038984969742203918e-01,-1.077091616448770850e+01
-9.205602785464159221e-02,-1.058924421652630843e-01,-1.076791865859812525e+01
-1.029343442319635149e-01,-9.715506929948118653e-02,-1.076886158175218888e+01
-9.765890368049601200e-02,-9.603325237234876244e-02,-1.077641290496164750e+01
-8.655261875187142406e-02,-9.585884759261711907e-02,-1.078147465566648222e+01
-9.997170997058389685e-02,-9.340054909487044421e-02,-1.078081283397721180e+01
-9.158181588032345000e-02,-1.001448155398452500e-01,-1.077743465720318738e+01
-8.713739270830649086e-02,-1.031397229406980087e-01,-1.076852593175570227e+01
-8.186787968148033501e-02,-1.004357682841196808e-01,-1.077280670035196231e+01
-9.505604912277344776e-02,-9.735733804648484535e-02,-1.077048064052777576e+01
-9.788838835491391055e-02,-9.939340576223151813e-02,-1.078102382373302426e+01
-1.031628509884714162e-01,-8.903423967725852817e-02,-1.077190014527996276e+01
-1.021567464860013291e-01,-9.365764100330010999e-02,-1.077891938104842140e+01
-1.020086148174310092e-01,-9.789377040531256624e-02,-1.076644599502794897e+01
-1.025395700063052584e-01,-9.853290803391968888e-02,-1.078151945366380282e+01
-9.458521565857512525e-02,-9.999771597111332955e-02,-1.077875716273772255e+01
-9.663072502945499465e-02,-9.626744711581629310e-02,-1.078393920606971967e+01
-9.748046242075962542e-02,-9.509212502962698099e-02,-1.077751484250309488e+01
-1.006561092246154449e-01,-1.010512477990088559e-01,-1.077630022115214814e+01
-9.481207568322366774e-02,-9.726148790241891107e-02,-1.077725701295722871e+01
-1.036024130959233153e-01,-9.798537383870385697e-02,-1.077100753625944840e+01
-1.029890856168759750e-01,-1.036372821730070226e-01,-1.077403313760978776e+01
-9.165335581013842048e-02,-9.932626374824266025e-02,-1.077934944404140438e+01
-9.912027344441222410e-02,-1.023323119261358438e-01,-1.077569437483830406e+01
-1.063463411418632820e-01,-1.003307972287185018e-01,-1.078660574509825487e+01
-1.058603888134385940e-01,-9.948460533684388984e-02,-1.077258523373400223e+01
-9.758353904624481046e-02,-1.006258660192350107e-01,-1.077489756634935958e+01
-9.197907383245695900e-02,-1.008676248211256704e-01,-1.077044746273653253e+01
-9.917429582582147629e-02,-8.546729141905849703e-02,-1.078293345223065636e+01
-9.939819926591735022e-02,-9.080594867141414395e-02,-1.077467752749684493e+01
-9.934156511614965213e-02,-9.954644975441176435e-02,-1.077690147797553522e+01
-1.032308339902926614e-01,-9.884055869769112213e-02,-1.078170238493713384e+01
-1.038424065008506370e-01,-9.285406150329249264e-02,-1.076517029427765060e+01
-9.868447686337657176e-02,-1.073330962158741547e-01,-1.077392535288879394e+01
-1.028728826826256354e-01,-9.906919879880557445e-02,-1.077690424423324878e+01
-9.695884713924209086e-02,-9.856560103119493821e-02,-1.077382509630833773e+01
-1.030093955264102107e-01,-9.546332939061659417e-02,-1.076525348600520715e+01
-1.095247890907409677e-01,-9.894441000759091054e-02,-1.077933296009975273e+01
-1.007630401892619654e-01,-1.038146656725252581e-01,-1.077343255284537449e+01
-9.510942746590345109e-02,-1.044625056834335153e-01,-1.077904529613744167e+01
-1.048184341775708489e-01,-1.017323076049458097e-01,-1.077649639855988362e+01
-9.448310364727784127e-02,-9.519213612427042392e-02,-1.077493614557296553e+01
-9.595251990952641252e-02,-9.902507608283099561e-02,-1.076428927298910487e+01
-9.997383251492400480e-02,-1.005322821850914705e-01,-1.078000365082147383e+01
-9.353563755902143118e-02,-8.788710870153751409e-02,-1.077476267682573940e+01
-9.479352298477841665e-02,-9.221466266862356209e-02,-1.077823410230535117e+01
-8.812993149729117515e-02,-1.006370650966807861e-01,-1.076879661982120950e+01
-9.363557784020667962e-02,-1.001224466098785126e-01,-1.077248902766599414e+01
-9.861915688026658133e-02,-9.750530319093157761e-02,-1.077509338993851351e+01
-9.259758511399536485e-02,-9.867874941610460526e-02,-1.077747606964046945e+01
-8.517440377426206688e-02,-9.282309272551998724e-02,-1.076784433393183882e+01
-9.530629247261380999e-02,-1.035822727224664369e-01,-1.078092654655448790e+01
-9.524626896251343899e-02,-9.838111048941186598e-02,-1.076489300749755884e+01
-9.532211312979536888e-02,-1.014741685780608110e-01,-1.077947132614243486e+01
-1.001508494426493479e-01,-1.117392981318608702e-01,-1.077680892504814025e+01
-9.454359772497469838e-02,-1.026375629070690049e-01,-1.077522077464458228e+01
-9.623352618421347759e-02,-9.377322650363366374e-02,-1.076954629178163003e+01
-9.536084934158128856e-02,-1.063447002829745192e-01,-1.076899444124266481e+01
-9.816803367256017598e-02,-8.866279485854257347e-02,-1.077601958001823412e+01
-9.824380999287911365e-02,-9.426465960268759492e-02,-1.077798279551029204e+01
-9.577463685049462938e-02,-9.627878028520413245e-02,-1.077610208659406155e+01
-9.092959122692888252e-02,-1.066634732654978129e-01,-1.076792247898610100e+01
-9.591130144744344777e-02,-9.800144138287235351e-02,-1.077726270789556295e+01
-9.420192658474267622e-02,-9.861242013149169872e-02,-1.077085911740702429e+01
-9.905737001289222077e-02,-9.145324378059055404e-02,-1.077837827130803738e+01
-1.033574679377287781e-01,-9.430630687913020560e-02,-1.077442954485496607e+01
-1.005635771059422839e-01,-1.071089812817749287e-01,-1.077695189601885772e+01
-9.314169171154269844e-02,-9.086162012671450405e-02,-1.077090008159702350e+01
-9.577481981188724902e-02,-9.731506879587228931e-02,-1.077277335224007970e+01
-9.709349067316448700e-02,-9.628461779336007498e-02,-1.078472956901567947e+01
-1.013493526537888462e-01,-1.039679449602472772e-01,-1.076907500106605475e+01
-9.800846692550416184e-02,-9.158401203771052157e-02,-1.077084322094467161e+01
-9.781743838130119162e-02,-9.823749789733114690e-02,-1.077425984302345974e+01
-9.305998355219287366e-02,-9.373927629226416758e-02,-1.077272041335483443e+01
-1.015354138908683007e-01,-9.464676894877095681e-02,-1.077370231885028495e+01
-9.373103898230492059e-02,-9.667627075747232956e-02,-1.077912204400858087e+01
-9.814660991754046993e-02,-9.016273253023956991e-02,-1.077239014347791013e+01
-9.248156356474974971e-02,-9.897044901918043702e-02,-1.077267172271058904e+01
-8.765741519627753831e-02,-1.023439929959753109e-01,-1.077919659796162932e+01
-1.038027379646120490e-01,-9.150022926050141447e-02,-1.076884401057840179e+01
-1.030236503350890481e-01,-9.064982594517990988e-02,-1.078053098585951197e+01
-9.332967607331543736e-02,-9.834393180932465839e-02,-1.077325876004823080e+01
-1.119244468225445710e-01,-1.008427127055534500e-01,-1.076768685787059709e+01
-1.063339237420270200e-01,-1.060198128458188782e-01,-1.077484419970013541e+01
-9.497656623860353808e-02,-9.953895735725015737e-02,-1.077435732718616634e+01
-1.038011449952434828e-01,-8.824458201851226313e-02,-1.077410963513811915e+01
-9.850925378055085113e-02,-1.041775281671928205e-01,-1.077820426497896555e+01
-8.879358486468652556e-02,-1.001977871109497320e-01,-1.076777862578758160e+01
-9.208298191755311113e-02,-9.574124964366098611e-02,-1.077411587343042321e+01
-1.007358394554592196e-01,-1.026684351326365013e-01,-1.077677707340960289e+01
-9.051235681493370600e-02,-9.323372301024290820e-02,-1.077315015636153106e+01
-1.043636812958553817e-01,-1.025626880954161185e-01,-1.078000055453874495e+01
-9.975911584419408507e-02,-9.827064596179273248e-02,-1.077335511891977582e+01
-8.618896021413724462e-02,-9.689877050368093936e-02,-1.076594040623893633e+01
-9.639134760118230061e-02,-1.040606193759660569e-01,-1.077321116704267645e+01
-9.389202617243126714e-02,-9.301078808867284387e-02,-1.077485079480844377e+01
-9.707444766698060390e-02,-1.087669061005590160e-01,-1.076781161305942192e+01
-9.550538111319308021e-02,-9.304278053971996865e-02,-1.078036461780799726e+01
-9.578658874530603107e-02,-1.030673072483532654e-01,-1.076965035791790370e+01
-9.654035405095634514e-02,-9.688116416812392329e-02,-1.077479031072691917e+01
-9.873444209344445222e-02,-9.973102876754127988e-02,-1.077303949897152613e+01
-8.700482804002593329e-02,-9.168789894875092883e-02,-1.077445663008686338e+01
-1.070161561639858400e-01,-8.373811177027566666e-02,-1.076924805272771479e+01
-8.967672051955827284e-02,-9.983926612131897860e-02,-1.077077625431081564e+01
-8.622540191090018180e-02,-9.575796816990574112e-02,-1.077989233632870025e+01
-9.664916937257275742e-02,-1.037335302163649442e-01,-1.077529792626739180e+01
-9.759499630027933248e-02,-9.851921805856529712e-02,-1.077448181083093282e+01
-9.502481200624647573e-02,-8.789926465486873342e-02,-1.078015915134811920e+01
-8.879436644760525799e-02,-9.345753154243686966e-02,-1.077083327780090904e+01
-9.869586465752680504e-02,-1.053432530335008110e-01,-1.077909233020820245e+01
-9.374667123381197342e-02,-9.714962265672422159e-02,-1.077416787816339117e+01
-8.714090948679706350e-02,-9.291998062507897393e-02,-1.077628407082728224e+01
-9.253414024502142066e-02,-9.974799933984461464e-02,-1.078674814148076955e+01
-9.572193800940607955e-02,-1.035938407701180453e-01,-1.077916739098455778e+01
-9.712119671687835520e-02,-9.681742486393647706e-02,-1.077724885032667856e+01
-9.751296669883108281e-02,-9.934411429891716605e-02,-1.077659429781002842e+01
-9.282735418962567708e-02,-9.509720358340501001e-02,-1.077566629594165448e+01
-1.056819999788760345e-01,-1.070790292655474929e-01,-1.077816467615538087e+01
-8.839319102114243099e-02,-9.161039120998318297e-02,-1.077437488216136607e+01
-9.786295820283213986e-02,-9.208140119917654354e-02,-1.077051677064934765e+01
-9.166723382092389905e-02,-9.869228564193935349e-02,-1.077192408192038187e+01
-1.008982202385109300e-01,-9.307360948840752435e-02,-1.077688955364622636e+01
-9.395344865124984068e-02,-1.003091350445754620e-01,-1.077288991857367684e+01
-1.037644096142617683e-01,-1.041697971929088917e-01,-1.078055749133869945e+01
-1.044064101752166240e-01,-1.011997070580429037e-01,-1.077993533100760182e+01
-8.973097471890822963e-02,-9.778097600298801817e-02,-1.076949122555482141e+01
-9.621079626188394629e-02,-1.061429125861782369e-01,-1.077342293269017404e+01
-9.478170804076076206e-02,-1.006830578871535098e-01,-1.076448321563612254e+01
-9.245797587305067122e-02,-9.876259785089755439e-02,-1.077167513504186047e+01
-1.034233263686562682e-01,-9.344883546214788339e-02,-1.077144431183270967e+01
-1.049777152287917070e-01,-9.179310997539860684e-02,-1.077522346552433952e+01
-1.007375959162385148e-01,-1.035559571248118316e-01,-1.076317098204884992e+01
-1.059589416011795654e-01,-9.393817655234790176e-02,-1.076994639075932447e+01
-1.047951556853105870e-01,-9.912443000160053863e-02,-1.078233090974525332e+01
-9.808020222375155028e-02,-8.489270371025926798e-02,-1.077865599659377871e+01
-1.091545245574438161e-01,-8.965398035833541113e-02,-1.077087444163101537e+01
-8.970173682344262378e-02,-1.050995921810680411e-01,-1.077114235947093057e+01
-1.013289992855709448e-01,-1.008855436610757994e-01,-1.077086190405346677e+01
-9.252675178714610260e-02,-9.881960290929989177e-02,-1.076970789518257199e+01
-9.751634706494002880e-02,-1.001388333493292426e-01,-1.077258533006075680e+01
-9.293804847623204912e-02,-9.987053227601208616e-02,-1.078167543423245078e+01
-1.072735068277905629e-01,-9.760610984746241614e-02,-1.077162533220007745e+01
-1.020358389144409850e-01,-9.937600907434583630e-02,-1.077738153202095361e+01
-9.408158380614105309e-02,-9.163217197145748227e-02,-1.076684213106774912e+01
-8.888068002176283122e-02,-8.839373221767872491e-02,-1.077256573420837249e+01
-9.183047092322674243e-02,-9.677804664896115516e-02,-1.077428023391073530e+01
-9.442651968711246457e-02,-9.396148122422716409e-02,-1.077870762077845868e+01
-9.934016647208490647e-02,-9.857407271264212456e-02,-1.077439055896520870e+01
-1.046179598892883339e-01,-1.047850324010783929e-01,-1.077802973854445412e+01
-1.010977049290894547e-01,-8.982024105874415743e-02,-1.078500024641404487e+01
-8.915623918794207681e-02,-1.007589280778388718e-01,-1.076929149155951038e+01
-1.010244776414961909e-01,-9.921953568443817040e-02,-1.077647231061948219e+01
-9.814578380746276365e-02,-9.425312777813728282e-02,-1.077713390752601619e+01
-1.015244539769387666e-01,-9.617007495296100994e-02,-1.076914985246705214e+01
-9.218330284123919804e-02,-9.763517497405736767e-02,-1.077577150465099187e+01
-9.820150578440488276e-02,-9.158636813673291799e-02,-1.077634421485421434e+01
-1.016088822817746845e-01,-9.423105209708326768e-02,-1.077166361267143202e+01
-9.335091818716415024e-02,-9.854895094282227486e-02,-1.077669218235561921e+01
-1.020584432109263445e-01,-9.593778018183392320e-02,-1.076883565755194283e+01
-9.482587376162271431e-02,-1.013879983412349639e-01,-1.077943331343193378e+01
-1.093730313006121974e-01,-1.006846217704995550e-01,-1.077493279806095217e+01
-9.740434695394122044e-02,-9.566320470828741651e-02,-1.077946933297815768e+01
-9.698480347871148155e-02,-9.739861846545685986e-02,-1.077165435219358436e+01
-1.003524355723974248e-01,-1.014857695472606153e-01,-1.076974540126032664e+01
-1.023602273531620532e-01,-9.514403759791827120e-02,-1.077234636129627354e+01
-9.571488083942501779e-02,-9.923373179514949349e-02,-1.077234680894781782e+01
-1.051854849160843569e-01,-8.962231126747957632e-02,-1.077587545079056497e+01
-1.048335211850172505e-01,-8.091763052608715034e-02,-1.077479710406220725e+01
-1.036723029559502712e-01,-9.310771798786117437e-02,-1.077495635391305306e+01
-8.631098327905002698e-02,-9.824535891111489672e-02,-1.078138836187002703e+01
-9.561704910502266674e-02,-1.084855293573732671e-01,-1.078525677063332999e+01
-9.567124705672069851e-02,-9.923647439992684671e-02,-1.077142723400369739e+01
-8.798673415251198615e-02,-1.000763018153442568e-01,-1.077061686494412029e+01
-9.752312570355291255e-02,-9.268029321930483511e-02,-1.077775576621119136e+01
-9.714466280980137147e-02,-9.597954028715960373e-02,-1.077603111023479165e+01
-9.406067918105770476e-02,-8.992999052093615664e-02,-1.077868722404663693e+01
-1.006314317956756993e-01,-9.560666623845943957e-02,-1.077414685622519741e+01
-9.779884263510220388e-02,-9.892312369398846561e-02,-1.077196829450213755e+01
-9.274563909225490288e-02,-9.901900688306816689e-02,-1.076660968582794808e+01
-9.656093149147865207e-02,-9.482017214977758734e-02,-1.077480979433920005e+01
-1.021882155795433705e-01,-9.442010903735123528e-02,-1.076777790586593042e+01
-9.809150962908649851e-02,-9.050353529626106730e-02,-1.077025949275161842e+01
-8.904309889545575230e-02,-1.020134169279337533e-01,-1.077820658546305843e+01
-9.845784157856814212e-02,-9.466838622801089509e-02,-1.078018147615870426e+01
-1.055185713692242538e-01,-1.073856795526707403e-01,-1.077068109683212782e+01
-1.091448534697988110e-01,-1.075489255821287793e-01,-1.077426022559189001e+01
-1.008899205787509301e-01,-9.144278257973857682e-02,-1.076975296354086531e+01
-1.020934793393908635e-01,-9.127893872861639335e-02,-1.077035673890584988e+01
-9.591388370827096110e-02,-8.783774746449155013e-02,-1.076851205968389991e+01
-1.008906816889824642e-01,-1.000671914829590475e-01,-1.077209103916325716e+01
-9.438202143030446911e-02,-9.526466735537993114e-02,-1.076950915230217731e+01
-8.863192810875702987e-02,-1.052547367927263444e-01,-1.077996598338834389e+01
-9.712388209871312961e-02,-1.015724648265786401e-01,-1.077464343567481642e+01
-9.737371055852453439e-02,-9.697443063760907700e-02,-1.076728656636388592e+01
-9.153727789772282686e-02,-8.926701673910943102e-02,-1.077482375177756602e+01
-9.181305973826513200e-02,-9.980722108952364002e-02,-1.077733577216880967e+01
-9.185332237591893600e-02,-1.056199231891409851e-01,-1.077483096552685460e+01
-9.423005229894312884e-02,-9.731970964135606972e-02,-1.077870540902705798e+01
-9.607536271127826988e-02,-9.798790571834845031e-02,-1.078120240571621125e+01
-8.446223099324953743e-02,-9.417943770434238082e-02,-1.077604376939217090e+01
-9.065438428810296267e-02,-9.003659488993703830e-02,-1.077289050124782399e+01
-9.919933830816182740e-02,-1.005750161129577991e-01,-1.077195059301060098e+01
-9.726958148012877781e-02,-9.294037958169952540e-02,-1.077545252515581353e+01
-1.049970399863549286e-01,-1.019360836518100055e-01,-1.077306348611019970e+01
-9.642760362292929210e-02,-9.624157473824038189e-02,-1.077780396525033701e+01
-1.029728117427643613e-01,-1.015724735191789047e-01,-1.077088478203427613e+01
-9.200552705122126695e-02,-9.607009410344335976e-02,-1.077889037866387234e+01
-9.070067602632427006e-02,-9.863807296894337717e-02,-1.077380974634904476e+01
-9.611883072610050149e-02,-9.774770309266962720e-02,-1.078000164813401796e+01
-1.008435073416556055e-01,-9.740583091258425696e-02,-1.078470695589321515e+01
-9.105077686214076149e-02,-9.482403580019189981e-02,-1.076398284034653408e+01
-1.004076029447936863e-01,-9.858327172335748512e-02,-1.077477610571624567e+01
-8.754305044352624077e-02,-9.626629156617499961e-02,-1.077305094785648443e+01
-9.767470129555277936e-02,-9.860606912286809522e-02,-1.077728402555700171e+01
-1.037931376919322413e-01,-9.859704966742763310e-02,-1.077430198543007123e+01
-1.041620882321083325e-01,-9.069197516970868567e-02,-1.077333404780583237e+01
-9.902967912660111394e-02,-9.649645660761163590e-02,-1.077085233118874008e+01
-1.011215986335342043e-01,-9.740929449162606668e-02,-1.077313761941113945e+01
-9.950125391664145502e-02,-9.887591230112056928e-02,-1.077328537513095874e+01
-9.989408011987449543e-02,-9.200005966010783853e-02,-1.077715228845459627e+01
-1.020023695600615482e-01,-9.840658076165811896e-02,-1.078171668730858102e+01
-1.060598262269650399e-01,-9.730066816864253731e-02,-1.077604473135326479e+01
-9.624580792136151752e-02,-9.536853908400497182e-02,-1.076475667222591781e+01
-9.445839471474476445e-02,-9.416042511660704939e-02,-1.077761060490177059e+01
-9.663430648298643177e-02,-9.687968333921687103e-02,-1.077075792526228071e+01
-1.051212497340795887e-01,-1.034327355269331200e-01,-1.077510761548763796e+01
-9.490180640135983947e-02,-9.785166830946320782e-02,-1.077370774222024785e+01
-8.800658408097396246e-02,-8.823498459039345876e-02,-1.077334476009430908e+01
-8.536633995207898451e-02,-1.053169569530652966e-01,-1.077338046273428063e+01
-9.603967752291585336e-02,-1.019795369031324395e-01,-1.077913072609356249e+01
-9.432502172055796941e-02,-9.635813421125227762e-02,-1.077666993041888333e+01
-1.010753007040088164e-01,-1.010452632319488731e-01,-1.077982915446292722e+01
-1.006610180030426405e-01,-1.001355905128909901e-01,-1.077711209051339658e+01
-1.029022825463533491e-01,-1.010742318169961934e-01,-1.078154104196818963e+01
-9.958776689162814055e-02,-1.016385524786997674e-01,-1.076861060292391947e+01
-9.385061247947737439e-02,-9.555131541185422905e-02,-1.076987156019726122e+01
-1.026915757745919255e-01,-1.017503553138259659e-01,-1.078011777283036565e+01
-9.725199823597999171e-02,-9.801181315952428585e-02,-1.078084658049323075e+01
-9.384451491812703661e-02,-1.013145132331815523e-01,-1.077924528315489816e+01
-1.117155482537021127e-01,-1.039494068504059621e-01,-1.078077267439173603e+01
-8.962702069476836952e-02,-1.044748009720000703e-01,-1.077684234128317797e+01
-9.389610045604980526e-02,-1.020196645776734745e-01,-1.077377596790161896e+01
-9.203214637938578191e-02,-9.652295686056309998e-02,-1.077244547177191869e+01
-9.931398254589722530e-02,-9.660186255092959029e-02,-1.077705495996954710e+01
-8.984292535434147686e-02,-9.084681391616281076e-02,-1.077641706827999712e+01
-1.000885319094027837e-01,-1.006610979033306652e-01,-1.077972405969159375e+01
-1.057108429172842201e-01,-9.643915027156949038e-02,-1.078100328060726554e+01
-9.726497454438247370e-02,-9.705952451137044024e-02,-1.077634948996478492e+01
-9.834580093616887564e-02,-1.147508930112046688e-01,-1.077416578506863765e+01
-9.512913976285827800e-02,-9.267412663185596589e-02,-1.076591772224034038e+01
-1.013567218381754426e-01,-9.115043122853629110e-02,-1.076909479824647420e+01
-9.985149765477246975e-02,-9.577047164411775504e-02,-1.076481440215966323e+01
-9.925955985774087553e-02,-1.040059795750275101e-01,-1.077567848136084194e+01
