gyro_x (deg/s),gyro_y (deg/s),gyro_z (deg/s)
5.492171680909496700e-01,4.447574900133418607e-01,4.095198211623788942e-01
4.926059291140542085e-01,4.875875319302444000e-01,5.156208299771484205e-01
4.960361421311744179e-01,5.310198468041188447e-01,4.235904263430291805e-01
5.183527066180452225e-01,5.042021904003460842e-01,5.327767699696777104e-01
4.924677153338242186e-01,4.725536961037963279e-01,5.323984554377522160e-01
5.985615958311480966e-01,5.263985638527161059e-01,4.556282882441458626e-01
5.159062047239931781e-01,5.153522686014616605e-01,5.236066964620921249e-01
4.974520069679284062e-01,4.906942324910946729e-01,5.035879273794504618e-01
4.514875104796944871e-01,4.625422949212892321e-01,5.166052445526798653e-01
5.137963580158507737e-01,4.781075366780973002e-01,5.225306041732576956e-01
4.418191976012084132e-01,4.723679891097428141e-01,4.983639430448001950e-01
5.361863588465917152e-01,4.744888372050813374e-01,4.746860434548544339e-01
4.911298239416869715e-01,4.932406925529725372e-01,4.665326970902125558e-01
4.637414015777291953e-01,4.494701305131542091e-01,5.487825329887913162e-01
5.170756910810038187e-01,4.250844393133226262e-01,4.847620350282910162e-01
4.600790177226876665e-01,5.156782829723175476e-01,4.860682928784434975e-01
4.972206243746298826e-01,5.143680525095910561e-01,5.171389234204369911e-01
4.855528712467000463e-01,4.990015528000960598e-01,4.975512957885086518e-01
5.239513798129170619e-01,4.798411062212597500e-01,4.567559832661262642e-01
5.630497628906768748e-01,5.354681060192528763e-01,4.141271174242629471e-01
5.138405824493343932e-01,4.294985299750025409e-01,4.945433802766400766e-01
5.200231503090100293e-01,5.015101266567552063e-01,4.789337977173385164e-01
5.135301010913435604e-01,5.096728315309141388e-01,4.393027511446345179e-01
5.064558244236816442e-01,5.175225692522943399e-01,4.873329584926609503e-01
4.876351037546494682e-01,4.658600196444295238e-01,4.893697082401933796e-01
5.064400337588319534e-01,4.949491285244449479e-01,4.306693349237197821e-01
5.035853913680543581e-01,5.311812208028965365e-01,4.950276995632018062e-01
4.623755738832772133e-01,5.048104391957354276e-01,4.907830857099166888e-01
4.316822294168407015e-01,5.324066626365480115e-01,4.141389314844338143e-01
4.089333677627737806e-01,4.882785866602805114e-01,4.548933979290544771e-01
5.501879585917558435e-01,5.400190980049528466e-01,5.691644181552200088e-01
4.594350704010618514e-01,5.364949349501785258e-01,4.751614392783569674e-01
4.465077001544885404e-01,5.464390931929721251e-01,5.169997962159658123e-01
5.004956019773888487e-01,5.152859468736796789e-01,5.319817324592124308e-01
4.701006958729847529e-01,4.777124327604411191e-01,5.598136002377741560e-01
5.208106300099427655e-01,5.054895973520987518e-01,4.698672463379822695e-01
4.736777524622836633e-01,4.736049765020584612e-01,5.343242872191970028e-01
5.363944082549506609e-01,4.548570493434708761e-01,4.739620746921932026e-01
5.053152240841465304e-01,4.771721502947687821e-01,5.196361971922297540e-01
5.247974036811803300e-01,4.931925519200738850e-01,4.602744254688664882e-01
4.594559820601976652e-01,4.774993670794730471e-01,5.053854532638951680e-01
4.954138804812071029e-01,4.622432724902776902e-01,4.890826772054547300e-01
5.036755930737742970e-01,4.899528985625218880e-01,5.413900481252534869e-01
5.783498894769576459e-01,5.058402528100727213e-01,4.144193886784222625e-01
5.641965491108577035e-01,4.699269502351378636e-01,5.468478759190276151e-01
5.241130149019546103e-01,5.215864691108903495e-01,4.534135616329392215e-01
5.269131995684824821e-01,4.264606561843630184e-01,4.627806647987381394e-01
4.276446461943264610e-01,5.036900717493413282e-01,4.610457275126022547e-01
5.602725186803232393e-01,5.191227579593621355e-01,5.726478009615496578e-01
5.947993481726366882e-01,5.023649806727842337e-01,5.096012471133468669e-01
4.648243514840305068e-01,5.448426724616869388e-01,5.019526541567145284e-01
4.628211753150056063e-01,4.954111072466728660e-01,4.550806152537236748e-01
4.875075795549607127e-01,4.689230735633904135e-01,4.421439917924823160e-01
4.695877297237189829e-01,4.880940540406327743e-01,5.317690582857796944e-01
4.679919669000864313e-01,5.297729265886590433e-01,4.627194421133623004e-01
4.859643904417147442e-01,4.916915952475258145e-01,4.682470866685065625e-01
5.373356865356117007e-01,4.151224103238866925e-01,4.900767881784900970e-01
4.722965444725560347e-01,5.442833339164753204e-01,4.738026599159654850e-01
4.753712256321636076e-01,4.943894020970503456e-01,4.543240917906472554e-01
4.630584036136236037e-01,5.068937505313704239e-01,4.754416687137622555e-01
4.387012428608658143e-01,5.234164602280205747e-01,4.979789230594016125e-01
4.481077560299586149e-01,5.604421192682096375e-01,5.055442038898598778e-01
4.678490170487316635e-01,4.251231934136566748e-01,3.715794436722195115e-01
5.398489829158232833e-01,4.935063716998174255e-01,4.291105680014075108e-01
5.574433512612976260e-01,4.975823300760380818e-01,5.540371122815618277e-01
5.033894462742519726e-01,5.484677243012496817e-01,5.300768637032871045e-01
5.625817329533643329e-01,6.124806590820877084e-01,4.744380111559736712e-01
5.109727550905214244e-01,5.807179576144106958e-01,4.938075909134703179e-01
4.961905487381300106e-01,5.359587894305732902e-01,5.152162349740733172e-01
4.502350076707827831e-01,5.217573930609311628e-01,4.997889363798295737e-01
5.244533901432318901e-01,5.670417090454863418e-01,4.019638554237064954e-01
4.535557275153692669e-01,4.871968267075635350e-01,5.663799733801297975e-01
5.137897982868890878e-01,5.077800316120368862e-01,5.647148879658001608e-01
4.033611164043005015e-01,4.962513444284838426e-01,5.453400904170591090e-01
4.288898708839010698e-01,4.930404633906229073e-01,4.590415668296348173e-01
5.352434999731827681e-01,4.831183040441635601e-01,4.567850444956068068e-01
4.633937038638040740e-01,4.533790370067246056e-01,5.257020157615768241e-01
5.296582346496140348e-01,5.289118026360741798e-01,4.577595437929257161e-01
4.682874670840085907e-01,5.503891192595192772e-01,4.807163746503158586e-01
4.745869801791796627e-01,4.228642033676735523e-01,5.521286379189047633e-01
5.279923995553952309e-01,4.182614007647796339e-01,4.504047292909656997e-01
4.689902248064858892e-01,5.786067398682117613e-01,4.851072172525762727e-01
4.926934920451535027e-01,4.772753804686640233e-01,4.919491381249878614e-01
4.773637335474421595e-01,4.134959350848716464e-01,5.573278529146867832e-01
5.129605518105851969e-01,4.589737053425589908e-01,4.744973819088693090e-01
5.200062568697125798e-01,5.332505300459120523e-01,5.051017313538228581e-01
5.180171514420985890e-01,4.371812240440286490e-01,4.573346676391566445e-01
4.365014860891623938e-01,4.292856808264446933e-01,5.546280629285331720e-01
4.971424841478972456e-01,5.151979355239070246e-01,5.977385487425564969e-01
5.235575643176434424e-01,4.975802397105264507e-01,4.841102414072537274e-01
5.287898615685532322e-01,5.667334487744134508e-01,4.951414062373706848e-01
5.385631136270664365e-01,4.326366574332184411e-01,4.475859962705288631e-01
4.634982502442693275e-01,4.965852331042541756e-01,5.031767191622534829e-01
5.035623301143450359e-01,4.507821550017689360e-01,4.686305261456943927e-01
5.015739886555380389e-01,5.092913046529958798e-01,5.248183984117078538e-01
4.943055299104006650e-01,4.275227076420430317e-01,4.441763413874081912e-01
4.182059262519489118e-01,4.720124421030486572e-01,5.182672410069923963e-01
5.776192915080464729e-01,4.826304666685687916e-01,5.345467711529882093e-01
5.164794870092680457e-01,4.715520367012523972e-01,5.244144636102255896e-01
4.959352135015517304e-01,5.052292833368582370e-01,4.613588122760152177e-01
5.355734561386359394e-01,4.545364547979324765e-01,5.352689579064857650e-01
4.737536127616958082e-01,5.558125604897430350e-01,5.084004308949344741e-01
5.103661003197360602e-01,5.128452082804962897e-01,4.830170777193000253e-01
5.145945898462170875e-01,4.883087980901397174e-01,5.309280498632752421e-01
5.424331156892964190e-01,5.310458118958565343e-01,5.008948174304621581e-01
4.855223071964556714e-01,4.448381959559813970e-01,4.445762723063985122e-01
5.287693896372395175e-01,4.827717749708265171e-01,3.994293060767456494e-01
4.573642756250979602e-01,5.300564337315851748e-01,4.606544748705561632e-01
5.471935524951971885e-01,5.038972354721577007e-01,4.655439049868002055e-01
4.837352601163361632e-01,4.652603830128675400e-01,4.581339208546960640e-01
5.449634268276284388e-01,4.479391561040120817e-01,5.390460656033383424e-01
5.423870249952913447e-01,4.594714269024795517e-01,5.076625306188534692e-01
4.702691507720810904e-01,5.919260727039568071e-01,4.764027923214161908e-01
4.874999696501271518e-01,5.249571481346148039e-01,4.545706934104705166e-01
5.485323443969706281e-01,5.192979423164391095e-01,5.041410866024160775e-01
5.602990894342593231e-01,4.691495795343501585e-01,4.466500876998814040e-01
4.763138048632529209e-01,4.922713903548643910e-01,4.628622062315046470e-01
3.896531757619211556e-01,5.478588837741286133e-01,4.128817497017244209e-01
4.656346016359227402e-01,4.990699247624473811e-01,5.948807605839313561e-01
4.888648578635203523e-01,4.417229978046465222e-01,4.649884878311723035e-01
6.104034305486234491e-01,5.104919462504757810e-01,5.436151688967303386e-01
5.064706540341480379e-01,4.945289337358124704e-01,4.440187639496996908e-01
5.319739050063178043e-01,4.915523344967769326e-01,4.096215352523325248e-01
5.214814976178338002e-01,5.097128066715594930e-01,5.125151764845408131e-01
5.403127053686592740e-01,4.591359535427273486e-01,4.998197616294357548e-01
4.253967534314142540e-01,4.554012169526756582e-01,5.241267590550404698e-01
5.615730580404345584e-01,4.865046018334757139e-01,4.686081005923341536e-01
4.806953496898924705e-01,4.120250912133992527e-01,5.397190417903098281e-01
4.720178478051760274e-01,4.956885299518312693e-01,5.615027355691067923e-01
5.652240361831425419e-01,4.966306896938853521e-01,4.965900427530766659e-01
5.461150894614620332e-01,5.174820092440821639e-01,5.016933410359043499e-01
5.155486852972357426e-01,5.043909932566378318e-01,4.727916639044821290e-01
4.899925889727763106e-01,4.230281492036201962e-01,5.080786200210978265e-01
4.644027932538222214e-01,5.012485539265677525e-01,4.484734242635285972e-01
5.129638117990941160e-01,5.700367409380253658e-01,5.215882773372991776e-01
5.358291162245167882e-01,4.410726195527377991e-01,5.244770745365920916e-01
5.077729162634326832e-01,5.120111590186829931e-01,5.228119836901173878e-01
4.920758176686576557e-01,5.792482195887826979e-01,5.299393971335324416e-01
5.481203406893724317e-01,5.193914604884259933e-01,5.397662587580691618e-01
5.292855115388571674e-01,5.232922316359108761e-01,5.355728409282893843e-01
4.446979497514194080e-01,4.956187670702038583e-01,4.930814033463974955e-01
5.522712682932949813e-01,5.259682334613827726e-01,5.796879416303822863e-01
5.350080726603371195e-01,5.005153559269283070e-01,5.231848781598643638e-01
5.276344792990254051e-01,4.493884436046023390e-01,4.859806182474858405e-01
4.948695939781097008e-01,4.739024621420750427e-01,5.663200092718522205e-01
5.297966991701007489e-01,5.433553620809480345e-01,5.195139930464908185e-01
5.369263262982904017e-01,5.485418905938623801e-01,4.238623164265505894e-01
5.508693073598136536e-01,4.916358377952293468e-01,4.993407291529744496e-01
5.426686872202834966e-01,5.112119052605663683e-01,5.202289275810791924e-01
5.239330389386851472e-01,4.898215813479077085e-01,5.015552696343580363e-01
4.923883630198320205e-01,5.156905417018992077e-01,5.479892647214197332e-01
5.078845824415904042e-01,4.467367953738468067e-01,4.854655522616810881e-01
5.262675440358227652e-01,4.295482425484034583e-01,5.385313895437866538e-01
4.304276704547064791e-01,5.302926174816534610e-01,4.737558600820833687e-01
5.036295922599921537e-01,5.536974973948131096e-01,4.515439179421175675e-01
4.649729143980178558e-01,5.512070307994254570e-01,5.270244508314423371e-01
5.786682525651491993e-01,4.222358783437198948e-01,5.439693833884561291e-01
5.011056701238185696e-01,5.083304978146295783e-01,4.496018672349328948e-01
4.752480144650348404e-01,5.184662742517863743e-01,4.475534854394045969e-01
5.350668573742124456e-01,4.790694182974541970e-01,5.107788549227828545e-01
5.046117853355643890e-01,5.261516473198050159e-01,4.094784229577870804e-01
5.763415559367288665e-01,4.035347488404441019e-01,4.785147001193106875e-01
5.515205448944225930e-01,4.974971605486799286e-01,4.450801487971923764e-01
4.329054391535004376e-01,5.367769997402298543e-01,5.001504210832846686e-01
5.320052089248955562e-01,5.254071267532061107e-01,4.988682938188029881e-01
4.686753491102231828e-01,4.713909468459622221e-01,5.375584600975821248e-01
5.449158213266315220e-01,5.631396823954030184e-01,5.423097669670011722e-01
4.903418806872142932e-01,4.456520184558491748e-01,4.512624465411844144e-01
5.155064145057226543e-01,5.976931108086704914e-01,5.147877536898166628e-01
5.600873611176434563e-01,5.117346187514255629e-01,4.393100175510831207e-01
5.222477543529334687e-01,4.883777049404900983e-01,4.886520238620390977e-01
5.753266451347884836e-01,5.229788256705925065e-01,5.641388019165405332e-01
5.055781920826323272e-01,4.624797681130963789e-01,4.545787857228111295e-01
5.259866839832848529e-01,5.092930728068133517e-01,5.241664171873541278e-01
4.880877826856843682e-01,6.112680032503046146e-01,6.081485879984637188e-01
4.742379191083606060e-01,4.781724036185223126e-01,4.295059129979849621e-01
5.181751125311692130e-01,4.766771642966061706e-01,4.471890202013922844e-01
4.908465567238531890e-01,4.950217594730259574e-01,5.317005450823594215e-01
5.034387941434272928e-01,4.939191393386817563e-01,5.308039880323224269e-01
4.918787130773516481e-01,5.276895913379641145e-01,5.162231464826070315e-01
4.804773008786120125e-01,4.334371108971512010e-01,5.115055014048252024e-01
5.975531553695461184e-01,4.404479597433636484e-01,4.320108279260456152e-01
5.508140665095494493e-01,5.268164286850816058e-01,4.778285312491388215e-01
5.331502652185918789e-01,4.023497014831606822e-01,5.062890669113726538e-01
5.260923522410021480e-01,5.443319891631251961e-01,4.715184174484349233e-01
5.276769170684142418e-01,4.782055372188933617e-01,5.045171664129325384e-01
5.182824169682045401e-01,5.036401393279059668e-01,4.188847683892953366e-01
4.462846486690703052e-01,4.620903287682855964e-01,4.586902035303881409e-01
4.864609807820899912e-01,5.615634660633100905e-01,5.334015395068542054e-01
4.921504800180813155e-01,4.242205041321240322e-01,5.831368281959045108e-01
5.347438244919170414e-01,4.650363184942122863e-01,5.215512268751989478e-01
4.846052417274594459e-01,4.865943318459142741e-01,5.016445095522731323e-01
5.178194909014784963e-01,4.442322656171853179e-01,4.342567786468139457e-01
4.877412424306476479e-01,5.704992490215142764e-01,5.142960688404970560e-01
4.936710209546070760e-01,4.727773857892001996e-01,5.269905058845472112e-01
5.426235238710442887e-01,5.249544906206206063e-01,4.563046136966761868e-01
5.558413764669776214e-01,5.223915177690103828e-01,4.558630804642170853e-01
4.822232993644142152e-01,4.657622927565323034e-01,4.750912821175859446e-01
4.941095093424184292e-01,4.397851646583106899e-01,5.714448141502010969e-01
4.792680032598766737e-01,5.088336706858412883e-01,5.137240858375800023e-01
4.978832306568187205e-01,4.407492661174959303e-01,5.511433811253773074e-01
4.371545651163722956e-01,5.322689882851050491e-01,4.802725989412773844e-01
5.148105273532741499e-01,4.730506152430666855e-01,4.794239779598219453e-01
4.612119614464774142e-01,5.217922907824106282e-01,5.956057496950408758e-01
5.197253332678588578e-01,5.247757135602902911e-01,4.999047494154755800e-01
5.381530164549481743e-01,5.479357757216312130e-01,4.829441953372700658e-01
5.590963147027084856e-01,5.553886021618309465e-01,4.770072647887923512e-01
5.105612761611335593e-01,5.181980276189848134e-01,4.761882989508778863e-01
5.634522373290720143e-01,4.774183897176440539e-01,4.159220655075985262e-01
4.486357130328287313e-01,5.989821476111363285e-01,4.486073418937521762e-01
5.145261561359221192e-01,5.082973237125819610e-01,4.843907140740122408e-01
3.592237743695865793e-01,4.914273412107285077e-01,4.701080641743987099e-01
4.454769881646060692e-01,4.959709532063392712e-01,5.314888358384957101e-01
5.253611393137594954e-01,4.898426870856465998e-01,4.714869134343133150e-01
5.542756999804037132e-01,5.628765233478197905e-01,4.693514093395342313e-01
5.338122788265821095e-01,5.084898323556439337e-01,4.947751811609870098e-01
5.018025390426680277e-01,5.242918107843504982e-01,4.824026193545470909e-01
4.665726778565385535e-01,3.874811484308177678e-01,5.429769322512153495e-01
5.721037132481747722e-01,5.486604967128536625e-01,5.089525051448891002e-01
4.949286548361412907e-01,5.278998376965504669e-01,5.412364571626616661e-01
5.055879362935485899e-01,4.943704445015192350e-01,4.996605429767827511e-01
4.084143455839069348e-01,5.009735269889311615e-01,5.233398857455540121e-01
3.992790586047183510e-01,5.437404681430793030e-01,4.375697428485368357e-01
5.205214898068183382e-01,4.539850415583436827e-01,5.373265124291094486e-01
4.579325358905158017e-01,5.168782048179227928e-01,4.328695578071648509e-01
5.358707223318099899e-01,4.573894193292177279e-01,5.418594739133023586e-01
4.610972147402097598e-01,4.646640407052544663e-01,4.997233735011379907e-01
5.466279712097215082e-01,5.420306205387007692e-01,4.997691818146710596e-01
4.802614867016162803e-01,5.409901238152148295e-01,4.162092708092032245e-01
5.551919341757596271e-01,5.271073541072938129e-01,4.448745028751446839e-01
5.135902484001798607e-01,4.383689482539368520e-01,5.061915357756876510e-01
5.049214600626024119e-01,4.955611812252948001e-01,5.296746243268320997e-01
4.782030541682864566e-01,5.842227971124865915e-01,5.164729856443428524e-01
4.997299097682099678e-01,5.585984788491258346e-01,4.464088647103261476e-01
4.160629295761064661e-01,4.326820906675355460e-01,5.871073463313383201e-01
4.903076197878333264e-01,5.887274548231925531e-01,4.714775306112439224e-01
5.641290689430202843e-01,5.082520451249308291e-01,5.745377155408892822e-01
4.800998119618039572e-01,5.381190563408223548e-01,5.368877852897712133e-01
4.792465656045373779e-01,4.688770255303924550e-01,4.999354424075280745e-01
4.288093105395289206e-01,4.922410152369661729e-01,5.780394201375939067e-01
4.298277924945055339e-01,5.054569400179090843e-01,5.685284781232099460e-01
4.842308219389802049e-01,4.548109020239411993e-01,4.617109446735176981e-01
5.305982751225686300e-01,4.811238941791292079e-01,5.160262641794474137e-01
5.284103407829405796e-01,4.599017869290049076e-01,5.003697868735544896e-01
5.473856817121950380e-01,4.868239186420159070e-01,5.002388717110326510e-01
5.095038621494674125e-01,4.967342780567996496e-01,4.848498179864939583e-01
4.400977066055624110e-01,4.917155704178821640e-01,6.271312040485934602e-01
4.966754685431867267e-01,4.815799727014242748e-01,4.800789828487646016e-01
4.629958036330777960e-01,4.585589432684777922e-01,5.319699287396014720e-01
4.434583475802158503e-01,5.074180617105013003e-01,4.990421017370176293e-01
4.316203636091747176e-01,5.104157564094500277e-01,5.345468088082868663e-01
5.300695186824607719e-01,5.131573331730120424e-01,5.435560552730053230e-01
4.171097766915731753e-01,4.471677217187894904e-01,4.627177283238270711e-01
5.033343220244869132e-01,4.283605573497724084e-01,5.243128790379493198e-01
4.532851837726139532e-01,5.129624063027015124e-01,4.961460979310937658e-01
5.013640423728268347e-01,4.868747678511327615e-01,5.144968266546439128e-01
5.304725872504322259e-01,5.933702032118667313e-01,5.414073069858312826e-01
5.351875243345525224e-01,5.602945982462493868e-01,5.094033156507942195e-01
4.732428182068181277e-01,3.875642666225558863e-01,4.312914099052320704e-01
4.620811065716292076e-01,4.894949297446572478e-01,5.387189492435434657e-01
4.247010724037697527e-01,5.343800119318612429e-01,4.826801249416781681e-01
5.110753050796480457e-01,4.818678637256162967e-01,5.519756452411127556e-01
4.977802439587978300e-01,4.754257820380762278e-01,4.621046057965649267e-01
4.560961095715275193e-01,5.455663783778587073e-01,4.595214973492404154e-01
5.321713390949311950e-01,5.669268627938474081e-01,5.219001041569358845e-01
4.979337252949754267e-01,5.016851180962689227e-01,5.044555912666630615e-01
4.871540265734075614e-01,4.648407063772265757e-01,5.418404791544049193e-01
5.340035958647263437e-01,5.490341815485599852e-01,5.257753861823065700e-01
5.373023537348213807e-01,4.982407938073505349e-01,5.294130777820649225e-01
4.851943914043442274e-01,5.967044366085512141e-01,5.384575406867998515e-01
5.805231236436803055e-01,5.296545418023483887e-01,4.762056327658470978e-01
4.935890262265353878e-01,4.831482615349516063e-01,4.597458570845349701e-01
5.440625572857907821e-01,4.900536010372692486e-01,4.617678005498808691e-01
4.832433664420692776e-01,5.089671288240350533e-01,5.308124797850478638e-01
4.822775659566082562e-01,4.913216938526370203e-01,4.944851833772983540e-01
4.790135355899957093e-01,4.561405684532752747e-01,4.566898516996289459e-01
4.554978979469652134e-01,4.831904075147110400e-01,5.750319432610360160e-01
4.903344786262086030e-01,4.191120068890692996e-01,5.293056846274095673e-01
4.692785165216223908e-01,4.920482011795458965e-01,5.178964081301029587e-01
4.659758117545903522e-01,4.765423996647192295e-01,4.926738330604100158e-01
4.977815602659373950e-01,4.938675909291289079e-01,5.057847565663902145e-01
4.815577362548002505e-01,5.099645997372871387e-01,5.670692931099006184e-01
4.178629939051995423e-01,5.089136606542982166e-01,4.589462035190705613e-01
4.934548832627712045e-01,4.355143485873688158e-01,3.952727707293656745e-01
4.877042666471638754e-01,5.484490090388999262e-01,5.764360940323495219e-01
4.790151138753624971e-01,5.001656864928890611e-01,5.093367788253003736e-01
4.804723440450483496e-01,4.932082587069527291e-01,5.075583652459306760e-01
4.984635339606037219e-01,5.168066855575484952e-01,4.605210114436503188e-01
4.450456523099539097e-01,4.977673760647480794e-01,4.153813574080745252e-01
5.270763048450055610e-01,4.949124912996425985e-01,5.178202551112118801e-01
4.941824474543972667e-01,5.362025426084559010e-01,5.076811712242642605e-01
4.325323157957528530e-01,5.319489228252395341e-01,4.618023582333951049e-01
5.156561378893649294e-01,5.996268433511493523e-01,4.627869382084905392e-01
5.324354651754432677e-01,5.245142803505861151e-01,5.206664318260920687e-01
4.521084270237060720e-01,4.265241766338189744e-01,4.150808046077080204e-01
4.808309527104623338e-01,4.852401756595808857e-01,5.356322977028797894e-01
4.068769600062121516e-01,5.722965114160142308e-01,5.183370787771852672e-01
5.187917481477746229e-01,4.950311450789866563e-01,4.881930658889581665e-01
5.454569078602831134e-01,5.785832815116143113e-01,5.025293681234106469e-01
5.394787721780811562e-01,5.217674202754365442e-01,4.948371761290101256e-01
5.282631173541803005e-01,5.576474019194129772e-01,5.783356744302777797e-01
4.229547634502089370e-01,5.117315009251688362e-01,4.721214133513098044e-01
5.147184740705225137e-01,5.095841397071118051e-01,5.168406888489895934e-01
4.632297457474165436e-01,5.090804614876177636e-01,5.310414554240086016e-01
4.380700436075555260e-01,4.902184625373507965e-01,4.665974469750130971e-01
5.949681402745817804e-01,5.080901759939613349e-01,4.897003239955843856e-01
4.812630132018049234e-01,4.951970834279663114e-01,5.100285432367345217e-01
4.790044839249891218e-01,4.435806586258813633e-01,5.405872719016620032e-01
5.056802251191944153e-01,4.991546592654386716e-01,4.924227670676444846e-01
5.360521884486177946e-01,4.875469759104225642e-01,5.194280868360042769e-01
4.463867550721294930e-01,5.470562797643138131e-01,5.280117614647021895e-01
5.020580044978005807e-01,5.081414662463206167e-01,5.050872191863396976e-01
5.048020912859667586e-01,5.299473055813592737e-01,4.912425312998106031e-01
4.928564957359166110e-01,5.461309122241198022e-01,5.550748088475081499e-01
4.125510657430659367e-01,4.978929254549238070e-01,5.551800549812694330e-01
4.467416144567418756e-01,4.927814007192778401e-01,4.997900548981027424e-01
5.859982353807626776e-01,4.515208876225827450e-01,4.719731771706136003e-01
4.821194919901563014e-01,5.158192740313264357e-01,5.071597124896631836e-01
5.128549615650144222e-01,4.443655652639747489e-01,5.242647833917495337e-01
4.357655844064017847e-01,5.150330071747141192e-01,5.530880282164560846e-01
5.649509707127483571e-01,5.203262029443622705e-01,5.126096296424584864e-01
5.496613553097706717e-01,4.472030293834343140e-01,5.109546180204422861e-01
5.271336535990285288e-01,4.999494755891762399e-01,5.459260306447489830e-01
5.538460797710986760e-01,5.356111419947613417e-01,5.194110620843250814e-01
5.236221545212059736e-01,4.928310505443834200e-01,4.361196446392990311e-01
5.097465912479748340e-01,5.224952598149594785e-01,4.775761027173106577e-01
4.429202687687065487e-01,5.207827960704562997e-01,4.584307557469152750e-01
3.762018031921378070e-01,5.445366565261648972e-01,4.283071713143410952e-01
4.865157545027610220e-01,4.885805085486437105e-01,4.620048916812792283e-01
5.291408539747164408e-01,5.173751812983657938e-01,6.127788331177512759e-01
4.778840769496152108e-01,5.085995276518986419e-01,4.954104814301797943e-01
4.560173851477396512e-01,4.428530156154492081e-01,5.091282657202166329e-01
4.174171838232049736e-01,4.868571221093024870e-01,5.391271718177593764e-01
5.374818194277181105e-01,4.720349088744606458e-01,5.359629316408711652e-01
5.395742296879385558e-01,4.862945566535044062e-01,4.876479812165673833e-01
4.691057660663423001e-01,4.363246674952755422e-01,5.257026354573318683e-01
6.131237758967498230e-01,4.971944455776414751e-01,4.425640317218642039e-01
5.384634114056026100e-01,4.704004621769368177e-01,5.222496366940903023e-01
4.767541264024389713e-01,4.671113194653773726e-01,5.329280924744302927e-01
5.403692616954400840e-01,4.325805537084120300e-01,4.901844758144092151e-01
5.022804865801240304e-01,4.470513959645295299e-01,5.204203730855667676e-01
4.518561621468826228e-01,4.382075631925130277e-01,4.734205564909164110e-01
4.912013820580216072e-01,4.866868235131390219e-01,4.550191446971407760e-01
4.580092356772211826e-01,5.033779317354597493e-01,4.721503815683447125e-01
5.309828105472466087e-01,4.880121064976833400e-01,4.960150595008569474e-01
4.959833475546555626e-01,5.106485583654852833e-01,5.642891181726655825e-01
5.433904243556890723e-01,4.822316714161363760e-01,5.522220933643732232e-01
4.802109964046455959e-01,5.216256371409142556e-01,4.550687261922218285e-01
4.875437516935456905e-01,5.530724697567231951e-01,5.479432354778136505e-01
5.198288228283293178e-01,5.296874550289307759e-01,3.872141272440285387e-01
5.122997570015478397e-01,4.875343325892480539e-01,5.485716120839837506e-01
4.922799606549779217e-01,4.692200729602080678e-01,5.113878002452380001e-01
5.472244673166367646e-01,5.069019849776564834e-01,5.092879664834082387e-01
4.946221869589135234e-01,4.924045455656529402e-01,4.838659891318434769e-01
5.660188377656433234e-01,4.187132189558230300e-01,4.607872265663356948e-01
4.689463719852308143e-01,5.029235507112016501e-01,4.328509680203000420e-01
5.114224634104118650e-01,5.771895150297353672e-01,4.940068789652133918e-01
4.329272087418036263e-01,4.309337851474833725e-01,4.968659565521843513e-01
4.930452573742238331e-01,4.109366714714119406e-01,4.370693232476193790e-01
4.325352879140201834e-01,4.555315205719712157e-01,4.853300719852559064e-01
4.831463010689479587e-01,6.012499735075639284e-01,4.420148856264048964e-01
5.964436285865429843e-01,4.930007085407940304e-01,5.348688531027302462e-01
5.042746001705067371e-01,5.538626021238147734e-01,4.896943405880795908e-01
5.050969484930845077e-01,5.104022715257112708e-01,4.336780907539641294e-01
5.226543726026313674e-01,4.964343381226745122e-01,4.779141911067196213e-01
5.787140837962780893e-01,5.898113867214670458e-01,4.528930946610703612e-01
5.973061590412498401e-01,4.766162229343130496e-01,4.376195933851986242e-01
5.040356031532204906e-01,5.179753024026912955e-01,4.926693630675775815e-01
4.846608420001397577e-01,5.622541060863454065e-01,5.610431193337903633e-01
5.371829398953547052e-01,4.330334834610070627e-01,5.267392239114458974e-01
5.351355451869932445e-01,4.699687569487834282e-01,5.379768624062647442e-01
4.855941349265858742e-01,4.875876362871889302e-01,5.406339864199481982e-01
5.194524303478821325e-01,5.024809445248742401e-01,5.067523170435769275e-01
4.629939938026079727e-01,5.579427818222284507e-01,4.845739204870841976e-01
5.200104670873916257e-01,4.409358186376098887e-01,4.623101580640542330e-01
5.030962998402200848e-01,4.575533796273423826e-01,5.850989763784626430e-01
5.271811273047409818e-01,5.101716949185685079e-01,4.845625098181025603e-01
5.027223590578886459e-01,4.996354980326691564e-01,5.273046774227058142e-01
4.803647328277173556e-01,5.164726749371332248e-01,4.929555161239288497e-01
4.942846565071963294e-01,5.727474560882375165e-01,5.221842958937996659e-01
4.373340983591437747e-01,5.316519930144515405e-01,5.467864659360819335e-01
4.746876798675173093e-01,5.538085943188804094e-01,5.390425956316488021e-01
5.487966784826082689e-01,4.935968920397729720e-01,5.130290576902217792e-01
5.706789477864802063e-01,5.364681353632387850e-01,5.233835712278558372e-01
4.434579719953709587e-01,5.307552667585607731e-01,5.640045566513774977e-01
4.681055364295978460e-01,4.395126113693766934e-01,4.249742841572442531e-01
4.603691460149237358e-01,4.386620668014323265e-01,5.252097076235118234e-01
5.105389633875154765e-01,4.801277834979161829e-01,5.064712334328531629e-01
5.213158085437655798e-01,5.162620255212992948e-01,5.657504955557176585e-01
4.884222687929866691e-01,4.785950293643785880e-01,5.202302134839738024e-01
4.795119352729478313e-01,5.433050935517781399e-01,4.930373650653052109e-01
4.359047021833465374e-01,5.200445620707823124e-01,4.542702987241987733e-01
5.014226599165415577e-01,5.234910627048328102e-01,4.931229172424942409e-01
5.151189442360220028e-01,4.671426264424703434e-01,5.097917183574971478e-01
5.090218159512772678e-01,5.878958842308712462e-01,5.395835162837984145e-01
5.269123318735955408e-01,4.736447118619215302e-01,5.906767046414173050e-01
5.100783655261483807e-01,4.593258027746909833e-01,5.051842920553689664e-01
4.901759945817562025e-01,5.301154283531679390e-01,5.728423101991910737e-01
4.530942149952676412e-01,4.661923395969487238e-01,4.865818396940799206e-01
5.112451936796152951e-01,4.788872103019368165e-01,5.442604382816706998e-01
5.201597589267658028e-01,5.846543108109970577e-01,4.912278629034176891e-01
5.391637876062259638e-01,5.383588859765898738e-01,4.271389002296937520e-01
5.180321044850240142e-01,4.048310927814782745e-01,4.999021136904195362e-01
4.780279380269319978e-01,5.118570093003277366e-01,4.593527874367854813e-01
5.595626247163427713e-01,4.689295439779848640e-01,5.724227358504828667e-01
4.639614064726615972e-01,5.265732136209270164e-01,4.797175229282524822e-01
5.232889257631474500e-01,5.134261147163298178e-01,5.137061987528550588e-01
5.004297275237167275e-01,4.524588178624207035e-01,5.673690082957191239e-01
4.206890075771317905e-01,5.026732122357334687e-01,4.270959594510282953e-01
5.136604238638234898e-01,4.719615926585787880e-01,5.418323994166680535e-01
5.270361101598542986e-01,5.288928293112795664e-01,4.614178858845109921e-01
5.395944452955127035e-01,5.170086106156319694e-01,5.533701152858107042e-01
4.588428820689224863e-01,4.842392927144090198e-01,5.087192567647966790e-01
5.111836250269549131e-01,4.948609839280812550e-01,4.980541539720387267e-01
4.846332326344586217e-01,5.044413749099460054e-01,4.848038779531101405e-01
5.037077792048372249e-01,5.351833237969292334e-01,4.848463404374726560e-01
5.341431037946624549e-01,4.874566826722484536e-01,5.065832339816811469e-01
4.954411064583514879e-01,5.040461576709484026e-01,5.039745280377662118e-01
4.838632651181328237e-01,5.125779943395386562e-01,4.863616719417873102e-01
4.988808383484492626e-01,5.182928506235184862e-01,4.301536879106361844e-01
4.528260670316576197e-01,5.285749928066043601e-01,5.438002194777916687e-01
4.463021067003856701e-01,5.091923048189292977e-01,4.870039156777880018e-01
4.079446920918853303e-01,5.288746185172674696e-01,5.076771903732451019e-01
4.955878591806587852e-01,5.771817969776277257e-01,4.393662421447900868e-01
4.855725541075105456e-01,4.532757235427106735e-01,4.932056367551505005e-01
5.072799508690156722e-01,4.562733574910274315e-01,5.530709849322420490e-01
5.292985970572816612e-01,3.982793877368428492e-01,6.093592645906150684e-01
5.695007790382309310e-01,5.637042865239373368e-01,4.883797114675745843e-01
5.371313414760838789e-01,5.039579287698781052e-01,5.386206961776938140e-01
5.270403142079369552e-01,5.499181480949775214e-01,5.086746566430291328e-01
5.420041708848261086e-01,5.158679297774483308e-01,5.181542712270515993e-01
4.275823480603501703e-01,4.886804064133958847e-01,4.994269214388862288e-01
5.386646144021549620e-01,5.255210156178010683e-01,5.666849702855399906e-01
4.106717915027893184e-01,3.321638161359003472e-01,4.729211945296164510e-01
4.867608026157280721e-01,5.828830934223878657e-01,4.841875766365114075e-01
4.963619843179929436e-01,5.437353978418374423e-01,4.562788234558043388e-01
4.509714162516983427e-01,5.090380437545976022e-01,5.704735094123746242e-01
4.536475190582462957e-01,4.934153902304442840e-01,5.102946522984543876e-01
5.496153427261828428e-01,5.672884651496801212e-01,4.938115090918726580e-01
5.285071051347586257e-01,4.610566704583374253e-01,4.025989384303697016e-01
5.374613136751438258e-01,4.988641151008852415e-01,4.592856100036198930e-01
4.557009689558555454e-01,4.853917324831436009e-01,4.210513090014422755e-01
4.812865609450677762e-01,4.785730360248560689e-01,5.202706747859026093e-01
5.540697943545542792e-01,5.011611618838440751e-01,5.116625044709172121e-01
5.644121245696414046e-01,4.714314507308160485e-01,5.587677609585764982e-01
4.601777398051613011e-01,4.838422163384260011e-01,5.726413464393318442e-01
5.090231501849252771e-01,4.210548715974879452e-01,4.977559277997189446e-01
5.257439534188017571e-01,5.028789653127435644e-01,5.010307179633259889e-01
5.605951536432773885e-01,4.401302576189065618e-01,4.984345753915833677e-01
4.377688177426153349e-01,4.825859619365864273e-01,5.097276673505544142e-01
4.440921578033866224e-01,5.050200886823854596e-01,4.232432968024966713e-01
4.855320353940063005e-01,5.163933128480902024e-01,4.910521593496099402e-01
5.434636662638697713e-01,4.887047164452827941e-01,4.607484076830285491e-01
5.698007166278662439e-01,4.491145708468397002e-01,5.286875080180737374e-01
5.300438194639816025e-01,4.141136406664278069e-01,4.921429206140023882e-01
4.458457498813501729e-01,4.257240977920526692e-01,4.024316796327173096e-01
5.450335443579863437e-01,4.759618923757303888e-01,5.672201812563933965e-01
4.609471981522500483e-01,5.318634036773891571e-01,5.070967268738790779e-01
4.695008051435545782e-01,4.582629963314097110e-01,4.948817187211345670e-01
5.527917594337489193e-01,4.999440519956017126e-01,4.808712374421679758e-01
5.068874195374799552e-01,5.414037781587478504e-01,5.285011520429609977e-01
5.619861392531319000e-01,4.675569061190101849e-01,4.840562304334235511e-01
4.788627484240464693e-01,4.876629422933680402e-01,5.004139872294537383e-01
5.384833322738792338e-01,4.615589676853230072e-01,3.937293369454979985e-01
4.931734419020343263e-01,5.300773892360508555e-01,4.878731721897054951e-01
4.559328668503634385e-01,5.216496280459715917e-01,4.559520751609109634e-01
4.529393126498588162e-01,4.939558808539724066e-01,5.063234847345683409e-01
4.627699217614422156e-01,4.389443697162178637e-01,5.601227797763359550e-01
4.970599077127783594e-01,5.055017350018601308e-01,5.070110022088044621e-01
4.695231772548945082e-01,4.137871305041092573e-01,4.764515026486697002e-01
5.405803797064103744e-01,5.128542969490499370e-01,4.988570647610643949e-01
4.997494466926957202e-01,4.638137290589498529e-01,5.073150367948588979e-01
4.235428187354284835e-01,3.908504073643992438e-01,5.487457019199792896e-01
4.458530615880224035e-01,5.306130253985693601e-01,4.803175047565246270e-01
4.592855714608570228e-01,5.320704995000956616e-01,4.734698039324510277e-01
4.459727612875742930e-01,5.480153457445545717e-01,4.570048318933431220e-01
4.198874110655797520e-01,4.728588078382365834e-01,4.761376611292422179e-01
5.042318230977772542e-01,5.132826107120406212e-01,5.148352561240613356e-01
5.575474246560648828e-01,4.729215981166743910e-01,4.686394844585395902e-01
4.772504712499120449e-01,4.362071548304491952e-01,5.249809560115783480e-01
4.813838187839193927e-01,5.207783006821468108e-01,5.443512221339773527e-01
3.864206376164565637e-01,5.405326235996241735e-01,5.425934907256638740e-01
4.763202540897216730e-01,4.675264764374561510e-01,6.034095470866192024e-01
5.414033981586691135e-01,4.205908941538193946e-01,5.085461140348227493e-01
4.659874774058779257e-01,4.842721581059364899e-01,4.049565043892701111e-01
5.833484692793385884e-01,4.585904729404011171e-01,5.412245354179915369e-01
5.202912978429018453e-01,5.694245882512057877e-01,5.942983908631483958e-01
5.708894353112282660e-01,5.167042671738590887e-01,5.131988093377212179e-01
5.229380718857946642e-01,4.579923847141850191e-01,4.394824514118768066e-01
5.154189605912118388e-01,5.214384000861199686e-01,5.059475026941939735e-01
4.553714353793034131e-01,5.489305569976922206e-01,4.783785797832442732e-01
5.469963081932227578e-01,4.758603790082223672e-01,4.878272690547207358e-01
4.399656946831325133e-01,4.992691758355204401e-01,5.284169118882930949e-01
4.703110392947533192e-01,5.066134697379111040e-01,5.101593687308689784e-01
4.945137699405005027e-01,5.069935730190572309e-01,4.383996767446796672e-01
5.518722290413539122e-01,5.134492380640919285e-01,5.692230489791174630e-01
4.828027937784779566e-01,5.276370218647915555e-01,4.979360659601954064e-01
4.770146747733799431e-01,4.366527502932915916e-01,5.042431770978735850e-01
4.130321483730267640e-01,5.116623477379611540e-01,3.924031880849642717e-01
5.068609641743856420e-01,5.163573299080815859e-01,5.127224170548746462e-01
5.658477882370429590e-01,4.673992352083589652e-01,5.437425255568905103e-01
5.211252676788232785e-01,4.785454496457748341e-01,4.540326704907144961e-01
4.569019453480183679e-01,4.758425103939427636e-01,4.500956703271803416e-01
5.132228016624004185e-01,4.925234512675444321e-01,5.272853880066756815e-01
4.728592112571535222e-01,4.207658514905966429e-01,4.962292928965670868e-01
5.341843685454872315e-01,5.179928383967009609e-01,5.137329758258573076e-01
4.889866078746052391e-01,4.823961433246014563e-01,6.147181201602420764e-01
5.589789719416445868e-01,5.257154649484172548e-01,5.861038005385295069e-01
4.906004680661587014e-01,5.252997101229851529e-01,4.642195170321568032e-01
4.208389447412105300e-01,4.499009794655437489e-01,5.180977339103645107e-01
4.090796503503547066e-01,4.949850909253259434e-01,5.195024570021182786e-01
4.637460015650614609e-01,5.083330799931569111e-01,4.816045181600998037e-01
4.508482241688991365e-01,4.989388218749633563e-01,5.735382567834996781e-01
4.734838289174829740e-01,4.739158721152875176e-01,5.388166160465608368e-01
4.681764192611550524e-01,4.978236814452071113e-01,5.167269493080094422e-01
5.199851705994394946e-01,5.649997970745347375e-01,5.984913342968443128e-01
5.003123151449517803e-01,5.384405320741759704e-01,5.202624101510667787e-01
4.689400828772914975e-01,5.746076938263693368e-01,5.647045880159173858e-01
5.163637131383230772e-01,4.414978314346345023e-01,5.464631469874986491e-01
5.433249420106448513e-01,4.544515588914774806e-01,4.971384567726064851e-01
4.932071155416917763e-01,4.530240725864806417e-01,5.568036721596085759e-01
4.997591473096402725e-01,5.589332770679295015e-01,4.881637289848854144e-01
4.846786760343547162e-01,5.393062940717459064e-01,5.591056293247382847e-01
4.518800676645194359e-01,4.570273703411031896e-01,4.117532254155138460e-01
5.550440127526149459e-01,5.401940191424207116e-01,5.313521644717328352e-01
5.385274113171234500e-01,4.862623029678990183e-01,5.572668832910979697e-01
4.893341401457490525e-01,4.757519125231015056e-01,4.749741503890043126e-01
4.833507995584633288e-01,4.967520452935451081e-01,4.620827221094671589e-01
5.018432198268615307e-01,4.602694803512671351e-01,5.430239260712992344e-01
4.292884236056194180e-01,5.348168147954625029e-01,5.272455947020540101e-01
5.004220746506040651e-01,5.820843270465577701e-01,5.361966748107441783e-01
5.354640818939587765e-01,5.230078993432560885e-01,5.747968983309137414e-01
5.191723787303723636e-01,4.982353599897033636e-01,4.969734134591787811e-01
4.789034945138004873e-01,5.014100724613403948e-01,5.269749790257524102e-01
5.289355166120459639e-01,5.470786478348501625e-01,5.237103994412783958e-01
4.464357605508673110e-01,4.594519306974789719e-01,5.291707034062690385e-01
4.992736091863649861e-01,4.935249490399189476e-01,4.492168323463729407e-01
4.600667467671384903e-01,4.900101754577587676e-01,4.531443049896060060e-01
4.908767178233668371e-01,4.841179340290271416e-01,5.607389868262266930e-01
4.677140391124229857e-01,4.808246659714300875e-01,5.158368177582255409e-01
5.091637045275584361e-01,4.985367190313375607e-01,5.624308468051573140e-01
4.576357270734562332e-01,4.325766582431987417e-01,4.924909292319123999e-01
5.454962242828528263e-01,5.129884711962378052e-01,5.501186668357176401e-01
4.686791992640869098e-01,4.626499164195590486e-01,4.687611069035701461e-01
4.505425344431451262e-01,5.354207728758759721e-01,4.592801297681115558e-01
4.907189369798353740e-01,5.214218283647144014e-01,6.078485752738533865e-01
5.400064022668257246e-01,4.952000168489765763e-01,5.221190143592735478e-01
5.075762058956294620e-01,4.661505311733193380e-01,5.443371132446882532e-01
5.308348441679294760e-01,4.880433472091586511e-01,4.977463521997442242e-01
4.745928398304422591e-01,4.428741677695812173e-01,5.045551185986677512e-01
5.286238926988194864e-01,5.040048721529539755e-01,4.958969668204221137e-01
4.714451830753029760e-01,5.883380398360622543e-01,4.935815700491235081e-01
4.671310245176575338e-01,5.044043268200396612e-01,5.362812468709109437e-01
5.623340242727128402e-01,5.278245650309049131e-01,5.235564780478464408e-01
4.800022822901723885e-01,4.984978074191792063e-01,4.412606946618685688e-01
4.898692460042985419e-01,5.771678650334669536e-01,4.910096146858478061e-01
5.058648450084606285e-01,5.314684336651069874e-01,5.213217186155590932e-01
4.364942701410410852e-01,4.664252889215725340e-01,4.804635719167333341e-01
5.254847086657012944e-01,4.736881626495274000e-01,5.372191921400937265e-01
4.812444233929628612e-01,4.626607588434457630e-01,4.842561364933085089e-01
5.369615944282806197e-01,4.766730843705623832e-01,4.606849120766033368e-01
4.625434924186748176e-01,5.187728913289723076e-01,5.106881147022408474e-01
5.250888591326758892e-01,5.215860534648605329e-01,5.504629473464122125e-01
4.749599946415909435e-01,5.988172859191909225e-01,5.137070004044055338e-01
5.554868501771165201e-01,5.088766458734852449e-01,3.881694052013893725e-01
4.710457986146274201e-01,5.007492906712822656e-01,5.128780539666116800e-01
5.294223843799312768e-01,5.011188976430638320e-01,4.366998407240600955e-01
4.643339097410226768e-01,4.681869514649602548e-01,5.551318307535818564e-01
5.626066145766367432e-01,4.469406991972735832e-01,5.575985989376784913e-01
4.594830415694657333e-01,4.907617099279718009e-01,5.085893251984673347e-01
5.656308337771941419e-01,5.683016669235489982e-01,5.021567000713903495e-01
5.014557160903432287e-01,4.404142373896705043e-01,4.862990599436345929e-01
3.930793956162512703e-01,4.938835470545562267e-01,5.241724644687564272e-01
4.589399378009512143e-01,4.731101536242404704e-01,4.352592087475309901e-01
4.890041332658209838e-01,5.436735405897886730e-01,5.070616822613366326e-01
4.645195892805827342e-01,4.500295453913917831e-01,5.293700826535523429e-01
4.855629560072195483e-01,4.958206032044626399e-01,5.009173693478036204e-01
5.434762458637804050e-01,5.543954025517564554e-01,5.622517961937179010e-01
5.289291672629888863e-01,4.921049118469059125e-01,5.236926381326888480e-01
5.601301520251251720e-01,5.599804496315312630e-01,4.836523759914361231e-01
4.990359781834783903e-01,4.717819873508105055e-01,4.756460642175089903e-01
4.399885697339819268e-01,4.906726482198323080e-01,5.062308041374873335e-01
5.026412978653732599e-01,5.755026408039169983e-01,4.978701073799792209e-01
5.374663807033648322e-01,5.251228795688006601e-01,5.835730945178143614e-01
6.120795681852801984e-01,5.002729642238088470e-01,4.555628549460443710e-01
6.117833579926612586e-01,4.081718617999304244e-01,5.734503787017717347e-01
5.272304530574598580e-01,4.850785231103176831e-01,5.045418733028372849e-01
5.151372014619305384e-01,5.092511353271824692e-01,5.262071823068609211e-01
5.238193842806770917e-01,5.615938594634246606e-01,5.149769839171650654e-01
4.695745621865723418e-01,4.798853879588435012e-01,4.973788845236603029e-01
5.156459442014587058e-01,5.010277259163835595e-01,4.374815820171477077e-01
5.409605770954518666e-01,5.434885411352644580e-01,4.648850567703824987e-01
5.276868359074640136e-01,4.556146542109379971e-01,4.973941457999866422e-01
4.981816071001169410e-01,4.914374643215910221e-01,5.633266502849733071e-01
4.579317230304927877e-01,4.704733323278009194e-01,4.728854517363448307e-01
5.094694438836048223e-01,5.223044423529619174e-01,5.056441049263389331e-01
4.433793555691407096e-01,4.465425133682841552e-01,5.051013935565208390e-01
5.176584458673019196e-01,4.989370241577709697e-01,4.997142786724636521e-01
5.098218701986586554e-01,5.155660322999218170e-01,4.426822854239400029e-01
5.474479201044449850e-01,4.150771463262075689e-01,4.819806034305610942e-01
4.945933862902838207e-01,4.935551757006813589e-01,4.932666935123986018e-01
5.106367723171593154e-01,5.302583597312113817e-01,5.324232921346121472e-01
4.468606938829536301e-01,5.269140914087485639e-01,4.911947473236673578e-01
5.098423102154311382e-01,5.131881756491136759e-01,5.482365400041417924e-01
4.690543758719256107e-01,4.540623425681782899e-01,4.726320933439659422e-01
5.341924475860245769e-01,4.319779612492440357e-01,4.959377907094768001e-01
4.825356321853127572e-01,4.635623601167151997e-01,4.818096763959682227e-01
5.242153009124463914e-01,5.748082830760844475e-01,5.977593352472969634e-01
5.260193005164892632e-01,6.028011507343131736e-01,5.354579804608481375e-01
4.819020356681287809e-01,5.322692412065758161e-01,5.150745861990794205e-01
5.460066990228105155e-01,4.702082943491684985e-01,4.790604077575763564e-01
4.844100198488937026e-01,3.964865612901411485e-01,4.694634945497094813e-01
4.695066352956186462e-01,4.907951338333182978e-01,5.034112763589586592e-01
4.965490010258676312e-01,4.825336156229662055e-01,4.488485472550734490e-01
5.092079645537810340e-01,4.562174474205145103e-01,5.733278074070408126e-01
5.000590119882231122e-01,5.095947580531841048e-01,4.726759393525860609e-01
4.662922650172375838e-01,4.391893506258072177e-01,5.278186283640734500e-01
4.884310370410868685e-01,4.970655167118352979e-01,4.730655838895850840e-01
4.907971287216406076e-01,5.419595315073466590e-01,4.404914506914131000e-01
5.104675226606202321e-01,4.376372149525654676e-01,5.091379951692337480e-01
4.820767852979548351e-01,4.764868161400012125e-01,4.916691216853443236e-01
5.073951163744200299e-01,4.540527937429260086e-01,4.052316319106845643e-01
4.734241795004494602e-01,4.971404605220058892e-01,5.106306407529128677e-01
5.138949472399904073e-01,4.859441935757183861e-01,4.438795611323612667e-01
4.948451217704524785e-01,5.004388723330561728e-01,5.168243105586796116e-01
5.208123287640501475e-01,5.171046325989141490e-01,4.662708334302870239e-01
4.696258456198948439e-01,4.672142850170676320e-01,4.928826027376217445e-01
5.696515311694184680e-01,4.717128719119076385e-01,4.755811778302121429e-01
5.114198539966310353e-01,5.305507536796602031e-01,4.185431629089071959e-01
4.929935222666266270e-01,5.332272711051739833e-01,4.701393347438441728e-01
5.608791656592053698e-01,4.482821145802484697e-01,5.142590970699804087e-01
5.202579831391577203e-01,5.429595258028191429e-01,5.486845945401731539e-01
5.464838330398389399e-01,4.597887517292504334e-01,4.483866029581310975e-01
4.963653685695471052e-01,4.952264424609111315e-01,5.037510980392104765e-01
5.712614343863143818e-01,5.348289169317340663e-01,4.953560308246083288e-01
4.809964626787477937e-01,5.109872650399832628e-01,4.614858513664051864e-01
4.210072463468728654e-01,4.949184026184974550e-01,4.992278493354064262e-01
5.633617223503000204e-01,5.495713526921545133e-01,5.405657274761550557e-01
4.857485521738319489e-01,5.213343365861189405e-01,5.126757274548746635e-01
4.475679909917039678e-01,4.512132124566944347e-01,5.308424646566380911e-01
4.667200751390074842e-01,5.088932729030526403e-01,4.227631654093703117e-01
5.147597905685601383e-01,5.344118737597649549e-01,4.686169686314151650e-01
4.916516892107603565e-01,5.459508004752453569e-01,5.407762500331775302e-01
5.493158582786847877e-01,5.613179732594045790e-01,5.228162436934259416e-01
4.639880958350927620e-01,4.874260824232575784e-01,5.364032436479105881e-01
4.697063529137835980e-01,4.268720513944711525e-01,4.503216223989419120e-01
4.542135486880826134e-01,4.863055753091520272e-01,5.150211947244653921e-01
4.736080633213327062e-01,4.945775212858744552e-01,5.099203831767936679e-01
5.235916761092017646e-01,4.796337117346873291e-01,4.914404456240691332e-01
4.934807917829116541e-01,5.148580316088020581e-01,5.038188996427924726e-01
5.402032451498940402e-01,4.784518294739989464e-01,5.352130301869760798e-01
5.130166964258037199e-01,5.413695514184656554e-01,5.862717570466140504e-01
4.347081339482785078e-01,4.634233406348335360e-01,5.401065099526669577e-01
5.228090003757034365e-01,5.511472044516181334e-01,5.724921238516305078e-01
4.687793489554215043e-01,5.302768659894581127e-01,4.223661800760801777e-01
4.381700008550641900e-01,4.797100512443925324e-01,5.521013157247107728e-01
5.203855981496857686e-01,4.763597815634275090e-01,4.354702852288266368e-01
5.890760263260994556e-01,4.818932239608906265e-01,4.728480061067440454e-01
4.756191918928652784e-01,4.853030948856620896e-01,4.600946276749828812e-01
4.434068571397272729e-01,4.752131578140349477e-01,4.995148943077967196e-01
4.997368175731976003e-01,4.445684656273878876e-01,5.209360942548754148e-01
4.998692172662092537e-01,5.270494104361130860e-01,5.313689944463181325e-01
4.664098611213325363e-01,4.356070188506176999e-01,4.776576735425109854e-01
5.341320859721176983e-01,5.037361263997947036e-01,4.620233412910506043e-01
5.310727478158074888e-01,5.545821325755374565e-01,5.325609348082912531e-01
4.086473808370872929e-01,4.780986269144000822e-01,5.463726016130489027e-01
5.668724354990417602e-01,5.196028270595870469e-01,4.943368949546823599e-01
4.786915184986600402e-01,5.092267957939672351e-01,5.453502913401779839e-01
5.196969188652058591e-01,5.138930721328378581e-01,5.450632758016308310e-01
4.954598921179231841e-01,4.751691161256462181e-01,5.033092900252355006e-01
4.985538637469812406e-01,4.942549940399917352e-01,5.345249742793148906e-01
5.121913598322340722e-01,5.492884467923041525e-01,5.205327039399454403e-01
4.218485878327297156e-01,5.272372288304316701e-01,4.107520491060743795e-01
5.262706005344021110e-01,4.950667229841548278e-01,5.499380703508078838e-01
5.173658589074424663e-01,5.546813555054070921e-01,5.361914299300664100e-01
5.435302686157181817e-01,5.481349265174149110e-01,4.298759699125022649e-01
5.204436928862359313e-01,4.458619982853588848e-01,5.023519937351100806e-01
5.296117437923574256e-01,4.730335830465935976e-01,5.106544978568552384e-01
5.108924109591982399e-01,4.739749167129506113e-01,4.901227551833545748e-01
5.227619879447382711e-01,4.832806648258785587e-01,3.718144002696497363e-01
4.436768431374421562e-01,4.800614083120988695e-01,5.316829688162786338e-01
4.962811192186135090e-01,4.878931791807909479e-01,5.543513129490503788e-01
4.864644987421642419e-01,5.125392212329185071e-01,5.215576954051309722e-01
5.339855399885131693e-01,4.756773590636687588e-01,5.757002618526702031e-01
5.473197482269694936e-01,4.486246264294849739e-01,5.059314611480226764e-01
4.540573450271129241e-01,5.420488929875072470e-01,5.145210921145375593e-01
6.050745137079870384e-01,5.888142175548173318e-01,4.864395566325252496e-01
4.918330420942257919e-01,5.013928365702867707e-01,5.046175131632235633e-01
5.044028118715669917e-01,5.077803931520191716e-01,5.218519947158578587e-01
5.165886222649082038e-01,5.244550276763788599e-01,3.886777482286761787e-01
4.982646920998156093e-01,5.383855218649065133e-01,4.605846197349092175e-01
4.766494631360824741e-01,4.867981255344177027e-01,4.923392893035188900e-01
5.617376224858169342e-01,5.185636651016108933e-01,5.187417359041043285e-01
4.990790732394542184e-01,5.271378114131802795e-01,5.409765884976808215e-01
4.373835646487900242e-01,5.128899864576483836e-01,5.643043408218845203e-01
4.849770927184561820e-01,5.519067810530796647e-01,5.016971170869298779e-01
5.814164194520613504e-01,5.184662439567089276e-01,4.586617785515702539e-01
5.146001168983185270e-01,5.062855245953409300e-01,5.117944894034468506e-01
5.277804660387763747e-01,4.646550332261440985e-01,4.975816764063583642e-01
5.079225875753565767e-01,5.139983217424597406e-01,5.969535340728974182e-01
4.388473263594713236e-01,4.959145472593958215e-01,4.650387401954688138e-01
5.540829214579494622e-01,4.842336634099122517e-01,5.112597260128901588e-01
4.707235003964423403e-01,4.917812256129445725e-01,5.580220970367039124e-01
4.716140234056818148e-01,4.625970390879172722e-01,3.998199046546895286e-01
5.599859596780764059e-01,4.837036647505795761e-01,4.651243620565391756e-01
5.042231057559695140e-01,4.600818610666733699e-01,4.450606461700314931e-01
4.538088390673660211e-01,5.235195941349223281e-01,5.715641153978326949e-01
4.966238858502287079e-01,5.153170654277430263e-01,4.833692306477010980e-01
5.093075714856448721e-01,5.008814334326086026e-01,4.759875926575751759e-01
4.135656518110059632e-01,5.133271294723836808e-01,4.803484327567672518e-01
4.507914897835739176e-01,4.668565505077330036e-01,5.079890085286530299e-01
4.684207727747589090e-01,4.864861104047022433e-01,5.294372513477375586e-01
4.505496035638526520e-01,5.004585658472597842e-01,4.829572926446125125e-01
4.856804949791301840e-01,4.690878122739770006e-01,4.559675257430855777e-01
5.214653445403202303e-01,4.264139939620406050e-01,4.908175147448893827e-01
5.261129782115998577e-01,5.528269479998860758e-01,4.842594074325335396e-01
5.076485038168335739e-01,5.392647292108780910e-01,5.150648483024861113e-01
3.930305733923867839e-01,3.952819799112368693e-01,4.874605061356394042e-01
5.600988664716672893e-01,4.980316248242500632e-01,5.186452304537312319e-01
5.200812161769617914e-01,4.536319754393600689e-01,4.748636485822640974e-01
4.864509502377283301e-01,5.000541050608257043e-01,5.350595486704566861e-01
4.963370625259543312e-01,5.126244219885546238e-01,5.288141147067390024e-01
5.280893614485794307e-01,4.662515988751170237e-01,4.842221579198874859e-01
5.098222373947051134e-01,5.610382844557429971e-01,5.678387297268053802e-01
5.214852389666114751e-01,5.043024700210817501e-01,5.452789092136964832e-01
5.139656819803105625e-01,4.476483598442351775e-01,4.930703307743295460e-01
5.151552457538376428e-01,4.355232752809296004e-01,5.035609228185993214e-01
4.538180495358116739e-01,4.568414837604369283e-01,5.480338510828058896e-01
5.939640507131604963e-01,4.744807318403349017e-01,5.417113675231309822e-01
5.106549777800618584e-01,5.416579684516731330e-01,5.013480369752488786e-01
5.518533802251208709e-01,4.250650927663537915e-01,4.746230144442025178e-01
5.238447233994781849e-01,5.944166095054108645e-01,5.098869214899752755e-01
4.507875041511452130e-01,4.349887947932327692e-01,4.470104891030255434e-01
3.655534863752096797e-01,5.112062210496638448e-01,4.884743397119835073e-01
4.856086730415306030e-01,4.243227687099467849e-01,4.696155424185917138e-01
5.367005041486740957e-01,4.922442718587218824e-01,4.803564221616751784e-01
5.240456470474138539e-01,4.035578138454031238e-01,4.740733167129593251e-01
4.952103267009559939e-01,4.767959699079731273e-01,5.323274713932351077e-01
4.781398687482073528e-01,4.563618419592558317e-01,4.819801095128707913e-01
5.525156098609096400e-01,4.356049694481367029e-01,5.055329786179368901e-01
4.660156409195446159e-01,5.429636768362472443e-01,5.137633083606830686e-01
5.826908365830033576e-01,4.101375965626968823e-01,4.738115784700895894e-01
4.857449494949200308e-01,5.283561816786122023e-01,4.662209855125292735e-01
4.833799331917476017e-01,5.169254992410442506e-01,5.163587633027636459e-01
5.268403514906730978e-01,5.333635763345240255e-01,5.245476328336435845e-01
4.632396006725427728e-01,4.889151653513402196e-01,4.785370499555903212e-01
5.120095417728326437e-01,4.337821912768566324e-01,4.868569899382578225e-01
5.179503506141789337e-01,6.000879649204982069e-01,4.512600295964365182e-01
4.395755354736860521e-01,5.053352075399052401e-01,5.097262579788871539e-01
5.576460657398328857e-01,4.937918523737088172e-01,5.685317841724318866e-01
5.064093480805673675e-01,5.058051694378560281e-01,4.903113739558030426e-01
4.625463397806348631e-01,5.158617853674974940e-01,5.000615264620742462e-01
4.909977653867771963e-01,5.099181885474934894e-01,5.043828088493552686e-01
5.104569516442262200e-01,5.011688927951579720e-01,4.891245823321649366e-01
5.002614540838131729e-01,4.313949485983057941e-01,4.577013495158490097e-01
4.802855793268060447e-01,4.664859567994278366e-01,4.167405683607430800e-01
5.083500249294145013e-01,5.046384551916508476e-01,4.912931094542873911e-01
6.023275001745053148e-01,4.962690185872824511e-01,4.794059621304576635e-01
4.954441598495170629e-01,5.701768117024093030e-01,4.492870222694504423e-01
5.008501081808374167e-01,5.485534992652050246e-01,3.988194395476151177e-01
5.622972591345072324e-01,4.528569471844511307e-01,5.167369212244747878e-01
4.803291485834031427e-01,4.751895763005889450e-01,3.619449907227829111e-01
5.360431549553794639e-01,5.106950236028794388e-01,5.832986403027535793e-01
4.844045304224213200e-01,5.611131912032094604e-01,5.042016272091127682e-01
4.407077437523158614e-01,5.127269968645177256e-01,4.525194060931813644e-01
5.722156659050288141e-01,4.737731833039332541e-01,5.081415555892094815e-01
5.078650747656522357e-01,4.635123444282169269e-01,4.902866533205601507e-01
5.194151178600331376e-01,5.644174491548313854e-01,4.364551025270499429e-01
5.151430745265914712e-01,4.891558034829284751e-01,4.330143024740968349e-01
5.001204793154331307e-01,5.415757241990833970e-01,4.995561545519535684e-01
5.641030075968053170e-01,4.133110350489447304e-01,5.301604058943567566e-01
4.894530804420796910e-01,5.576412351916928412e-01,4.288676044120826591e-01
4.746819682568103604e-01,4.890507351047692075e-01,4.611810564327397111e-01
5.539150827009852174e-01,5.115751143207832863e-01,5.431445329443919112e-01
5.388213708869636909e-01,5.213731457544467096e-01,5.263483217116566859e-01
4.926989409623949712e-01,5.419386349847381545e-01,5.284731104177765593e-01
4.582028448231456053e-01,5.132512781966559468e-01,4.990164355863745960e-01
4.752801479213379920e-01,5.045841856554621474e-01,5.195914325590881289e-01
4.918621785434329485e-01,4.699400517545205824e-01,4.912224696811170466e-01
5.310014455905769371e-01,4.528158161579503016e-01,5.377011719447560845e-01
5.060133204709712507e-01,4.862500514178596522e-01,4.585521416010672757e-01
5.677290005263517791e-01,4.808927526633204330e-01,5.206129531749517092e-01
4.594117532658490433e-01,5.357081780586847586e-01,4.707270457120771856e-01
5.447455069473228217e-01,5.276562999297322865e-01,5.013509203418493598e-01
4.801536647338178754e-01,4.892713626712018038e-01,4.251364862259579547e-01
5.321214281096828813e-01,5.194164118888464632e-01,5.518406994869207161e-01
4.898493902576392389e-01,4.969507336745290216e-01,5.455157708787814475e-01
4.943672029308792681e-01,4.657784658394044097e-01,4.873684135933746830e-01
4.168789648919794533e-01,5.478258934473463349e-01,4.729396884985283545e-01
4.229337742596953054e-01,4.984108387320769218e-01,5.077866703338432819e-01
5.434867726079525285e-01,5.589951224912833583e-01,4.982979257940017837e-01
5.126969243175164559e-01,5.108793882906611517e-01,5.257538129210620470e-01
4.482023066598749272e-01,4.708662191922105555e-01,4.901502718548917392e-01
5.186118101759881194e-01,5.066624948333129375e-01,4.882622549942838286e-01
5.097715122222373774e-01,4.999579750424997249e-01,5.065159596000448072e-01
5.096598520427491064e-01,4.746112861022993012e-01,5.259676867005493861e-01
4.919965570617340633e-01,5.011571842380289077e-01,4.840334205571004134e-01
4.766127365986444486e-01,5.322110276533202899e-01,5.232334881030414886e-01
5.149780795548816181e-01,4.561849062655141673e-01,5.200444046201628812e-01
5.663307614015433700e-01,4.342812415780708535e-01,4.890437326739073831e-01
5.135945193977702328e-01,4.790834588276061123e-01,5.133915028052982166e-01
4.488416029125805728e-01,4.901681314641861409e-01,5.377816891425158952e-01
4.537777202201124793e-01,4.727087545065283836e-01,5.050327585079709136e-01
4.485573854732137211e-01,5.250557428409038385e-01,4.225015347496951512e-01
4.963422787858801088e-01,4.970911018707971363e-01,5.860450461090052077e-01
4.988751277520620531e-01,5.903122986105316938e-01,5.635886449672649068e-01
5.127620523316410717e-01,4.447683108545344988e-01,4.724789109592011371e-01
4.427931110488660393e-01,5.037392780125810043e-01,4.419368110785826254e-01
4.576583161428387503e-01,4.573441254299593917e-01,4.978321936926781710e-01
5.033297784614274573e-01,5.625737271110666793e-01,5.125860580674829192e-01
4.565805919831285031e-01,5.289338442868813939e-01,4.746806825084669001e-01
4.948389736944953099e-01,5.287921718230215173e-01,5.117470815484465030e-01
4.838953349843339580e-01,5.141575154941904202e-01,4.903206012648583800e-01
4.842809619317805514e-01,4.582374438104865888e-01,4.995212079634001046e-01
5.335481257236917019e-01,4.396630713279944813e-01,4.920513860699112785e-01
5.579357168973402281e-01,5.215422129247888616e-01,4.965334763407074359e-01
5.312489854377724363e-01,5.026447389533633681e-01,4.414582912622049826e-01
5.055023302127124030e-01,4.328000705702249595e-01,4.859817400936148335e-01
5.052738814439254877e-01,4.715800022751749365e-01,5.870498217369537475e-01
5.026900347833173077e-01,4.425901098913860854e-01,4.933534130315800903e-01
4.777559972379354924e-01,4.640785924420527397e-01,5.041634720250723900e-01
4.883605615224140273e-01,5.187003838007767653e-01,6.300173059810687537e-01
5.262264345658123066e-01,4.822851313982233212e-01,4.819508106053222440e-01
4.831739592328158639e-01,5.025959616518554940e-01,4.146649402209202639e-01
4.827336678972224959e-01,4.881497004817262342e-01,5.149340246350204708e-01
4.371776384651599456e-01,4.603473277653444273e-01,5.166596166256525180e-01
5.276589146044923240e-01,5.311473731453476566e-01,5.484993733624407009e-01
5.199368141992345427e-01,5.149588396863752360e-01,4.898936373515173637e-01
4.844352364453750059e-01,4.888318844852544420e-01,5.084865540649823323e-01
5.153695202915606899e-01,4.673699107358278981e-01,4.830907089708929014e-01
4.745153875882624495e-01,5.185130165325783080e-01,5.299337208630836571e-01
4.335534842046688264e-01,4.692265682178830555e-01,4.344983391218823487e-01
4.584088135013539844e-01,5.097274840904798543e-01,5.587967226221943751e-01
4.982069760175150686e-01,4.974511482002690332e-01,4.700083550996380088e-01
5.303951299120959195e-01,5.164785856336526759e-01,4.835834201438411473e-01
5.520281549694268097e-01,4.958383778692190824e-01,4.025404332992542633e-01
5.174046774159850592e-01,4.813340137838594268e-01,4.768933847582884078e-01
5.108124252484121941e-01,4.147909632719047335e-01,5.407757508590070872e-01
5.106327406137716185e-01,4.968136072561276650e-01,4.682375848679287689e-01
4.863315147188534415e-01,5.418966278871032438e-01,4.950177745518714589e-01
5.050834602636508075e-01,5.125261391324943405e-01,4.684202685779026432e-01
4.795997971007435190e-01,4.810771375826117247e-01,5.403642996712020308e-01
5.774742882936844124e-01,5.129371178135437859e-01,5.437432472886644108e-01
4.708890786736319445e-01,5.231996244687365794e-01,4.633092211113714609e-01
4.487528806399095904e-01,4.837263351845951243e-01,4.857143618016863673e-01
5.483032234230722501e-01,4.691272912547389540e-01,4.921027287483621948e-01
4.390939819833267199e-01,4.512833266994372705e-01,5.458579954751756613e-01
4.791310024694495628e-01,5.334133991997765945e-01,5.316098119460841431e-01
4.839100507010120067e-01,4.823074272421242759e-01,4.729591836048699371e-01
4.376843441086084030e-01,4.707436143081344393e-01,4.714908114582850307e-01
5.248678939812034816e-01,5.161442366030493112e-01,5.082427780894170910e-01
5.121593876308263571e-01,5.203091186251871392e-01,5.275930541884337188e-01
4.998704979404775539e-01,4.639821435634480240e-01,4.807676951942460586e-01
4.076519854213414007e-01,5.469072847407913107e-01,4.321724842449297110e-01
4.720719875534358234e-01,4.359837865454978534e-01,4.435445998449576432e-01
4.238482892452501427e-01,5.122305380861454926e-01,5.048785415445149471e-01
4.846347687828509443e-01,5.055875282328859965e-01,5.886402897427259751e-01
5.718692521560376774e-01,4.119882626728420538e-01,4.982465320484374960e-01
5.431346801081695652e-01,5.841088892428497603e-01,4.802710183753123863e-01
5.458612963057035694e-01,4.760762328064425120e-01,5.070600863379567391e-01
5.488030307377269601e-01,4.675035814196934481e-01,5.147250830810152777e-01
5.370949749347185831e-01,5.495823774620335334e-01,4.328378178991584835e-01
5.792282843325493591e-01,4.792467617601277596e-01,4.639696017890479474e-01
4.751527858647556224e-01,5.001348687565265738e-01,4.306367928924599853e-01
5.058563814344428922e-01,5.438774359030800198e-01,4.694171856967100376e-01
5.252363839234281961e-01,5.080674335208246184e-01,4.102396294312379288e-01
5.399152919281300367e-01,5.127558245544212578e-01,5.393223152710552304e-01
5.413410025863981678e-01,4.780920538502794193e-01,4.155538900349925457e-01
4.857354671947721192e-01,4.652824107616970739e-01,5.698471004549823249e-01
5.237038104487002910e-01,6.234556015820159613e-01,4.427759306766623770e-01
5.215654915657050861e-01,4.684594453430442340e-01,5.425700008786310535e-01
5.350461152252466990e-01,4.776299270215358939e-01,4.986747806220114820e-01
5.439726221514411542e-01,4.588049829843184879e-01,5.156209427443172455e-01
4.459324453724184401e-01,4.934251948406420119e-01,5.436153332085793544e-01
4.687071837105287742e-01,4.996125870192972829e-01,4.276587424998191667e-01
4.997183671750375922e-01,5.534545106667774217e-01,4.076343583987995234e-01
4.322450358748815002e-01,4.555082752913634514e-01,5.761496685919446081e-01
4.640949159326536178e-01,5.081313304076408022e-01,5.177518798339227901e-01
5.008905444588994671e-01,5.294779203860124905e-01,5.052228647349278345e-01
4.768126301207475937e-01,5.392448534765098556e-01,5.342090649872166530e-01
5.153689066665144702e-01,5.193209860792130650e-01,4.875558030292521106e-01
5.093418486003959966e-01,4.443874598655384589e-01,5.296821063304281152e-01
5.750693906745711903e-01,4.365046356232895053e-01,4.227965921338097677e-01
4.902024195466216927e-01,4.915775168978198106e-01,4.463518021007090719e-01
5.259981948246018613e-01,4.223840278326909670e-01,5.372629815994010016e-01
5.111101509782591812e-01,4.698070907670875429e-01,5.046205109396372235e-01
4.861369844491838510e-01,4.419748121956314502e-01,5.404418127622968582e-01
4.679506414865425845e-01,4.372243497083081465e-01,5.168361470257133439e-01
3.886048507469157531e-01,5.440556687377813283e-01,5.459881119731921917e-01
4.228200565392191135e-01,5.378148294247820926e-01,5.094716291720553514e-01
5.538731652238656489e-01,5.069405953474439563e-01,5.110585590266900624e-01
5.023178652409848732e-01,5.601012581238213883e-01,5.432696541618811104e-01
4.653637539382536326e-01,5.437859163931811901e-01,4.825115592167608103e-01
5.425822864096785381e-01,4.581874667051540340e-01,5.520494509010759332e-01
4.944491077387425659e-01,5.348360992631455701e-01,4.918724143728711029e-01
5.562070249584378789e-01,5.079083185108907994e-01,5.594051966840586365e-01
4.856555674052535632e-01,5.139069774880508090e-01,5.189051372227939662e-01
5.416485904881075397e-01,5.677086265503801243e-01,5.109363497587806613e-01
4.850402007252012093e-01,5.425675693311744485e-01,4.190999951244099297e-01
4.682031862823705093e-01,5.009406426212127394e-01,4.122617175668509826e-01
5.410368033295952506e-01,5.400855617881265003e-01,5.262638264478259886e-01
4.960755969019338685e-01,5.030930833326499041e-01,4.395565903617785763e-01
5.058206123427608780e-01,4.586220683383469554e-01,5.020994465860045830e-01
4.909292860894458044e-01,5.098920135711501045e-01,5.084406316534748616e-01
4.288856040495329647e-01,4.539246412298553746e-01,5.285023389488928691e-01
4.817871343921693028e-01,4.603971758881084120e-01,4.990070596457967800e-01
5.085189772560236854e-01,5.016458113231114790e-01,5.118373698704776764e-01
5.897935049187484902e-01,4.878625643383162069e-01,5.295874100249491345e-01
5.685871661711688896e-01,5.136076127511587375e-01,4.517814540445307392e-01
4.051343906676250772e-01,4.725381091906526998e-01,4.610556698231980111e-01
4.120301549849808009e-01,4.781611340200144777e-01,5.717622770995491877e-01
5.063478618159881206e-01,4.733097734684871827e-01,4.671017929513577305e-01
4.326472295617266872e-01,4.893987534505839232e-01,5.164839352309962273e-01
5.156033205750407689e-01,4.757311728580125298e-01,4.645791719214976134e-01
5.059378450032628871e-01,5.051322411275581681e-01,4.358082068561333067e-01
4.582584532303430880e-01,5.729440363535442948e-01,4.343384760020735369e-01
5.773281461381924995e-01,5.171361245453979238e-01,4.982019522726346406e-01
4.509655955582940745e-01,4.690823361685802495e-01,5.582069793431243543e-01
4.549904277621834026e-01,4.962845993384349952e-01,4.660149253368000566e-01
5.427471861018329236e-01,4.652924417101014787e-01,4.295640024332228468e-01
4.783902034209107645e-01,4.901761454663255968e-01,5.045017869643483310e-01
5.253740322694505638e-01,4.388127741798671932e-01,5.135341485843196718e-01
5.452105197086049015e-01,4.926063579524350144e-01,5.613774188561889700e-01
4.767165513922556608e-01,5.463810366324868273e-01,5.077111645947377516e-01
4.696713688366955797e-01,4.720427101445420770e-01,5.804751555008601516e-01
4.653099847499608255e-01,5.475651062142988801e-01,5.426113326238610757e-01
5.543349023701947820e-01,4.435796376194697244e-01,5.043830861572549118e-01
5.728982392916796007e-01,5.488174416195411576e-01,4.766013782161868662e-01
5.741870608353957239e-01,5.247570719561381880e-01,4.845031790938355565e-01
5.391038390785853895e-01,4.861326122511238079e-01,4.685499876308483191e-01
5.343456763860359171e-01,5.193669208510961477e-01,4.603296513536283552e-01
5.615315994839403801e-01,5.202035701960381342e-01,5.534026519587164072e-01
5.545206401721793910e-01,5.422893980714056372e-01,5.526575353517151346e-01
5.061509951490291703e-01,4.809942567921913770e-01,4.759576627311510322e-01
5.110031730398268968e-01,5.181216464868533267e-01,5.184936747069921470e-01
4.771555184421825690e-01,5.141864657466372890e-01,4.922065469727350262e-01
5.178347136384283678e-01,4.842371038796086102e-01,5.342295616783671042e-01
4.447901771380423641e-01,5.204057673588220467e-01,5.654576188987323615e-01
4.767233808387525418e-01,4.284454051975819522e-01,4.670949761056794047e-01
4.873300978017859886e-01,4.653332397036145096e-01,5.184371091816191157e-01
4.615938097695654330e-01,4.164558695360203178e-01,5.373994495434296637e-01
5.145447077114063683e-01,4.883332954721262276e-01,5.629310640051280457e-01
5.160002772912938296e-01,5.237986635778479894e-01,4.875935186796207521e-01
4.614057868079963209e-01,5.557799512638265105e-01,5.196452166890878077e-01
5.530099964020686043e-01,5.179264313296239042e-01,5.104835886814037549e-01
5.318464136298424183e-01,4.638186972163861332e-01,5.014565952682800143e-01
5.082951980465874042e-01,4.678099257668604793e-01,5.008814376198127416e-01
5.324779461733556429e-01,4.641210267616440732e-01,5.205728683868192652e-01
5.302449204695851570e-01,5.579068326918732446e-01,5.127770027440826661e-01
5.043303707663446822e-01,4.469081662416902745e-01,5.101157319976444837e-01
3.898763225920156006e-01,4.972215934499072398e-01,4.673891233220803243e-01
5.407675051668437982e-01,5.180459697347979953e-01,4.380907883876926645e-01
5.070962501793045973e-01,5.291590643575638797e-01,5.520792427602529973e-01
4.847691779369348586e-01,5.023711302025682945e-01,5.275211377591689788e-01
4.852898993876471057e-01,5.205076006223779972e-01,6.034993697103770982e-01
5.367194098755114773e-01,5.058775866790546916e-01,5.946861891730599314e-01
5.150155948160310970e-01,4.647576516454671736e-01,4.889077272573834620e-01
4.825904375035636740e-01,5.379744112061115580e-01,5.281227488998391228e-01
5.174452191170677562e-01,4.397271706767950095e-01,4.950037334993000471e-01
4.918044825839781864e-01,4.564535348984284369e-01,5.040025688987456176e-01
4.517667900279852544e-01,5.202503042282203838e-01,5.269918724596712734e-01
5.315801786670725226e-01,5.290231205334693376e-01,4.798452933672088805e-01
4.910327892746736422e-01,4.864804798298025812e-01,5.493267702312616407e-01
5.322770635094660197e-01,5.156281124679538141e-01,5.167616020868056603e-01
5.287256381062722665e-01,5.276219888582110995e-01,5.555216163831974141e-01
4.655061261766422764e-01,5.177757322077622959e-01,5.216145318954551469e-01
5.607609402533186849e-01,4.719410728169571301e-01,4.131477558214526891e-01
5.068124761372413412e-01,4.979724114901460941e-01,5.131444822995027133e-01
4.860141637714132101e-01,5.006971638445860684e-01,5.120111246039882325e-01
5.152915134217773696e-01,5.110101643471846034e-01,5.262992059789928234e-01
4.676365731479212862e-01,5.114822227719416636e-01,5.467295649730776752e-01
4.973680592749828433e-01,5.563818144302189461e-01,4.301020353920652628e-01
4.903978138275782439e-01,5.335627918685688087e-01,4.897599024224825182e-01
4.294175021758294686e-01,5.208527125493321863e-01,5.061120313419708028e-01
4.072709179153424786e-01,5.189401022275282882e-01,5.163130541814267005e-01
4.729579366310568411e-01,4.994767716669988311e-01,4.786678184097212241e-01
4.815801271856800514e-01,4.822858801709950516e-01,4.472934360617444316e-01
5.436321943386327460e-01,4.984052208944423912e-01,4.704947404067206240e-01
5.170684007803777460e-01,4.522129743601011054e-01,4.474687166358596868e-01
4.826244764101189078e-01,5.167376927256978059e-01,5.124683215804776149e-01
4.289827565372936191e-01,5.371539910395740636e-01,5.743799269273994756e-01
5.272108904844451382e-01,4.794142855407996229e-01,4.878185866615568078e-01
4.468534885093931597e-01,5.112496296196570311e-01,5.428308824391920862e-01
4.618282706769323287e-01,5.764862259841189163e-01,5.158125845182166547e-01
4.436123719289153944e-01,5.071132274497477388e-01,4.867778917318729137e-01
5.293361145122477129e-01,5.123146794865791609e-01,5.401736027723554878e-01
5.054128322109903149e-01,4.252351363945586771e-01,5.760271912412353590e-01
4.854258742540190630e-01,5.736044573596926766e-01,3.991766449092364888e-01
4.844571862694370679e-01,4.916366176813825595e-01,4.400203817781509485e-01
5.200243421092377583e-01,5.316588556551284928e-01,5.582698240755683550e-01
4.927331121439976758e-01,5.154975209125945979e-01,4.984935718007901251e-01
4.759633158298022249e-01,5.034909101220822469e-01,5.575787360932701331e-01
4.729748284455916330e-01,5.237013547099724775e-01,4.568834601319589073e-01
5.563816406483946819e-01,5.105457788869719460e-01,4.584490392901515166e-01
5.434766605641219162e-01,5.401145966323456227e-01,5.339388300314487079e-01
5.293695779766003362e-01,4.910958944235406243e-01,5.439305583790293719e-01
5.318127405490734594e-01,5.295858986253992873e-01,4.887662358037907495e-01
4.497800886636601492e-01,5.125364741669442559e-01,5.580563134195639652e-01
5.106853462486634632e-01,4.548551189449108745e-01,5.121943699936026828e-01
5.454206730129163017e-01,4.859965551190739697e-01,4.632853829500548359e-01
4.910637903194040033e-01,5.621487765424609817e-01,5.492052035102418239e-01
5.527379796904319242e-01,5.019566477748945710e-01,5.392684224341602883e-01
5.285203982682136203e-01,5.259518373050751094e-01,5.782065859939222729e-01
5.496881407269947895e-01,4.777659093817578362e-01,4.991789308634042022e-01
5.130206019723829725e-01,4.648428359555092926e-01,5.411511228660271788e-01
5.351961988353829414e-01,5.493995287572153163e-01,4.837387201129607628e-01
4.161255165648496401e-01,4.924758529407007313e-01,4.624145475556292739e-01
5.081715360252851976e-01,5.088276011220068673e-01,5.157355507882038781e-01
4.688505102364341481e-01,4.733848575972028905e-01,5.113378293678073616e-01
5.427103625015592403e-01,4.433177580806049733e-01,4.814015140744979382e-01
5.929231102339108661e-01,5.344443592214752625e-01,4.652872235505584597e-01
5.793956344109532086e-01,4.955522818071026458e-01,5.044617556688526516e-01
4.864506553722612314e-01,4.494962214553868685e-01,4.488172978879086950e-01
4.881292233991667007e-01,5.728232343881862754e-01,4.952327052260375173e-01
4.477441981403829097e-01,4.697524198856987132e-01,5.443339076745715710e-01
5.070198169980998371e-01,5.292187545583179054e-01,5.237005400816306944e-01
4.822613396231918981e-01,4.784705938121765478e-01,5.073329554961020227e-01
5.406782479705856126e-01,5.916883666805986541e-01,4.929812992743572431e-01
4.449264703848370139e-01,4.396648926583338057e-01,4.994258117460659285e-01
4.928848537116880535e-01,4.866069944907466249e-01,4.736952314974455236e-01
4.509812459632007720e-01,5.051426016554888543e-01,4.526747297747996668e-01
4.484349732638949759e-01,4.880630655453754851e-01,5.020816350514342163e-01
5.107125761713925405e-01,5.084813426670345970e-01,4.559500245219418879e-01
5.299650754586838763e-01,4.762491864411642073e-01,4.449993961588317171e-01
5.423425100507986985e-01,5.556301598091577532e-01,5.442388235026366372e-01
5.301803646128896430e-01,4.929585695222749586e-01,4.469581028540314249e-01
5.005707518393228694e-01,4.606964236102931709e-01,5.596245451536906446e-01
4.707133075428195368e-01,5.978753607866214015e-01,4.948439232578930591e-01
4.817883017262898360e-01,5.157151040511950280e-01,5.453181582664070604e-01
5.640344615020546071e-01,5.736169347973874011e-01,5.129603816221337542e-01
5.828127121846945480e-01,5.430294122342685936e-01,5.719046690940466915e-01
5.720484663790409430e-01,4.585012013365260541e-01,4.936704871454193344e-01
4.836969020365934901e-01,4.998636525001585174e-01,5.162851289524234000e-01
4.835554127518637002e-01,4.930225337735995583e-01,4.838037712455620643e-01
5.054380276920638071e-01,4.358508608942125995e-01,4.868157453325127615e-01
4.669198693526349642e-01,4.830564386526350340e-01,4.993565454895882993e-01
5.323598172262763439e-01,4.959101680879498542e-01,4.396614231805762718e-01
4.500315656064041159e-01,5.227865657638131047e-01,5.225284611365660359e-01
5.098267613738522996e-01,5.071200147069632180e-01,5.108859633366001907e-01
5.045254099177051144e-01,5.667795641163901887e-01,4.777857367413504974e-01
4.960792591137898611e-01,4.711780386275895016e-01,4.415893662116308072e-01
5.115685745112514837e-01,5.309213992758622380e-01,5.111871729272464693e-01
4.548999409828093921e-01,4.489757406879871238e-01,5.023769534180203555e-01
4.430241026713169217e-01,4.413033143391013602e-01,4.501922021608105173e-01
5.441555598043845698e-01,6.208167065229072135e-01,5.094870547618330914e-01
4.173517540160676664e-01,4.928604028793109881e-01,5.665574600699034846e-01
4.829351103969702352e-01,5.116194537209336479e-01,4.457713755610103745e-01
4.382942681157042664e-01,4.780508079610481520e-01,4.638578351119087007e-01
5.167641788150674209e-01,4.987684340335427069e-01,5.085611710159315679e-01
5.430924053142777153e-01,5.041666236939768009e-01,5.035075929341076284e-01
4.886030693155570259e-01,5.607090054845351723e-01,5.512542828406687967e-01
4.918122759486968087e-01,5.114142269077877057e-01,4.311706572942424209e-01
5.733725812746393036e-01,5.762761979173187665e-01,4.985292427934701065e-01
4.745327261053827184e-01,5.074495982118185644e-01,4.967376475251768508e-01
5.573925384126654503e-01,5.019902079960687491e-01,5.292212050357489872e-01
5.247836893719914908e-01,5.037769622829245675e-01,4.958543536843041943e-01
4.388472213841502767e-01,4.490043355826320859e-01,4.794860244959691098e-01
5.384850790846508195e-01,4.945451030316658225e-01,5.192274794318950670e-01
4.846706521371831333e-01,4.506192898784008305e-01,5.640291955513146993e-01
4.787342291924086002e-01,4.818507484108215388e-01,4.791205653879093695e-01
4.828021236211516576e-01,5.735738369930187819e-01,5.711928769843503950e-01
4.931503812720181568e-01,4.575841517197958841e-01,5.155147285336743046e-01
4.844884740580767679e-01,5.385080742232842832e-01,4.960334117972355350e-01
5.189651328020308263e-01,5.350514496514972018e-01,4.467644868741569297e-01
5.265672789414462818e-01,5.155708286911391269e-01,4.357056100603400317e-01
5.140023786041296727e-01,4.870007528890428206e-01,4.187341282419998478e-01
5.068964349898954502e-01,5.216875007773593698e-01,5.236873458627959721e-01
5.305291058769673329e-01,4.586972771826143824e-01,4.934204621412641711e-01
4.836920985271458973e-01,4.819230472291863299e-01,4.339438227310384866e-01
4.396815284809227897e-01,5.217057837793205310e-01,4.793845720625905527e-01
4.492041838238250984e-01,5.351240270339683303e-01,5.264686208022464342e-01
4.728448748787822953e-01,4.865075911041584211e-01,4.926682469761078376e-01
5.438049220300638087e-01,5.413040519488597768e-01,4.551715050374689486e-01
5.218432820760838808e-01,4.275558902947584339e-01,5.679722274757651457e-01
4.800794088635917389e-01,4.823154933022114621e-01,5.491418192357332417e-01
4.663334768672254826e-01,5.102677623130799089e-01,4.538308847281935510e-01
4.604825335119207552e-01,5.089375272105470804e-01,3.876015881031317223e-01
5.441608162892261902e-01,4.958516609221766402e-01,4.483531748173986142e-01
5.291139018087126500e-01,4.671957257638592043e-01,4.822659799192977048e-01
5.785810112821708762e-01,5.022072492715240477e-01,4.671244046141077022e-01
4.998119783217367940e-01,4.740037866158423041e-01,4.986781757267461646e-01
4.565115758366380949e-01,5.227063817423009962e-01,4.921767693749377615e-01
5.459105806090125412e-01,5.289789605454165988e-01,5.047867796073618463e-01
4.918651245472389077e-01,5.165566700877484152e-01,4.824554946579318049e-01
6.174358029000666104e-01,4.359786647639214419e-01,4.726320332310631200e-01
4.707743790685754992e-01,5.218616166150018554e-01,4.788901046289690822e-01
4.247870256493387897e-01,5.673282865568799460e-01,4.785500262293765905e-01
4.566612597571302889e-01,4.482221445613587263e-01,5.463405635599990484e-01
4.730696673889160930e-01,4.908106198850845647e-01,4.798921490502555121e-01
5.146484992615081300e-01,5.064100533697607487e-01,4.644816558462713796e-01
5.420650953539151162e-01,4.912212135481369701e-01,4.513931079474098884e-01
4.298535321994613745e-01,4.896411559282458081e-01,5.852807744664806355e-01
5.041891389367455512e-01,5.446985590382739106e-01,5.131334849792971164e-01
5.023657022273230188e-01,4.471761324924116154e-01,5.133372684627444116e-01
5.341135069900181387e-01,5.089556222505655647e-01,3.814587301551748411e-01
4.768879203923453436e-01,5.547960953396046113e-01,5.015066030590263901e-01
4.727522071207731491e-01,4.801111987368492651e-01,4.684438924464266463e-01
4.785803549600871065e-01,5.349601449635945638e-01,5.652188831483625497e-01
5.411775090542837452e-01,5.070782207686703735e-01,4.816142475470867046e-01
4.881863198349886135e-01,4.987652395221141011e-01,4.216191453095128883e-01
4.929523586771068500e-01,4.794094692242975575e-01,4.908909146756009756e-01
5.285177212001732627e-01,5.168704568019055756e-01,5.701249785180881879e-01
5.189381883702577358e-01,3.916822787875449130e-01,4.818615131286917430e-01
4.982978118091734854e-01,5.385446225572508849e-01,5.293151700288815098e-01
4.793371516125448095e-01,4.786841287501438780e-01,4.506733754482627474e-01
4.317463366462426233e-01,4.968217547120873379e-01,5.632256622350435560e-01
4.317141385575223311e-01,5.661996658968572183e-01,4.694475893922421261e-01
5.037149718459231762e-01,5.248815501915408133e-01,4.888962043918632649e-01
5.774162856655702392e-01,4.529502928013665608e-01,4.910650673577154901e-01
5.306341920911240573e-01,4.962286376602398907e-01,4.533417746777412827e-01
5.905481411417159432e-01,4.860797196350384874e-01,4.644226712915018873e-01
4.982126781818887462e-01,5.343624559481318093e-01,5.042934580157135693e-01
4.975126047498137360e-01,4.608194128011167678e-01,5.023378458179512673e-01
5.052854876880699120e-01,5.467337994622276653e-01,4.926148450866523198e-01
5.061708603740664447e-01,4.324684113680722919e-01,5.703493165710747936e-01
4.619844868112359393e-01,4.862914903305006753e-01,4.741798372030998632e-01
4.938393444947394295e-01,5.131349037970136528e-01,5.408655621172295813e-01
5.502613908700609846e-01,5.421842910805735327e-01,5.610696678497129053e-01
5.180816879929592833e-01,4.548009014927912874e-01,4.769953921044760570e-01
5.005312722351950017e-01,5.294591746458978676e-01,4.552017543393925836e-01
5.622123470874794693e-01,4.213834422419266423e-01,5.439682740724731680e-01
5.759541428562940935e-01,5.026679380949161668e-01,5.222644636934519191e-01
4.896542274361064262e-01,5.216135238689149078e-01,5.306052260498289597e-01
4.903729800591663524e-01,5.094213076348054203e-01,4.776133424802563865e-01
4.547842938580231587e-01,4.405474319774091430e-01,4.790389422585838997e-01
4.461525943859470100e-01,4.915638243520779604e-01,5.452285796912569316e-01
4.912161657583544172e-01,4.819137939965683626e-01,5.125991656625689119e-01
5.001015506518706744e-01,4.897144164611348383e-01,4.584340380917754643e-01
4.737003900087888852e-01,4.664243600614259577e-01,5.284974728689568746e-01
5.249338178284727041e-01,5.002231088688711136e-01,5.558609889068742982e-01
4.570907270102237963e-01,5.075824693305941437e-01,4.103432963172424786e-01
4.468810470134860768e-01,4.887789105491199826e-01,4.578715935430715533e-01
5.356300543653755852e-01,4.926992064031186502e-01,5.162842341425438741e-01
5.067150038205637808e-01,4.681595222798752287e-01,5.179811475816078481e-01
4.740548991919115718e-01,4.475739989294402754e-01,4.526326488661778225e-01
4.581481551346062719e-01,4.549687879655210931e-01,5.641586703805885339e-01
5.127252511644551092e-01,4.488647067973947635e-01,4.129987777782511138e-01
5.382017087992623239e-01,5.523549762224733151e-01,4.714693314113044820e-01
4.474590630074469777e-01,5.119274378758731370e-01,4.316085703401527085e-01
5.363966133649147316e-01,4.891067708123990054e-01,5.365454552110761055e-01
5.042286395677030297e-01,4.420701814946274566e-01,4.573515170438784971e-01
5.949065047401644879e-01,5.003472156537390747e-01,5.081471622517369502e-01
4.490938111802463828e-01,5.341051250437874875e-01,4.851794130445553077e-01
5.129455913819026547e-01,4.886167100556746967e-01,4.919839976384545732e-01
5.188850801182371963e-01,4.960236785843129548e-01,5.016510423257810602e-01
4.884266206874882665e-01,5.124149678767432325e-01,4.611751727691620339e-01
4.727159688850789410e-01,4.758587084443052229e-01,5.347011752959039965e-01
4.771902828935890017e-01,4.652481665761162843e-01,4.966859594569687508e-01
5.121733695808401432e-01,4.528020822326255246e-01,4.754906570889318451e-01
5.890984398427367985e-01,5.660402941969477908e-01,5.294775419122947913e-01
5.211606117214494516e-01,5.113184076921447607e-01,5.330630379975597188e-01
4.240888288587403299e-01,4.720392814752362720e-01,4.329619003519761811e-01
5.628234212128351288e-01,4.928769138009550521e-01,4.470712718225207105e-01
4.812544851462780549e-01,4.913165930581661067e-01,4.712603204339397278e-01
5.430702427937329491e-01,5.549718488820730711e-01,5.175827991816113194e-01
4.601098594931173902e-01,4.922284234262618852e-01,5.282000598585647744e-01
5.293287133871871220e-01,5.427985831960272511e-01,4.903338000082940740e-01
4.919991665849237084e-01,4.521712943449304190e-01,4.611687761625854476e-01
5.395549253523710398e-01,5.057087217483539066e-01,4.930097761219240926e-01
5.121921676389875611e-01,5.447762562150828547e-01,4.556558832361168321e-01
5.163914551405990316e-01,5.067105762702476257e-01,5.110365230495178546e-01
4.696772489500184444e-01,4.671292053007060630e-01,4.482495774110312192e-01
4.853075138877718797e-01,5.655347046942198475e-01,4.751873265843515326e-01
5.068076819420556101e-01,5.465288608603295906e-01,4.967345406839836497e-01
5.206813345615750599e-01,4.465561945345181694e-01,4.692995092803487478e-01
4.618955596932781682e-01,4.298455926392961701e-01,4.516530520542813010e-01
5.033297613308368446e-01,4.251572441134236491e-01,5.033216355663179264e-01
5.312093109841763416e-01,4.944198536717938630e-01,4.474611244133215315e-01
6.057523503318802405e-01,4.870072823590503308e-01,5.323551605502059303e-01
5.202894555364334650e-01,5.649438332705576382e-01,4.982943761012092465e-01
5.421864969981565752e-01,5.654027531370823256e-01,4.700897184692525155e-01
4.980161468154358784e-01,5.514226878888569550e-01,4.603172100016315604e-01
4.913702052905877249e-01,4.941177282957631145e-01,5.069583885106985210e-01
5.034740296892622480e-01,5.016815697742316171e-01,4.446753227494697480e-01
4.628072514221038825e-01,4.782134804343256551e-01,4.205927780246781489e-01
4.941896339948168571e-01,4.784283889874743623e-01,5.269481582963765343e-01
5.469754605204298903e-01,4.652766358638617539e-01,4.364939257962727193e-01
5.433699672157156213e-01,4.832077481062101443e-01,4.868584374989893271e-01
4.952565163897564848e-01,5.080091958780993400e-01,5.339654910223804452e-01
4.821809545383033968e-01,4.973284943594633023e-01,5.039962232904752204e-01
5.117959837305329218e-01,5.394721713239714056e-01,4.565273240676808175e-01
4.948998571729396057e-01,5.065967251853340514e-01,5.160172394938304929e-01
4.725204762758355992e-01,5.497294519030651028e-01,4.821748193726687615e-01
5.226450349566336140e-01,5.232781724497767017e-01,5.225941849843963594e-01
5.713061657820495132e-01,4.974654023508767731e-01,5.298350354380307881e-01
5.440240889977829841e-01,5.324759312545868095e-01,5.525419375011261236e-01
4.870402349546525955e-01,4.919672140192449250e-01,6.128885167300831549e-01
4.735684829127783102e-01,5.340153185377943812e-01,5.322083850307801622e-01
4.653423116540534310e-01,5.664213039612849832e-01,5.568729710416984169e-01
5.134503696731895772e-01,4.528640945370590032e-01,4.440892309607608612e-01
4.545529708381909617e-01,5.196942760218871138e-01,5.702064191361001511e-01
4.603687563218318846e-01,5.181465557210243045e-01,4.930056475882851896e-01
4.878558882820249742e-01,5.334151816070061836e-01,4.791173838183591105e-01
4.911112410150313967e-01,4.737524222425693599e-01,5.214936088119305202e-01
5.011637586682916590e-01,4.904801377926455985e-01,4.771208955628508663e-01
5.356485060894943251e-01,4.865604286742187257e-01,5.298265523964813539e-01
4.413360303031579335e-01,4.321690573283819004e-01,4.974929436080627876e-01
4.812146158079988467e-01,5.486307742602198889e-01,4.266997834032917325e-01
4.474031462936882142e-01,4.724245388460837636e-01,4.554532131352678204e-01
5.709292704460975365e-01,4.653022669542517531e-01,4.703074039736770406e-01
4.514551741520112516e-01,4.991955104349155570e-01,4.311625187376977308e-01
5.105214521099611380e-01,5.111945312108010508e-01,4.164370926243700644e-01
4.387169354568114521e-01,5.116050068967935571e-01,4.878641549676101530e-01
4.992008541994050197e-01,4.958096009879360277e-01,4.992624545846325868e-01
4.883120630896442549e-01,5.357040352561615038e-01,5.144223425951746087e-01
5.277428165402817672e-01,4.569788701733539793e-01,5.413703281339823370e-01
4.964459276154494227e-01,5.597275663296870096e-01,4.898678455811216748e-01
4.900398018868657446e-01,4.664471889646272240e-01,4.818051812917897303e-01
5.195130510543201074e-01,5.870132458837894474e-01,5.154144602970257560e-01
5.667139566150215524e-01,4.017277582609787290e-01,4.936132566782294173e-01
4.654884488776176443e-01,5.314922820588697805e-01,5.702017723826481310e-01
5.522180355818385733e-01,5.038105626426471195e-01,5.020929065223128651e-01
5.028767350414974358e-01,4.588976153911602518e-01,5.432028438821157046e-01
4.418379938205271862e-01,4.246889389021569761e-01,5.113586026191074829e-01
5.492809310745347950e-01,4.822479686202680305e-01,5.404953584509709641e-01
5.169580576856743770e-01,5.574017671228812532e-01,4.919801411496027566e-01
4.890176385960543493e-01,4.570026950624443973e-01,4.994557182136675766e-01
5.237075143231664232e-01,4.727658462202780076e-01,4.568553474897790734e-01
5.783570544209102327e-01,5.052160550685692586e-01,5.711653843522001006e-01
4.914022482275374193e-01,4.743590844827203501e-01,4.911253084558409587e-01
5.333354497972958574e-01,4.577656303786741820e-01,4.055916708968609341e-01
5.142679624696410157e-01,5.329194592656657514e-01,4.885618577271305107e-01
5.073087162170969444e-01,4.784100818672328281e-01,5.181739802378411142e-01
5.215868229579271320e-01,4.596756160111420964e-01,4.950592145425229407e-01
5.181517537950560692e-01,5.017355765485553842e-01,4.491596933377534073e-01
5.187697799108555996e-01,4.849241454319909161e-01,4.560909966252524872e-01
4.540205166990629593e-01,5.124015375378027093e-01,4.817647646551596607e-01
4.987792717928582475e-01,5.204508795669784416e-01,5.408958323571959603e-01
5.438342340508932615e-01,4.963452204996224859e-01,4.838939676437053472e-01
5.489096771542018027e-01,5.067126100501930797e-01,5.026071240359603065e-01
5.301701169417961657e-01,4.109026142485185940e-01,4.789787272394723794e-01
5.356564832036513346e-01,5.543086844652740375e-01,4.411585098844937325e-01
5.225143039499535735e-01,5.693040784985650138e-01,5.297409371714379978e-01
4.932853488216908389e-01,5.270547657217192761e-01,5.365766639675858540e-01
5.588318012155394365e-01,4.875137968785429043e-01,4.541125533124484304e-01
4.175764384798866802e-01,5.515318489685928638e-01,4.960892000733541640e-01
4.959737480572881663e-01,5.049146850130353803e-01,4.838636793216621323e-01
5.469607003009042678e-01,5.034882062026598826e-01,5.204656567297470948e-01
4.477551717086750149e-01,4.950042155358337914e-01,4.839995247574129800e-01
5.484088784981528963e-01,4.810330593500051211e-01,5.293277618835942055e-01
5.210944403543380510e-01,4.688035669951939877e-01,5.143981018734345989e-01
5.702754352296688367e-01,3.760416117054594665e-01,5.488245361425202473e-01
4.874867371698577978e-01,4.866937614593533357e-01,4.762253241361525391e-01
3.996742379162240844e-01,4.990489039226114198e-01,4.765956610936733506e-01
4.351896503355195955e-01,5.085152468670643966e-01,5.564429931226531068e-01
4.821388363469905070e-01,4.990215636360103568e-01,5.045555105750545444e-01
4.648634357703250175e-01,5.091002810957927505e-01,4.852423957279750621e-01
4.784292431136745738e-01,4.579675708048066007e-01,5.051669001150524974e-01
5.207904273686262409e-01,5.007588448896804767e-01,4.944678738745887925e-01
5.478729284196945937e-01,3.802867377416959682e-01,3.977457810140410666e-01
5.566929319564650758e-01,4.967183995925404383e-01,5.246142104086348734e-01
5.041520008556531485e-01,5.334134751795504004e-01,5.549864676813421882e-01
4.795826668124461567e-01,4.684077725665150571e-01,5.282034975399543253e-01
5.063381283137295963e-01,4.793492545597407561e-01,4.894082776172526961e-01
4.513856858332279676e-01,5.123354063087475208e-01,4.884004409664289836e-01
5.301884141679549245e-01,5.026427314350285780e-01,4.635284272719509269e-01
6.004417649853307504e-01,4.964882913149559762e-01,5.193929420046755618e-01
4.840890735200523154e-01,4.649269555700110690e-01,4.937824358422158166e-01
5.260212827809165326e-01,5.032546827459534189e-01,5.406174166010454529e-01
5.188378189841118537e-01,5.223089626894417137e-01,4.653425298392347975e-01
4.818649131650599160e-01,5.023770690309116160e-01,5.756955266859596909e-01
5.163091617025196145e-01,5.128681377852658541e-01,4.924116839127516965e-01
5.313340519140614671e-01,5.110238190077137643e-01,5.524585930308186787e-01
5.495341404508271577e-01,5.466708465350060830e-01,4.672022763252149935e-01
4.755282148462378067e-01,4.284509870728290815e-01,4.725558435024426185e-01
4.528057657734159691e-01,4.477037861253339024e-01,4.503057729500096751e-01
5.189682035868693477e-01,5.417834517429467311e-01,4.830721438569058890e-01
5.557080021386501256e-01,5.628668322156163972e-01,5.077459237746028142e-01
4.980151090372098577e-01,4.716457018593163131e-01,5.101051814568622333e-01
4.495499707024456226e-01,4.331651761371483889e-01,5.870528171626340219e-01
4.775044341432737594e-01,5.549321035065480912e-01,5.680730199411262449e-01
5.205477699995189056e-01,4.809945280332932338e-01,5.679200090078088126e-01
4.629123370393246617e-01,4.582459286403838816e-01,4.961139661933151035e-01
5.196928601884338583e-01,4.753306960448111518e-01,5.152615642107883920e-01
5.138273599429402649e-01,4.981792637723261308e-01,5.211644765791915157e-01
5.457325136845024849e-01,4.660499421163664113e-01,4.597947866158166308e-01
5.303639744212418350e-01,4.864123998258062520e-01,5.139458203581117601e-01
4.394430914565521928e-01,4.773944329115748508e-01,4.744933033762411267e-01
4.491576481231477902e-01,5.587560995835193500e-01,4.822911010225269801e-01
4.922458632912440901e-01,4.786462781306151659e-01,4.681704051971546376e-01
4.650263494070950854e-01,5.174366555867657702e-01,5.507738871154986837e-01
4.620341231638934176e-01,4.680316540165702643e-01,5.419453807764704756e-01
4.684241563396798202e-01,5.341084328999979869e-01,4.873052539124320681e-01
4.566274850845758460e-01,4.623407357327951606e-01,5.064907919888637089e-01
5.351831763648784435e-01,4.727821686597047934e-01,4.944645331123641019e-01
4.705882011963087308e-01,4.533660710549171635e-01,4.705468157557199382e-01
5.455741544497076934e-01,5.319996789845080620e-01,4.716634661188723876e-01
4.901089243035362530e-01,5.381461439977385242e-01,4.994483910122055059e-01
4.847280730488450762e-01,4.634403357187806827e-01,4.694340410294026156e-01
5.841304677289298475e-01,4.904842948315586981e-01,4.652496493548680112e-01
5.346581936617657016e-01,5.646872106014168002e-01,4.959230469916244277e-01
4.396991197939976725e-01,5.131287221892109063e-01,4.902745281940531497e-01
4.241536174599019882e-01,4.609718847651131934e-01,5.773120275045079408e-01
5.079483992624378441e-01,5.057347654810160353e-01,5.043304839706717058e-01
5.228607609012297930e-01,4.932957965029956537e-01,4.341916047640352327e-01
5.084887587540349863e-01,4.734327162458030203e-01,4.673624448176325608e-01
4.522496117214577782e-01,5.140806365928234367e-01,4.484274146785113269e-01
5.799177962926653773e-01,5.005500465058354553e-01,4.720073015059170207e-01
5.810747890486223088e-01,5.137710505225288049e-01,5.301104461647879740e-01
4.722860093894542532e-01,5.338565677116494657e-01,5.089826826962631223e-01
5.515329128632935340e-01,5.045329201844713785e-01,4.796197327386597653e-01
4.851951895015464422e-01,4.854444678092076360e-01,4.274533129712577151e-01
5.433087355758708936e-01,5.696947376868118917e-01,5.279248699641501119e-01
4.959496813395778969e-01,5.261831554104425823e-01,4.770360800166129067e-01
3.957149922182214286e-01,4.981812099939710858e-01,4.812853904933587224e-01
4.507034985835432495e-01,5.067076189696270161e-01,5.417277474326951392e-01
5.561980934000858579e-01,5.370711617168951735e-01,5.524387390714331492e-01
4.514649721278515826e-01,5.269477785285746618e-01,5.318765135425058688e-01
5.178708625909026475e-01,4.762221524217846169e-01,4.827761069342636491e-01
5.063170398869926148e-01,4.825434650502145040e-01,5.261897855848240990e-01
5.028176038826154270e-01,4.060547866750620072e-01,5.016240902160413739e-01
5.212507446936510691e-01,4.985529031939562872e-01,5.105005036501967242e-01
4.455002459164204565e-01,4.947401193934934382e-01,4.509591077595846986e-01
5.537758606612329659e-01,4.778355531679481794e-01,4.487087670108773074e-01
5.125483359776059622e-01,5.450918891446144832e-01,4.707086985490256947e-01
5.461376470425952645e-01,4.664074607978303533e-01,5.024850235415668775e-01
4.670050092744755244e-01,5.156539172814977867e-01,4.636337111901772112e-01
4.392022446626053789e-01,5.356839837017717265e-01,5.117711119618345572e-01
4.918751104935439877e-01,5.877970462286891129e-01,4.330697175415043620e-01
5.105354698882899056e-01,5.331142332597003097e-01,5.148158988856217366e-01
5.063076369508986430e-01,5.042648147919345236e-01,5.589664229353926705e-01
5.713521765481582859e-01,5.049993819494211778e-01,4.740766433248411738e-01
5.241343087340467610e-01,4.765694683121797226e-01,4.702599979779423234e-01
5.319960881519365525e-01,4.718665097165096189e-01,5.339744826909555986e-01
5.319033085863776877e-01,5.146330969381492926e-01,4.417829366621150444e-01
5.310596777638212362e-01,5.045436161842126177e-01,4.674603614043951194e-01
6.092188826398078350e-01,5.707327793256692372e-01,5.546331581631683827e-01
6.107295318034580145e-01,5.104910249164230640e-01,5.060926999332475695e-01
4.677427377772171435e-01,5.124486422676843844e-01,5.722831750417757268e-01
5.569440547123911678e-01,4.566671364726713755e-01,4.941326322687361605e-01
5.192845840613260489e-01,5.048034258925043760e-01,4.847027324687903094e-01
5.276456425787670046e-01,5.041536517667648543e-01,5.077771446202495875e-01
4.409495454322285291e-01,4.674705368595895028e-01,4.777133171323404426e-01
5.143077074522509617e-01,4.355183555983211385e-01,5.232484411809074087e-01
5.726401691908490355e-01,5.001106395297051366e-01,5.175007798772813805e-01
5.269684349534136114e-01,5.841455815327539769e-01,5.756938755258615981e-01
4.841431845835945658e-01,5.270880097237686801e-01,4.995615341220611683e-01
4.386583719940678749e-01,5.916416478139646662e-01,4.528285062729893173e-01
5.142677279993939088e-01,3.843216808607990420e-01,5.258349590484289182e-01
5.544319387558525047e-01,4.921917599751422512e-01,5.085936157387742629e-01
5.326740022914769890e-01,5.251880585003637636e-01,4.724568385947869320e-01
4.927776736000604174e-01,4.795545393937627465e-01,5.702493097254671683e-01
5.212921013146804006e-01,5.354383135061961951e-01,4.800472506629788749e-01
4.815833127276412107e-01,4.954042977486725063e-01,5.337151718038214421e-01
4.829228148370763862e-01,5.040501074180764318e-01,5.574066986069645679e-01
4.715319972648354674e-01,5.415290539825512450e-01,5.236667637246148477e-01
5.122151523277550522e-01,4.886380416703197116e-01,4.416164177060623586e-01
4.423119540718035703e-01,4.558525235633742456e-01,5.329060330979199511e-01
5.036009989049086144e-01,4.342680036679224531e-01,4.680986657151838259e-01
4.943456169249262899e-01,5.176757094789613545e-01,5.286071446542235375e-01
4.816401571333793763e-01,5.311498388313966590e-01,4.744503711403156854e-01
3.911571579721631053e-01,4.634412904367148922e-01,5.976174901699915498e-01
5.813784355751117072e-01,5.183706431362441469e-01,4.705229362281378447e-01
4.886596289576753960e-01,4.960864708793983335e-01,4.241679777443566612e-01
5.260414682550982324e-01,4.867132977023638785e-01,4.754394781751906107e-01
4.887684477295109464e-01,4.783858028639426108e-01,4.891631172935682614e-01
4.929539513167884301e-01,5.129634376162357512e-01,4.743250060593340867e-01
5.538105627771063855e-01,4.598350788039278769e-01,4.951920952848535840e-01
5.069784022159319337e-01,4.494512756261232478e-01,5.087207252563840099e-01
5.133782181597938976e-01,4.590166424572382775e-01,4.475815900391983404e-01
5.000448953865170854e-01,4.105635351917831244e-01,6.614382015847954932e-01
5.588980023058062185e-01,5.060294381781889062e-01,4.840076787370082290e-01
4.522153141239904639e-01,5.186601092611811126e-01,5.125808752339386931e-01
5.597574078981828460e-01,5.073521908615029608e-01,5.539332782665106203e-01
4.442910741460741053e-01,5.105038241614721084e-01,5.512770155467046074e-01
4.783128014928256233e-01,5.398724763538770288e-01,6.263693673591571587e-01
4.808098067306055268e-01,5.183332465385944721e-01,5.551762385533173250e-01
4.840443513682888832e-01,5.190514197114005635e-01,4.713703563574628830e-01
4.779577226573088478e-01,4.413624403856271083e-01,4.757516438936148506e-01
4.081446265492967296e-01,5.115710642815054499e-01,5.286514262195594061e-01
4.924189934904964483e-01,5.235834227892008919e-01,4.950627720707316270e-01
4.789286612461423065e-01,5.821265663932032597e-01,4.276272311088157307e-01
5.359448250115529389e-01,4.199245537442503617e-01,5.622278937106942598e-01
4.943866687103254387e-01,4.687436710983977073e-01,4.902496159940656906e-01
5.355919657448303672e-01,4.948678434593213327e-01,4.343366504104068659e-01
5.118285626452062642e-01,5.047825527052669514e-01,4.743287474537465354e-01
5.260852760282139773e-01,4.549783629425593334e-01,4.624329344243228723e-01
4.614052472525705939e-01,4.933011814497433867e-01,5.011851028894906968e-01
4.770354047780453466e-01,5.065235421010517713e-01,5.256730183855574667e-01
5.285242123120494906e-01,5.118594098782637269e-01,4.130857843071449320e-01
4.584894640580572389e-01,5.099467373843248330e-01,4.714875928139489192e-01
4.995480320363596682e-01,4.370378717342709440e-01,4.717339223575995888e-01
4.593854173481269898e-01,4.540773741988700096e-01,5.391904256351423008e-01
5.848385392980466335e-01,4.457266603064637955e-01,5.106505300698739314e-01
5.651697604185275114e-01,5.510609958562350252e-01,5.186482527083550176e-01
4.417869398948497950e-01,4.551327188615686969e-01,5.037116877547406224e-01
4.912096954534993509e-01,4.780994091560200054e-01,4.654156424844827500e-01
5.439146243717213336e-01,5.521710910846449050e-01,5.035390336362960406e-01
6.343333734071123775e-01,5.088907234131270219e-01,5.460529308808721449e-01
4.854418121454752710e-01,4.468047683981813401e-01,5.072591727801714079e-01
5.480318146665263956e-01,4.821442307695442686e-01,5.426362763631717989e-01
5.307429050406913262e-01,5.321045346334015713e-01,6.003565254718550293e-01
6.115131284103143550e-01,4.515007975134853746e-01,5.093302346241520562e-01
5.111958342923308418e-01,5.038879116723488094e-01,4.675834643873970631e-01
4.610797673140124009e-01,4.759420257496680406e-01,4.749724512863145454e-01
4.732051658031888319e-01,5.430319063693908044e-01,5.543363355287413974e-01
5.472177279212653289e-01,4.635762687892580614e-01,5.491985862442744226e-01
5.063836777637961140e-01,4.742975139593565981e-01,5.548318245330260412e-01
4.699898467425279169e-01,4.683800891471373573e-01,4.799202871879489352e-01
5.152579243018305943e-01,4.738147680630986347e-01,5.012151063410205110e-01
4.693876977284035523e-01,5.130902595510081765e-01,4.526101746877053134e-01
5.829400687759367372e-01,5.348425172755920665e-01,6.348777360814259474e-01
5.187733455537182348e-01,5.047402414173034479e-01,4.433634723624424456e-01
4.873760782326597707e-01,5.075759275793436665e-01,5.374747219883763139e-01
5.069701370668503460e-01,5.258592701539698266e-01,5.169362836613674572e-01
5.221880357664759886e-01,5.276814949528543242e-01,5.106042225322077188e-01
5.499991469656356768e-01,5.639125834087884703e-01,5.026374346253750236e-01
4.736952403546426660e-01,4.676503932367053196e-01,5.536530522694195211e-01
4.945170557385231147e-01,4.494141796611803574e-01,5.083736640832026143e-01
4.836034967831895903e-01,5.513938963416221695e-01,5.511932184898500342e-01
4.432496587579482505e-01,5.338785668009089491e-01,4.559708601902523473e-01
4.406327383427396938e-01,5.360003239603333691e-01,5.168880648669379463e-01
5.241632895566691319e-01,5.650663553654473592e-01,4.947674062773246839e-01
5.186312455970711888e-01,4.342839443788742981e-01,5.415705074882578574e-01
5.130501046693998202e-01,4.584245336082231059e-01,4.559823789321340581e-01
4.905637997055548594e-01,4.897623299877679193e-01,5.030768224419384094e-01
4.429001893924940370e-01,5.078789006075088430e-01,4.894998735486552066e-01
4.524426771167655570e-01,5.150141063442047473e-01,4.856725299940912732e-01
5.347094990470543374e-01,5.141694254653974561e-01,4.674868745828560934e-01
4.978182641633839278e-01,4.824435970961462039e-01,5.441464957884926124e-01
5.441265059294730921e-01,4.597129155414382828e-01,5.093311631113286442e-01
4.973530569456600103e-01,5.259253669563311862e-01,4.745022712049233871e-01
5.020545046759391505e-01,4.877566168269698577e-01,4.771364038291983078e-01
4.700056708833240671e-01,5.725805518940454419e-01,5.235088191146513026e-01
5.077994798934810650e-01,4.481104523848343235e-01,5.913605138907094272e-01
4.887248014717826550e-01,4.847575887810163797e-01,4.344341735541619176e-01
5.300917023503998182e-01,4.880652433257392508e-01,4.572666990618732830e-01
5.105140814969930663e-01,5.221812964402391399e-01,5.090022256840490700e-01
4.905675023316253269e-01,4.996015334424828702e-01,5.183892888199489457e-01
5.211836251124265518e-01,4.988828072063652419e-01,5.092585141173623375e-01
4.328722057976618909e-01,4.939569010551110861e-01,5.075782944196710611e-01
5.462559847660578560e-01,5.986230463440075367e-01,5.038167267757797108e-01
4.676485882038099451e-01,5.033195420776214180e-01,4.882755522950702476e-01
5.648555691565534387e-01,5.796469456818768018e-01,4.664491344207912227e-01
5.139457201464968650e-01,4.473552689361557921e-01,5.107544591378790910e-01
4.729703715616656035e-01,4.862845600373839616e-01,5.071187564243990753e-01
4.458026377592765321e-01,4.345424824002424025e-01,5.890876816631648305e-01
4.733321589511386152e-01,4.617080550378269144e-01,5.677456772110223149e-01
5.211082237064650347e-01,4.925140151506137709e-01,4.667603318048926253e-01
4.076845300178028042e-01,5.913744706361505621e-01,5.565622179033644645e-01
4.637110464766043272e-01,5.013560654396670424e-01,5.117214946637600459e-01
4.403434165903504227e-01,4.463566754405304815e-01,4.972183949106215861e-01
5.623243640401631716e-01,4.589002819058566329e-01,5.463126519659754488e-01
4.901562646435898563e-01,4.892715309607220675e-01,5.117134035795891656e-01
4.669699017779176398e-01,4.784827881979689113e-01,4.403594592229488902e-01
4.872330765886704884e-01,4.960825172114244341e-01,4.126315042382705522e-01
5.587537424533310926e-01,4.966008962139991656e-01,4.681958972765014049e-01
5.036352156380149436e-01,5.080813794984894161e-01,5.001660090054403929e-01
4.833818316321005226e-01,5.202842621203239704e-01,5.192003729715354288e-01
4.710930910240285763e-01,4.778037195783060298e-01,4.402676181453275550e-01
5.258309895849773152e-01,4.875081720833723264e-01,5.430878489563049083e-01
4.880372529486753930e-01,4.675224410406594866e-01,4.666854261446420904e-01
5.374701472890502929e-01,4.992912306677922962e-01,5.513311285801862915e-01
5.055527886417404693e-01,4.920049033306219677e-01,5.550390380032441673e-01
4.738735786429735808e-01,4.907091946367991286e-01,4.139708252752945516e-01
4.864308609390467497e-01,4.736743055386154477e-01,4.956156090022563188e-01
5.359605828246088999e-01,4.768441258436584840e-01,5.181679886229818566e-01
5.490388147848800360e-01,4.859541075528352461e-01,4.597185445533435444e-01
4.477832066413812151e-01,4.502464747170676906e-01,5.571985190117616504e-01
4.916908522634006462e-01,4.433278893658167963e-01,4.774270522191769728e-01
5.050700285084618324e-01,4.999194772865870329e-01,5.126031038984403265e-01
5.754544021522337571e-01,4.421255041915284623e-01,5.651771073865810013e-01
5.728622100340019507e-01,4.012488262776375825e-01,5.395692351428882372e-01
5.099448285964142125e-01,4.903173454314897484e-01,5.403292084762172376e-01
4.681760308685500305e-01,4.921602990514392095e-01,5.419497725746131866e-01
5.509333470949345779e-01,5.534044026213159606e-01,5.134895327963368006e-01
5.500428009061423262e-01,5.168901924967839179e-01,5.269789365586268204e-01
5.109801190401219717e-01,3.709969652463879219e-01,4.900393370312912666e-01
4.755354219785377645e-01,4.736132474141105941e-01,5.290629101807055035e-01
4.972262547152125345e-01,4.666003830889857151e-01,4.540710834486862968e-01
5.295567163515517706e-01,5.030478381414029698e-01,5.476560868128961257e-01
5.100575223043212203e-01,5.167135982640190806e-01,5.140432049108072388e-01
5.067262386914489491e-01,4.541936491701131784e-01,5.586764622975693984e-01
6.149405377739511902e-01,4.916123590232024387e-01,5.360573105390142867e-01
4.537140340863101140e-01,4.706437387514369464e-01,4.700697774227887704e-01
5.631507332047372971e-01,4.416877868753055214e-01,4.849616652909692349e-01
4.439781742557847855e-01,5.736049873182710312e-01,5.020115235375549601e-01
5.359322371873673774e-01,4.982634678356625546e-01,4.760840687050656439e-01
4.704833786367875192e-01,4.657950409237289202e-01,4.900150899069893318e-01
5.028083129080973546e-01,4.613936607995167138e-01,5.896850110237917830e-01
4.353252544313503392e-01,5.037209885474900339e-01,4.969490984088523189e-01
4.933067790126102747e-01,4.803694040316230929e-01,5.159497632041474269e-01
4.946622846853391819e-01,5.077389445373909904e-01,5.090338506525668993e-01
4.844261284107747034e-01,4.597994159946915960e-01,5.049842493182908898e-01
4.428156459190356053e-01,4.891042414873515431e-01,5.062467098069216576e-01
5.312783784625967343e-01,5.203663351109018009e-01,4.808837619762266757e-01
4.557660616115427055e-01,5.012563413433984705e-01,5.489569018088866770e-01
4.966280767522583961e-01,4.758740189378992125e-01,4.782442171984067070e-01
5.479573020690498009e-01,4.720983668667023680e-01,5.552820451717395134e-01
5.181941005151993185e-01,5.059825835620019863e-01,5.178089417015249163e-01
5.400624183326327987e-01,5.399331798544084737e-01,5.285430043690467761e-01
4.727955028882107058e-01,5.207170941135808029e-01,6.151380855387970081e-01
4.968070976023699070e-01,5.120128566359668509e-01,5.220357095243601808e-01
6.021029634494351468e-01,5.774817460165363459e-01,4.600770055714790696e-01
4.757056791578162525e-01,5.415675936468626883e-01,4.947628604366232641e-01
4.692531802351138093e-01,5.017813473284596926e-01,5.335894002079554221e-01
4.757610955975484779e-01,5.066751437390241142e-01,4.678061641511576663e-01
5.304125001538314566e-01,5.655788450867135220e-01,5.056742999458777588e-01
4.945110384784905944e-01,4.995662931430074893e-01,5.121985681841072502e-01
5.051635725847571923e-01,5.284022698021023645e-01,4.740468673835875890e-01
4.726327115071851104e-01,4.422253880254564673e-01,5.158161387299059486e-01
4.475578588485450982e-01,5.632829778980739110e-01,5.173455323853108911e-01
4.723372372152301879e-01,4.701822942257084526e-01,4.073686784736977318e-01
5.750522132569035882e-01,5.078605645084651732e-01,4.981081230653395253e-01
4.387100327805483757e-01,5.072618094507117537e-01,4.648099658620435393e-01
5.293919663652352225e-01,4.931664853875622478e-01,5.017887309096330517e-01
4.774668049041903561e-01,4.951410623609639461e-01,5.715056033982679473e-01
5.051828043010496705e-01,4.819394238294574251e-01,5.199303203552383401e-01
4.498156756971559145e-01,4.472013953389369911e-01,4.431875129636069777e-01
5.551693443451659604e-01,5.277789492759992207e-01,4.774479414475307215e-01
5.072292043367723213e-01,5.200234602851344645e-01,5.094224689323600952e-01
5.903348609304572836e-01,4.274528850043115558e-01,5.564262484379814966e-01
4.400378390075228574e-01,5.086348317973481414e-01,5.483058544528817135e-01
4.804753291968747453e-01,5.225017810590130152e-01,5.695575884250838605e-01
4.749513246842451686e-01,4.544519735432302476e-01,4.549145477933026482e-01
4.496206015035107972e-01,4.742467823341323663e-01,5.668527008280215274e-01
5.159648829523783009e-01,4.390350953586615868e-01,6.044900144472409309e-01
5.998310590384023921e-01,5.176006282019015581e-01,4.952198991468363398e-01
5.331312477330261146e-01,5.355770533128922928e-01,4.753996359589000020e-01
5.020009407160854753e-01,4.964785974070392571e-01,4.699958016631473057e-01
5.003538669338470912e-01,4.930406594391738007e-01,5.110374152727057417e-01
4.962809238966412462e-01,5.676318387175177671e-01,6.153733740056448465e-01
5.248606772536196230e-01,6.744415193116184426e-01,4.871741146419300006e-01
5.405918597398026160e-01,4.427645076019185999e-01,4.481705589106662058e-01
4.686596002922403525e-01,4.472946317080296330e-01,5.734957331974935846e-01
4.566392431935776264e-01,5.330882315888864076e-01,4.465264307072800976e-01
4.783140573042148902e-01,5.209102467037498574e-01,4.724745911980842150e-01
5.316585425556028532e-01,4.963270219833827435e-01,5.293528581678290656e-01
4.951058270701268471e-01,5.140832908125708700e-01,5.145297984093444299e-01
4.431600740359537549e-01,5.379197455962944074e-01,4.018176243177614682e-01
5.247266964370823628e-01,4.706022954215243193e-01,5.358606670578995868e-01
5.200136341104862892e-01,4.177540271148585393e-01,5.021579291644420184e-01
5.613818642571266615e-01,5.323643150100803023e-01,4.859736280744761383e-01
5.014341944552674901e-01,5.249867289028896655e-01,5.215397537175391340e-01
5.469614566490667018e-01,5.049429870913357821e-01,5.191228276380848161e-01
4.150122531424146333e-01,4.856616225712154233e-01,4.896438836590244481e-01
5.020641845259710134e-01,5.453770996262381487e-01,5.586430948545455522e-01
4.727987840756547877e-01,4.556018782220879193e-01,5.761536324355135408e-01
5.538208229971909313e-01,4.831495874430368209e-01,5.887430234678417973e-01
4.679347952143559364e-01,4.573852656964412788e-01,5.227154243974693193e-01
5.374679931869760230e-01,4.855090595145943877e-01,5.340626404625664625e-01
5.159702364877063463e-01,5.015678693749833217e-01,4.852385012369332395e-01
3.805628866642479791e-01,4.920543360699474733e-01,5.592380405455925629e-01
4.765659995431925089e-01,4.486995750250917792e-01,4.753949750902488058e-01
5.525961548172563242e-01,4.046307321648840993e-01,5.139162445835822046e-01
4.734845506259900971e-01,4.985631935302731743e-01,5.820837229150097603e-01
4.777306785344447859e-01,4.686252538061002060e-01,5.524944188300909831e-01
4.545972927310583112e-01,5.454976950619501164e-01,5.377222594767807617e-01
5.134319063720736986e-01,4.607700222015416180e-01,4.847822644116722146e-01
5.213251904222813149e-01,4.765557129855360619e-01,4.889816337629667164e-01
4.140225534447197764e-01,4.645494239057925134e-01,4.262638436322487290e-01
5.137225975309246406e-01,4.657139757135110858e-01,5.401784906895239491e-01
4.177411882103635454e-01,4.992400759250746334e-01,4.709667448966844971e-01
4.814941874843471914e-01,5.168774076542689278e-01,4.521786859977016126e-01
5.371723711138283175e-01,5.249066672147671975e-01,4.556828431103844834e-01
5.469272276847170211e-01,5.003795806856710104e-01,5.343408708214797409e-01
4.812833680009362403e-01,5.198108129953548096e-01,4.910051072756286827e-01
5.253838781840766137e-01,4.788260589711996751e-01,4.880400885005037326e-01
5.864835355801987227e-01,4.886053498461757627e-01,4.948670509557465125e-01
4.971318089863221434e-01,4.511779730194335758e-01,5.163906520733037020e-01
5.745516598221291904e-01,5.327202355978388759e-01,4.857402494018830952e-01
5.226942873715827442e-01,4.848472539112270718e-01,4.440921548240540639e-01
4.705876051008815453e-01,5.179990240279095381e-01,4.757057848983721193e-01
5.122811800318678443e-01,5.665898905013765363e-01,4.672168618258989436e-01
5.228890999662183514e-01,5.079973001459089366e-01,5.562955001945915079e-01
5.393046829954526444e-01,4.889312363370014736e-01,4.955310042611736354e-01
4.393893929985384084e-01,5.037095749908193643e-01,5.405684803558999940e-01
5.236358654828742187e-01,4.590129260872526373e-01,5.444620193042840617e-01
5.070143473849253457e-01,4.815169949852609599e-01,4.891084452644983704e-01
4.537043349068253240e-01,4.814434785462320954e-01,5.320001668166756126e-01
5.131544359282033119e-01,4.879800296833847195e-01,5.211000044058949898e-01
4.979570096116698319e-01,4.963723208053457681e-01,4.484559547299880600e-01
4.815339345294436524e-01,4.597803138738386641e-01,5.261673218815087205e-01
4.696037429500125593e-01,5.085450616065873009e-01,5.545969508662522696e-01
5.947681302735012832e-01,5.546715246085686113e-01,4.819402164665775867e-01
5.046016936741780645e-01,5.196149374472319726e-01,4.549921553360971593e-01
5.122077408288230327e-01,4.610603931598478700e-01,5.166709714227899486e-01
5.345772191325157685e-01,4.980334872551260839e-01,4.726516664166359183e-01
4.991095117169920270e-01,5.687096108531980443e-01,5.663462867300972370e-01
4.781257537217990516e-01,4.788428514338039510e-01,4.351278733842802726e-01
5.799212160827138529e-01,5.109429036779525868e-01,4.550805035304951729e-01
5.699111225996417174e-01,4.719996612633949318e-01,4.740759561411627687e-01
5.372709095912775457e-01,5.069809834719328778e-01,4.429830400127504619e-01
4.789976290875845866e-01,4.924259000972360800e-01,5.196009837433808176e-01
5.284007764087765846e-01,4.796100771911251948e-01,5.230028790999429189e-01
5.819293964587478607e-01,5.690328776483715156e-01,4.821448083005792085e-01
4.256337534363717756e-01,4.249355188770639336e-01,5.190365561879116685e-01
4.931363233406496072e-01,5.154748756617196781e-01,4.785326124527872205e-01
5.092713729908059372e-01,4.526761074279245234e-01,4.444926134075571356e-01
5.254071017738071170e-01,3.937514680697190017e-01,5.214389030626773724e-01
5.141965120149356583e-01,4.538481814637283507e-01,4.791759819301158463e-01
4.534058637100628064e-01,4.421684529555784948e-01,4.997120442329057721e-01
5.219233838846413231e-01,5.784102366602198453e-01,5.307676489482576754e-01
5.205762316126131273e-01,5.203773934676900748e-01,5.526980965536064661e-01
5.118513602429326514e-01,5.166327803110497552e-01,5.174791525228139566e-01
5.143449958793391286e-01,4.440666333811563171e-01,5.034423664745606430e-01
4.660467597384170824e-01,5.277650489329277494e-01,5.339306265213492608e-01
4.885017975695428172e-01,4.896150910487652719e-01,5.527809485024970382e-01
4.910599250646522362e-01,4.606052655730157874e-01,5.056587164778854060e-01
