accel_x (m/s^2),accel_y (m/s^2),accel_z (m/s^2)
-6.927143356814898997e-03,-7.042077132776888328e-03,-9.792588837448397143e+00
5.021278450000932897e-03,-8.050674447856460969e-03,-9.802117835573165294e+00
2.354801172936214944e-03,-6.841272803745234235e-03,-9.792647585235163987e+00
2.044080922621180178e-03,3.080892676507452927e-03,-9.794898574201127417e+00
4.604932512830226150e-03,-1.422035590956395243e-03,-9.791045007450147608e+00
6.827920340344790021e-03,-7.359750910155699911e-03,-9.786832716180310143e+00
-1.261709507926161381e-03,1.764480643316207508e-03,-9.808672596347381756e+00
-5.549993283531892002e-03,-3.079815344535259767e-03,-9.791350422721784241e+00
3.083302012333410339e-03,-3.156231092141474745e-05,-9.790683642417796761e+00
-7.043495040392169088e-03,6.642975801265775266e-04,-9.811643105057305192e+00
-1.748139854061370136e-03,-2.472416393786693641e-03,-9.790497125708736093e+00
9.804806991890405860e-03,-1.332091585289123898e-03,-9.802222004081041717e+00
2.640714062035393050e-03,-4.339200854150976165e-03,-9.791960503612699540e+00
1.256893826066222765e-05,-3.413448809924048751e-03,-9.801723598145795080e+00
4.326094520314308932e-06,7.291747196743209730e-04,-9.796643981745960517e+00
-2.303371796182430986e-03,-2.932004079487264200e-03,-9.797731397228572447e+00
2.186292689521962041e-04,-2.471738568335686472e-03,-9.778133882526992338e+00
-1.985735775108648463e-03,-5.279648391048922043e-03,-9.790427745187459507e+00
-5.707198384923343332e-03,-1.698124243336828626e-03,-9.796745750675471598e+00
-1.221421306376913301e-03,5.320881229849420057e-04,-9.801752031509218810e+00
1.430299822941082794e-03,1.752500646751474576e-03,-9.794727772011832201e+00
-4.248226452998864026e-03,5.301147616833761346e-04,-9.804150334954853108e+00
9.163779146557782121e-04,1.200587635439900533e-02,-9.804585411945925699e+00
7.268594398503012456e-03,-7.600113957441241011e-04,-9.803221397547627447e+00
4.248155667819083874e-03,-4.376111551618769129e-03,-9.799077623622537203e+00
-2.028695872655815729e-03,-1.541986544673930922e-03,-9.798655696767275103e+00
-4.444158270321158660e-05,-6.645687446449054757e-03,-9.797797410060127277e+00
-4.349595227042354038e-03,3.866219352423918773e-03,-9.779387032949182768e+00
5.566341406919411185e-03,-2.263964907469090144e-03,-9.788825545509411086e+00
-3.681572686188295997e-03,-3.405377942719748198e-04,-9.796299831291777949e+00
5.373016787244569653e-05,-7.857975087857622986e-05,-9.790179219897911622e+00
4.135602621285194673e-03,6.153166931875797942e-04,-9.783886165746370267e+00
5.189418621041930885e-03,-2.473101577165764085e-03,-9.799632705470088467e+00
1.809318759989371212e-03,-4.970768762117786822e-03,-9.785819283603117924e+00
-2.363318457753136714e-03,3.536191571782613605e-03,-9.777418618013141938e+00
-3.393011281525520808e-03,1.153411500809707526e-03,-9.801644736519905976e+00
3.294599236317316895e-03,2.622617492582860182e-04,-9.790286547657981231e+00
9.713590327723774578e-04,-3.300157091015619697e-03,-9.796445753255637712e+00
3.892087439835606108e-03,-6.694072650934723354e-03,-9.796800575327413441e+00
-7.228894197502564248e-03,2.793119592709814979e-03,-9.789238710942228749e+00
-8.212515103242716118e-04,2.340425501673136770e-03,-9.795146694461864811e+00
3.615913961285958066e-03,-2.644552253475145488e-03,-9.812105668434838890e+00
-4.135360167823043040e-03,1.169026746925660954e-03,-9.802251068707313664e+00
3.215611544466018875e-03,-3.334341571693697371e-03,-9.805448153546363343e+00
5.331742793310420385e-03,3.345881992293656734e-03,-9.806222406272709691e+00
-1.055465420988368000e-02,-4.155395153982507504e-04,-9.789268284058781688e+00
2.068769648295766712e-03,9.589009187293376021e-03,-9.788881120884951770e+00
1.148861309600273349e-02,4.847411209796199981e-04,-9.794571689537916015e+00
5.495004253155661746e-03,-9.714710833171989399e-03,-9.787270016858835575e+00
-3.677938868044760157e-03,-1.345028547500642328e-03,-9.791283129159836562e+00
-3.341615423597207694e-03,-1.580735665024755746e-03,-9.796654693702214090e+00
6.089882488614441029e-03,1.063148763000587582e-02,-9.803296933291960613e+00
9.106259034529601629e-03,3.821452799778652081e-03,-9.797520924983791346e+00
3.500563014765035053e-03,4.906242595169208950e-03,-9.794276952093699862e+00
7.693126840054103320e-03,-1.013074050594086305e-02,-9.789431048010335701e+00
-6.897393235519340068e-03,-4.353261313999272201e-04,-9.800276543547882468e+00
-2.198731951624368491e-03,7.208464210418908356e-03,-9.797807490173356726e+00
-6.178626451827281749e-03,2.456494529532232338e-03,-9.797761242253148595e+00
3.117118628434800611e-03,-8.769909255547644888e-03,-9.802330101895948999e+00
-4.265456073885534778e-03,4.056785035580148455e-03,-9.797211075570908534e+00
-1.945187433233082136e-03,-3.721004666881381692e-03,-9.798008375018572025e+00
1.191305538428579121e-02,-7.195034945755462118e-03,-9.798449351782688055e+00
-6.540405831964984755e-03,1.431566109147191937e-03,-9.797313849498944904e+00
-2.409983247808707672e-03,6.137972659086329136e-04,-9.783067561758276298e+00
-8.341246232470357928e-04,-2.073460672224736005e-03,-9.799593202981020212e+00
-4.693476260029503383e-03,4.069814038085374855e-03,-9.807841957929603893e+00
-5.575420643411581161e-04,2.060321821891624577e-03,-9.796239141950163543e+00
1.468552584970432312e-04,3.849301770076065266e-03,-9.790771055692413682e+00
-2.293851834473708846e-03,-1.864102268974185232e-03,-9.786048306744989489e+00
7.122600512926254186e-03,-7.830987145210312932e-04,-9.799051691303333200e+00
-6.519454876260831304e-03,3.225710134390161448e-03,-9.804371217270114514e+00
-3.908361207043631325e-03,5.403772831709153200e-03,-9.791754197001369064e+00
5.524964082792403405e-03,-5.885927052212940568e-03,-9.799503449588076620e+00
-6.540563286027801593e-04,-5.081665505085525454e-03,-9.796431733809853881e+00
2.451971760267681439e-04,-8.757339286777704934e-04,-9.797670458348976652e+00
1.369732645989852780e-03,2.922697358942598876e-03,-9.801916929360332986e+00
-5.949813060577701252e-04,3.015616697283457471e-04,-9.806686552144055824e+00
6.439119916193112789e-03,8.555825303501640028e-03,-9.792325773865801608e+00
-9.837391355397335710e-03,1.296604464773904591e-02,-9.788273536088443194e+00
-3.534578714073506513e-03,4.828558444365691101e-03,-9.790135708040246243e+00
-2.478698196271089216e-04,2.659468084703185339e-03,-9.793857518426108300e+00
-3.910675592856160607e-03,4.591131014369575006e-03,-9.801082574831710303e+00
5.124416982813757154e-03,8.965435654144968776e-04,-9.802126979741208501e+00
1.820931978090006582e-03,8.516724754257473141e-04,-9.783219766669560613e+00
3.011639005488358882e-03,-3.389525123811992346e-03,-9.785877874052046010e+00
6.873151353008043890e-03,7.714862569920146297e-04,-9.796971830903336453e+00
5.261071523780762663e-03,7.621512422852491295e-03,-9.807767857482115659e+00
-6.440922125774101170e-03,-5.118848979768659928e-03,-9.804371351125501732e+00
2.197630521400883302e-03,-1.014263814476829787e-03,-9.791755709836429844e+00
-3.830615567419901751e-03,-5.775885485400324344e-05,-9.808958007994039718e+00
3.885700844091817454e-03,1.410883910581442642e-03,-9.792592168598831748e+00
-5.899341457666194659e-03,3.047057934106481118e-03,-9.804750239273198886e+00
2.740248514182975527e-03,2.707571074207822809e-03,-9.806028674148596025e+00
3.960022862330228599e-03,2.202712817546843924e-03,-9.798535396291125465e+00
-3.354050468265445863e-03,3.413748498614412865e-04,-9.802431908434504848e+00
6.360972218706993815e-03,1.018395645809541108e-03,-9.798095905950248152e+00
3.219444189402832952e-03,-1.982958034123248386e-04,-9.799512875269774881e+00
-4.749620230081626465e-04,-5.756140320237866474e-03,-9.804371119607273144e+00
-2.315871336575990765e-03,-2.976460232160952138e-03,-9.795586529863344438e+00
-9.657501649202947886e-04,-8.205407729861956961e-03,-9.802997598155972270e+00
3.541344425991293111e-03,2.652386793114666630e-01,-9.780429411738220224e+00
3.902182264424059605e-03,4.949134294575553428e-01,-9.785374090324614471e+00
-1.079378573477710393e-02,7.123582114901263473e-01,-9.802641364195123330e+00
1.587958739929049229e-03,9.003657461980552057e-01,-9.812534550407564282e+00
2.788745829086491761e-03,1.065342518701966501e+00,-9.798136662581159229e+00
-3.136017931845050833e-03,1.229578450426183078e+00,-9.789365885554991209e+00
5.834157792614288844e-03,1.363701658406540451e+00,-9.804004916108130629e+00
3.185686554195457827e-03,1.494295089962315748e+00,-9.793864537537469772e+00
-2.440071275551421344e-03,1.596833692097908930e+00,-9.800646594515269427e+00
-6.615027468344211389e-04,1.714855555412251986e+00,-9.815114826684837368e+00
-9.583370820070210433e-03,1.790680404873479459e+00,-9.788142772181172901e+00
1.525412219935781471e-03,1.886876434623211196e+00,-9.783256162443921156e+00
-1.197037704085131748e-03,1.939577512497495437e+00,-9.805200817980464834e+00
-1.054269272330883925e-02,2.006058785474873929e+00,-9.789814569776513764e+00
-6.387526756895468318e-03,2.073704625855603112e+00,-9.800805966591273233e+00
2.531706097528018534e-03,2.129669111095854550e+00,-9.792201991843327846e+00
2.761366119526091189e-03,2.186048220216207927e+00,-9.793630839121183485e+00
1.256519875843404091e-02,2.225961346847253886e+00,-9.793434749758997526e+00
5.011488807081764842e-03,2.263293359522873249e+00,-9.812590731846162484e+00
-4.961180395032173569e-03,2.300749569226419933e+00,-9.784881185772940526e+00
4.429454015429942033e-04,2.327681682633857552e+00,-9.792382639499448871e+00
8.018211041884406448e-03,2.358231587710014399e+00,-9.792985680595830189e+00
-1.985437805273465150e-03,2.377580449087717707e+00,-9.802405183375102027e+00
9.595220730539238269e-03,2.413305849974899164e+00,-9.794088907294609569e+00
7.575422581504845203e-03,2.433429793639678262e+00,-9.790502783295618627e+00
-6.859123943056443656e-03,2.446987452317623823e+00,-9.806498895842871377e+00
5.391834030283162993e-03,2.463115171514193680e+00,-9.796123764991122584e+00
3.437994102964798352e-03,2.474397662834344480e+00,-9.776247175943586498e+00
-1.209588551705188635e-03,2.492681772635820359e+00,-9.786022288622154619e+00
-4.111285093255987030e-04,2.506001475851145521e+00,-9.791977452812062666e+00
-6.850293770883394799e-04,2.515077168548130793e+00,-9.797836562324928167e+00
8.478956904869211844e-03,2.526040513215281447e+00,-9.793532326997462789e+00
1.198169075676886602e-02,2.530103703739752685e+00,-9.803060202778787868e+00
-5.661137440009826431e-03,2.549561579631701491e+00,-9.812235705629831273e+00
-5.235194244284476633e-03,2.565715581639325116e+00,-9.816237527500835114e+00
6.958179335300317125e-03,2.559458069933571611e+00,-9.786126124757599243e+00
9.384329072149246874e-05,2.570823437280107093e+00,-9.795591669976277061e+00
-1.078608032882623705e-02,2.568086341760086100e+00,-9.789733511330526383e+00
3.010229795033098066e-03,2.569700088561663431e+00,-9.798575911363505142e+00
1.311680172321957362e-02,2.583354496001990075e+00,-9.808823960527650598e+00
-2.802921681638256574e-03,2.584624924075213048e+00,-9.809073271977977626e+00
-6.700315768198017441e-03,2.582540892875059502e+00,-9.805395801193144578e+00
-1.200787901713721737e-03,2.588248456900278605e+00,-9.796911632391674729e+00
-4.187621121457913917e-03,2.583299866987684990e+00,-9.803320989768309346e+00
-2.781128561839657596e-03,2.588802456001409791e+00,-9.796478007731471038e+00
-1.575049897270903001e-03,2.595105683609772118e+00,-9.794715272251783844e+00
-6.083936118525057682e-03,2.602092354531327700e+00,-9.796859536081692355e+00
-3.944057008961915356e-03,2.613212085492675918e+00,-9.789986933894047283e+00
2.343674715895830481e-03,2.609703457963168827e+00,-9.788076031121001108e+00
-2.214963938964374483e-03,2.610630877902652802e+00,-9.790481961820596268e+00
-1.082978332229998135e-03,2.612765906217274114e+00,-9.802533260716034036e+00
4.676200753767670824e-03,2.614125725926172983e+00,-9.802417114173938018e+00
3.431949934856012591e-03,2.604988560236826789e+00,-9.784765059746248994e+00
-4.432221918767749458e-03,2.605464908649345102e+00,-9.786071088835015530e+00
1.660760422812728896e-03,2.612257534201808618e+00,-9.798903564207574135e+00
-4.742867807188242302e-05,2.603686152617302962e+00,-9.799993263945307120e+00
7.056511449642870583e-04,2.611981329073893132e+00,-9.787343428697822034e+00
1.827788030947061866e-03,2.614788779450352596e+00,-9.771476269164597994e+00
-4.966655367379850007e-03,2.617752247004208499e+00,-9.806028814926094128e+00
2.260257434345225042e-03,2.612628429899693128e+00,-9.806088083745242656e+00
2.628844594853384838e-03,2.612343877436069217e+00,-9.787798058542707125e+00
-7.825559232061398904e-03,2.617074612537195311e+00,-9.793146142703134771e+00
-2.758962413137733879e-03,2.615166551999911881e+00,-9.790602781824787826e+00
-1.012152133014830070e-02,2.612379362923730852e+00,-9.787189855671890371e+00
2.454385768337348506e-03,2.619032489210895154e+00,-9.795408666975978562e+00
5.175153417819872278e-04,2.617523244801163163e+00,-9.798864411595356927e+00
-9.711694682536436973e-03,2.613948014832984779e+00,-9.796187924600753050e+00
2.943298467946612023e-03,2.620699449505789147e+00,-9.791609219301236067e+00
6.960288261023335997e-03,2.625026826314681205e+00,-9.781216716987538362e+00
1.347628130926939016e-03,2.612995583649636799e+00,-9.792586662882508008e+00
-3.011111874998018828e-03,2.615842544961900717e+00,-9.794353603030209854e+00
-1.950064029219728034e-03,2.618936874386238234e+00,-9.794923801715430756e+00
5.552440640428746993e-03,2.613145908123478023e+00,-9.785624837390402675e+00
3.544583476040689528e-03,2.612418904474596015e+00,-9.805921243526050546e+00
2.553384393316962455e-03,2.614622372922261295e+00,-9.792542593541343265e+00
3.091505849719136233e-03,2.624696493631914151e+00,-9.794777453946041490e+00
-1.896116250009646873e-03,2.616829887487832629e+00,-9.798601727855182020e+00
-6.938614646817260843e-04,2.612728119145183214e+00,-9.803864975636084722e+00
2.312132409904104745e-03,2.610488453466871750e+00,-9.790865265747823898e+00
7.593542493293059178e-03,2.629328627637562477e+00,-9.810478665381340946e+00
3.829866244644620880e-03,2.616610957070236498e+00,-9.796600050987457564e+00
-3.295983029525208392e-03,2.610144676080380588e+00,-9.796857119799655678e+00
5.960304615233082831e-03,2.608021892703022981e+00,-9.789722930526322031e+00
-8.571658736483583657e-05,2.616207639503120852e+00,-9.793607798415061794e+00
7.223299096494159750e-03,2.611624884845663352e+00,-9.787740805859073134e+00
1.553184719341372047e-03,2.626820813904238161e+00,-9.796639417871507050e+00
7.162388631328502064e-03,2.624052514569366945e+00,-9.790073623254931690e+00
2.658437768835410740e-03,2.616051503968746861e+00,-9.793011995480330967e+00
9.642800067397658671e-05,2.619200958262540624e+00,-9.790613443235066882e+00
-2.553570203237118339e-03,2.627319532356642728e+00,-9.788135530495466696e+00
4.533536880739257903e-03,2.618184358754256813e+00,-9.805717754133716824e+00
3.033101827273915890e-04,2.617085352668195863e+00,-9.806223901833417855e+00
1.509698068626166671e-03,2.619302524533586141e+00,-9.791042838138459103e+00
3.443711686574297322e-03,2.622247768411907654e+00,-9.785327303977210178e+00
-7.182677285124891304e-04,2.619315391606067411e+00,-9.795026083412585294e+00
3.150323524833110577e-03,2.623992644399765428e+00,-9.801824550086370991e+00
-6.261691773461751679e-04,2.620603712926116824e+00,-9.791604352361730434e+00
-9.201370489581472967e-03,2.622170070287218824e+00,-9.789475229416238378e+00
1.098833792954079366e-03,2.614726929964126700e+00,-9.788339908010705415e+00
4.003641658952370591e-04,2.612561693880607550e+00,-9.813906377419245430e+00
1.578145057074028374e-04,2.618469563705573044e+00,-9.800916405272618093e+00
-1.494521315384370269e-03,2.613207953424808494e+00,-9.798185546704582194e+00
1.253501564596449635e-03,2.622821403452651357e+00,-9.801621156389764167e+00
1.343667822538810279e-03,2.612647496355365639e+00,-9.804838239435337499e+00
-4.447198786180188088e-03,2.614216965074582344e+00,-9.791483371092729371e+00
5.408368265227308201e-03,2.608273526912249007e+00,-9.791694792040312123e+00
-9.087734030731245763e-03,2.623649805854701533e+00,-9.803349116662856133e+00
-1.473981347080384257e-03,2.618610817684164260e+00,-9.781658105003522508e+00
-7.407476382784562371e-03,2.615400580821389820e+00,-9.801428457516420778e+00
4.729532045814295767e-03,2.618966456942400711e+00,-9.805919295883366971e+00
3.934239110513369254e-03,2.620655942465452526e+00,-9.782222645830341179e+00
5.395389498340622024e-04,2.619165134883829182e+00,-9.796825509088883166e+00
7.799148177672176989e-04,2.620364084421721973e+00,-9.792706739177482689e+00
5.874686494838389506e-04,2.617930918319704592e+00,-9.793524111217118744e+00
3.870608480484331784e-03,2.616287643226980819e+00,-9.797065248827566464e+00
2.510142692558229444e-03,2.619137311053212347e+00,-9.797041949387493176e+00
3.661443179742314251e-03,2.606122093684106300e+00,-9.806110170705293783e+00
5.485457460818501420e-03,2.617111388871488309e+00,-9.791661348069110815e+00
-1.005612573103742543e-03,2.619551064472084967e+00,-9.792272197921221277e+00
-6.440120850694908312e-03,2.625050985361784939e+00,-9.779308641770777299e+00
-1.489665253177831173e-03,2.629237723999451770e+00,-9.801154171757600508e+00
1.983872374781961347e-03,2.623524126751971330e+00,-9.791147660669842878e+00
3.353808549927258034e-03,2.621528930934772905e+00,-9.789359072334418599e+00
-4.371436676722872429e-03,2.619146021680224479e+00,-9.806770314701712010e+00
5.538470464134742990e-04,2.618045023795424253e+00,-9.799160925253689314e+00
-1.291431744334853087e-03,2.615845312445144621e+00,-9.809857391364191770e+00
3.721538252572153226e-03,2.621405846384332161e+00,-9.792387590316820933e+00
-1.406849799565530702e-03,2.615050502132690191e+00,-9.785072096387933627e+00
-5.875933832059893709e-04,2.612336244801369833e+00,-9.797044179349999382e+00
5.619318541633272837e-03,2.622198857704173491e+00,-9.801213792208935516e+00
-8.176053182960711652e-03,2.625980810149822986e+00,-9.808177258865759640e+00
-2.659061043223017503e-03,2.609834042972631440e+00,-9.797488054586743544e+00
1.464938129633101176e-03,2.619754794862527714e+00,-9.797935963623993771e+00
-4.386381679217797635e-04,2.617350682766018011e+00,-9.798192948674639524e+00
1.015554232731113136e-03,2.614027802765873432e+00,-9.804187460726794257e+00
-4.008633420770470819e-04,2.612479596996381215e+00,-9.789459319277968419e+00
-1.540394509262861750e-03,2.616019830334901375e+00,-9.810113021174185377e+00
-5.292351885946460551e-04,2.613437909291957961e+00,-9.790289580423397808e+00
7.959351063031083751e-03,2.616558260202746400e+00,-9.792394226872676910e+00
-1.922411210071643629e-03,2.614059093082613749e+00,-9.804634550725811692e+00
1.797182215471472728e-03,2.609037463669020784e+00,-9.802601205644425164e+00
8.254207013405949478e-03,2.614614405040660117e+00,-9.772198655710095494e+00
-3.456578870992220269e-03,2.617953368070520259e+00,-9.810300705721783032e+00
-7.522974353030111635e-04,2.618937709944371584e+00,-9.785290294775338182e+00
-5.688905200825215142e-03,2.619890943048451604e+00,-9.788401838680414357e+00
-4.001422737771590486e-03,2.617232788429619816e+00,-9.787874992677062735e+00
1.159318335545192653e-03,2.627549517174219584e+00,-9.798482595260207262e+00
1.927264665257219251e-03,2.615412831632195623e+00,-9.782994109184873111e+00
-7.634952567204899773e-03,2.621126248449281881e+00,-9.786813808993017005e+00
5.913418513246435082e-03,2.618345259395843172e+00,-9.784470570863286198e+00
6.982780910356816036e-03,2.616206137405274745e+00,-9.799371823303443918e+00
6.828576983314759092e-04,2.623931056389618988e+00,-9.802667133874466643e+00
3.450710998776620065e-03,2.618723113584638718e+00,-9.798487981316791107e+00
-3.130383696711555781e-04,2.615516642189301688e+00,-9.786801214140860239e+00
5.515483160631236455e-03,2.617992667248774552e+00,-9.803228141451812760e+00
7.164537087356231742e-04,2.620805185941812887e+00,-9.801518908055227186e+00
-1.419802964302236325e-03,2.612218500556536593e+00,-9.806445516319293176e+00
1.601624931021936732e-02,2.610426298726056249e+00,-9.794341466544340236e+00
7.932158486324865712e-03,2.622928059218166297e+00,-9.789989398024454559e+00
2.000610438891767002e-03,2.617945334878655661e+00,-9.797996115426585106e+00
2.867370997318212551e-03,2.620459695113755760e+00,-9.799210754141213897e+00
-2.012195667931314467e-03,2.616961422195606790e+00,-9.793828374117708790e+00
-4.867036169497373900e-06,2.622829865709547015e+00,-9.795439919750629443e+00
-2.425410923682327479e-03,2.614920306915959447e+00,-9.798016963476385399e+00
-1.530030182843233324e-03,2.618972981472714512e+00,-9.796748350550382511e+00
-3.167063047336144896e-03,2.611777630742711409e+00,-9.795991697617687066e+00
-1.093799450445572495e-02,2.623374242682884550e+00,-9.786538353462093554e+00
-5.519311897267065170e-03,2.618997315810247972e+00,-9.798700568389278942e+00
1.178654170887720974e-03,2.609635381026241152e+00,-9.792918654627818853e+00
-3.311947605792735130e-05,2.618777882804136148e+00,-9.799544345156117942e+00
2.781817755206869927e-03,2.614515456412824790e+00,-9.792542500909119596e+00
-1.176442602212758592e-03,2.612779095793989814e+00,-9.798025349193590472e+00
-6.267017796571433541e-03,2.627433977133708076e+00,-9.794957446512956523e+00
-7.500489035254720091e-03,2.613715970640402730e+00,-9.801477255514239317e+00
-5.359708353648322786e-03,2.621454254544832274e+00,-9.783932899176543074e+00
-4.809599418110156212e-03,2.622255162249988114e+00,-9.793190148264761419e+00
-9.051889657233912504e-04,2.605734105076632723e+00,-9.793869258647843523e+00
2.205365203160620634e-03,2.613020507049146346e+00,-9.798226081939329646e+00
2.073683475503082432e-03,2.616334259320916455e+00,-9.797530395053279051e+00
-2.742643373066959607e-03,2.613738047840726164e+00,-9.795078813056173672e+00
-7.451183212692838280e-03,2.619113398861205422e+00,-9.809056891448715731e+00
-1.145032533308837667e-03,2.614526958293631242e+00,-9.797283760872694813e+00
-5.308343622642073406e-04,2.618843701356427189e+00,-9.786163963147705758e+00
-5.858396190120790077e-04,2.612425368031817907e+00,-9.790558770842764602e+00
-6.514737382954265132e-03,2.616584534973708021e+00,-9.788066450159027099e+00
1.310357438113934209e-02,2.620586508459233244e+00,-9.798614353049766024e+00
1.858880829250769652e-03,2.619869132114029053e+00,-9.782257046556475544e+00
-6.410397287175959632e-04,2.621090719445433148e+00,-9.803160863732346186e+00
-1.036228407466978385e-04,2.617501062444917093e+00,-9.795593407905853311e+00
-4.068071019884559637e-03,2.618115762261828738e+00,-9.796861134934573556e+00
-5.351434530725926279e-03,2.620094670945860571e+00,-9.801462557167489820e+00
-9.040403595545455856e-04,2.612334094487572145e+00,-9.817462422204441097e+00
7.428602424616866269e-03,2.617423629450638778e+00,-9.779729026148597626e+00
4.125166664523347037e-06,2.627645977972823399e+00,-9.804376110601120686e+00
1.031278042964262585e-02,2.606442899344990405e+00,-9.788666117399554167e+00
-3.733769577511382529e-03,2.614287331237768797e+00,-9.800854211109903957e+00
-8.229660844623370997e-03,2.619765646983915897e+00,-9.796071259253514185e+00
4.487166094748357034e-05,2.623944767144003265e+00,-9.799454528256331898e+00
-1.181517063279436709e-02,2.621349817288889827e+00,-9.802504664506463072e+00
1.128997319545462430e-03,2.606139490296344174e+00,-9.779823472677110274e+00
-4.819859903285730190e-03,2.624683230314727389e+00,-9.794873042626274895e+00
-2.507689042683850823e-03,2.607453393978436118e+00,-9.793466672218769986e+00
-4.952007011021611164e-03,2.622063676467146109e+00,-9.796369327863011733e+00
-1.982625755883427043e-03,2.615133059371721025e+00,-9.793572798847870686e+00
6.358587801900576937e-03,2.618850713709145683e+00,-9.798466679909624943e+00
-1.003497158740274402e-04,2.615297408450843353e+00,-9.784224057672334496e+00
3.385852715689420013e-03,2.625521268678387976e+00,-9.785916909723773927e+00
-8.696613519949512872e-03,2.628062685024180389e+00,-9.810393861930538861e+00
1.147815026381766076e-03,2.612281618809030981e+00,-9.805829895967127285e+00
1.248213929588026100e-03,2.616787732586823623e+00,-9.788506852389915025e+00
1.493626290465259465e-02,2.609842571512630549e+00,-9.794922953781110664e+00
7.463735061740122551e-03,2.608004313006646591e+00,-9.793863830550764149e+00
-7.254037019682199952e-03,2.624832752434572036e+00,-9.784797284148799790e+00
4.930479695383805858e-03,2.617734141210677379e+00,-9.794911098916246672e+00
3.206071137450398727e-03,2.618569689156890590e+00,-9.778617274396316006e+00
1.346086781861587653e-03,2.609687597005823534e+00,-9.785563850425054611e+00
2.217055260643538764e-03,2.618708152058307093e+00,-9.780492318086515979e+00
-3.309692693612837234e-03,2.622041404691070277e+00,-9.798933431840838537e+00
8.941251177624814916e-03,2.615444657163557896e+00,-9.791885324042967298e+00
4.458409195966724602e-03,2.616818371598228943e+00,-9.795211101087193839e+00
9.938731958724363047e-03,2.620005135638807658e+00,-9.786738267344832209e+00
5.224819571473255340e-03,2.627302433203588361e+00,-9.803068015992982609e+00
-1.085219248412614161e-03,2.621676821114254263e+00,-9.792347553931337600e+00
-4.456151334503405219e-03,2.622409202238699777e+00,-9.787621658644699352e+00
-8.255614040992613478e-03,2.629038072832008410e+00,-9.782897470012732910e+00
2.614930986339103827e-03,2.618196019964920573e+00,-9.798598190169181876e+00
-3.702228934679442033e-03,2.625000044056208015e+00,-9.778414318790110471e+00
5.031840550555357044e-04,2.614761109601720701e+00,-9.796549095691490905e+00
-1.049348305711552505e-03,2.622642476011102897e+00,-9.805013932172702340e+00
6.425868570398060977e-04,2.614398483791815941e+00,-9.790388541634602149e+00
-2.615850253475063281e-03,2.624775363208760037e+00,-9.789739665488781384e+00
-1.726657346648416066e-03,2.613704190282683637e+00,-9.789634565156003276e+00
5.283836794559132986e-03,2.619801018481074717e+00,-9.804574145919698225e+00
-2.681728063367373391e-03,2.624530244444136962e+00,-9.794980165790653004e+00
5.267704731175461980e-03,2.603931751399200856e+00,-9.803789453699815581e+00
-3.873965845100184324e-03,2.618854186438274390e+00,-9.797061462764393269e+00
4.476492570178544454e-03,2.613975794288184495e+00,-9.803845922224827092e+00
7.431578336476594082e-05,2.615871845140426366e+00,-9.784811692008009487e+00
-4.283489333334078789e-03,2.617469615579272268e+00,-9.793927313094014764e+00
-3.698205063887171143e-03,2.614025685977845903e+00,-9.798319204167357910e+00
5.911434173748193049e-03,2.619879958091338334e+00,-9.802458739586620950e+00
-3.708099291948650875e-03,2.623511233443601487e+00,-9.787640508508285819e+00
-8.576700780656287479e-03,2.617475715960708271e+00,-9.801781142748128062e+00
-4.124469196107438847e-03,2.615207550079952092e+00,-9.789874616204047086e+00
5.571489783660195545e-03,2.617951899098402979e+00,-9.797575095169207771e+00
1.851426672020517342e-03,2.621766105343603215e+00,-9.809508506790871607e+00
-4.562075155016711127e-04,2.621051748303235840e+00,-9.802972334704156410e+00
-3.057154116975787750e-04,2.615419674770451675e+00,-9.796238852077937764e+00
-5.010309096355574678e-03,2.615216870652657732e+00,-9.782168354241900232e+00
-1.487703874572046236e-03,2.609426852768456317e+00,-9.797696330743701054e+00
-9.983174877714381251e-03,2.608484336356267530e+00,-9.776842177006871637e+00
-2.451108564887333110e-03,2.619882645562837453e+00,-9.792413939514590382e+00
6.354168880785435354e-03,2.626301527892312304e+00,-9.793383654307110220e+00
-3.324129534708426294e-03,2.614848132539199455e+00,-9.771861608251581899e+00
1.368483002683507695e-03,2.627259134839917021e+00,-9.792407937143966734e+00
8.124624364927449799e-03,2.618446127595564388e+00,-9.803797458043643331e+00
3.656342091377525264e-03,2.616958452379742006e+00,-9.797451751600414482e+00
-5.842451697376366965e-03,2.620512855431566202e+00,-9.801973008467733450e+00
1.212366511065401681e-03,2.614294130101884939e+00,-9.794239323130486952e+00
2.871153960939235722e-03,2.625141298424218839e+00,-9.797158427094327493e+00
1.293826631021001384e-03,2.624304934674774437e+00,-9.797698512575525598e+00
-1.207458111554147930e-04,2.617552348232350834e+00,-9.798027188749832916e+00
1.215702874791049776e-04,2.619972848280609501e+00,-9.792268792370007802e+00
1.029445659943049179e-02,2.612262630151030329e+00,-9.796346168305582580e+00
-3.529437378558056282e-03,2.613694430302278882e+00,-9.808966925847773410e+00
-6.258266116902873842e-03,2.613782290382047346e+00,-9.797525724395738322e+00
5.044691563076632648e-03,2.613528348361131570e+00,-9.808615244912752829e+00
-3.748503308509495546e-03,2.608104724359558979e+00,-9.789283091773096857e+00
-4.242163188327234200e-03,2.616730235102928681e+00,-9.803217151871784552e+00
4.580698303396082906e-04,2.622207471747197705e+00,-9.786248169750141557e+00
-6.983633151590192163e-03,2.617215721745051571e+00,-9.792472319407650616e+00
-7.316990161117921734e-04,2.620254042234035907e+00,-9.793427375534379919e+00
-3.201342329841613040e-03,2.621683472489302336e+00,-9.790600343428556229e+00
4.594578398494770372e-03,2.622750271142462175e+00,-9.794718563368181918e+00
-1.120513708249120007e-03,2.611597801154465603e+00,-9.796814482714950145e+00
3.347734607395657421e-03,2.623187781377309236e+00,-9.788860469413918963e+00
4.281232884723923729e-03,2.617920007784225511e+00,-9.788603094278123251e+00
2.077441414470761714e-03,2.614341334970625041e+00,-9.795596661669531358e+00
2.712939918373133766e-03,2.614640277727166673e+00,-9.799149898744973441e+00
-5.397634435834789378e-03,2.616967560988059827e+00,-9.797646391681499978e+00
3.327920151755152552e-03,2.615220551224069379e+00,-9.803581564089769884e+00
3.359605468418219026e-03,2.620639923420738704e+00,-9.772201334104204662e+00
-1.317032997634492997e-02,2.616814657143527345e+00,-9.791912058486461845e+00
-1.978741798385272831e-03,2.624902355576747670e+00,-9.788669625167280230e+00
-8.220916863364624355e-04,2.614195698513688715e+00,-9.806775037621237701e+00
-2.236887724272401939e-03,2.610300517261230357e+00,-9.779525195537512872e+00
1.084156126230360895e-02,2.611880583143921797e+00,-9.806369897751581632e+00
-3.138781722060850991e-03,2.620752911167163024e+00,-9.801607793410548553e+00
5.335683657848234139e-03,2.613013851963107204e+00,-9.804130719676479089e+00
4.449420011158177618e-03,2.622557603406994176e+00,-9.803434125048255510e+00
-3.505798580699679822e-03,2.617790543154899119e+00,-9.808146187479326983e+00
-7.950986611378940694e-03,2.625513094927847124e+00,-9.803798320550361822e+00
-3.007658485397401819e-03,2.616536923087055655e+00,-9.783712796656780952e+00
-8.089374400701685244e-03,2.622595614544112941e+00,-9.797390239181684279e+00
-6.615920093574970649e-03,2.617843427727331473e+00,-9.785567012608378690e+00
3.155046011332022886e-03,2.621715312555469524e+00,-9.792453766591551201e+00
6.891768969425875885e-03,2.624686993721280892e+00,-9.802981774054105202e+00
-1.582975965920514066e-03,2.620794461015442334e+00,-9.791280826071457000e+00
-8.215841918579774514e-03,2.622021942306320241e+00,-9.793269048498586926e+00
2.527687004452516296e-03,2.615452741206979237e+00,-9.790210823686964048e+00
-9.629192434846148632e-03,2.617930693467557468e+00,-9.803886679645646751e+00
-3.706223692401104143e-03,2.616318310678802828e+00,-9.784811867435593058e+00
1.752433593755790050e-03,2.610327575223416741e+00,-9.793980361592725004e+00
3.543709703389711415e-03,2.613284260347657373e+00,-9.790880374448624579e+00
1.810785952936624444e-03,2.621066891010724209e+00,-9.780051813842902675e+00
9.723635050298690130e-03,2.614525193418398175e+00,-9.793542235630098958e+00
4.021032760735545833e-05,2.620023195085717571e+00,-9.801553813886430433e+00
5.903366194896976331e-03,2.616849830790379361e+00,-9.802838022024133124e+00
-2.347316264709042779e-03,2.615812156413760192e+00,-9.795668904895229900e+00
-5.158852937243650974e-03,2.613806189393930168e+00,-9.792687605442090160e+00
1.839763784642071921e-03,2.617090051482557023e+00,-9.787777828700699345e+00
-8.270792082130251285e-03,2.619454704591839267e+00,-9.797949826339701573e+00
2.025842873663369001e-03,2.615917375939395662e+00,-9.794005521122818081e+00
5.512060293893046234e-03,2.610314270527081870e+00,-9.793459942350311920e+00
-1.258970039472052027e-03,2.618854773227788257e+00,-9.796268420993323289e+00
6.987984528666356387e-03,2.621612269445533272e+00,-9.787915704611236833e+00
2.511747196600643689e-03,2.613394766537258551e+00,-9.804249382650734645e+00
7.995346395895967448e-03,2.613816670005941312e+00,-9.809081033683694884e+00
-5.081607740232776255e-03,2.624550887288218615e+00,-9.791763357848150662e+00
-2.246854909750074976e-04,2.610880404490782958e+00,-9.811209420546152415e+00
1.388173464932919996e-03,2.612735949254237244e+00,-9.790698149582174992e+00
-3.020813713015555249e-04,2.621992239303983840e+00,-9.779467176186859234e+00
8.979744628979203364e-03,2.617280870379887325e+00,-9.796134023508836108e+00
7.935070932926811121e-03,2.621517443869660902e+00,-9.779904581302757194e+00
-2.683943582628894940e-04,2.619194409078418939e+00,-9.809579457263881253e+00
2.304121966534313642e-03,2.614731861305803484e+00,-9.797551614652395102e+00
1.607808758470051806e-04,2.622198605498955892e+00,-9.788267217132393228e+00
8.899782586480060442e-04,2.610108102052709267e+00,-9.782098874090351615e+00
-1.164258462491507161e-03,2.621545450348739870e+00,-9.796965082507433920e+00
3.591834774486302260e-03,2.625122556459572376e+00,-9.795558315430806573e+00
-3.828408486623513345e-03,2.612151395215982941e+00,-9.791314736087191051e+00
-1.458286818952258396e-02,2.619162012899065584e+00,-9.800547888097886684e+00
-7.019759306602325541e-04,2.625792007944983464e+00,-9.805646987111510171e+00
-6.470564630267834931e-04,2.618928997233477940e+00,-9.812701263717832134e+00
7.018880146798901071e-03,2.621338404315781911e+00,-9.790900684322989989e+00
9.518741174849514042e-03,2.613113426241140402e+00,-9.783980020731346983e+00
5.867742533432550311e-03,2.615773138432313516e+00,-9.805350751847111468e+00
-1.004639819133262488e-02,2.620148713880950719e+00,-9.804291918098158476e+00
3.906281768325099019e-03,2.615780180880335148e+00,-9.787931975900720616e+00
7.272223723140344882e-03,2.618906437741815196e+00,-9.802788725396304415e+00
6.394079602556685532e-03,2.613510825674324245e+00,-9.793939598797608781e+00
-3.621277160256108733e-03,2.620042835281598759e+00,-9.782931394335417252e+00
-1.033031039494027720e-02,2.618624284769312194e+00,-9.786331319563581488e+00
6.469392699913817033e-04,2.622193392214483332e+00,-9.794208079042522996e+00
6.735818819375686411e-03,2.617580851691354571e+00,-9.805648334713039205e+00
4.659489813690447652e-03,2.619629347806831099e+00,-9.798926420543509153e+00
1.197180028606960496e-03,2.620438482599626528e+00,-9.805395884840928389e+00
-4.270897139641807077e-04,2.615256715358875272e+00,-9.785658570536897471e+00
-5.801969960472195403e-03,2.621374431775025826e+00,-9.789214151732853253e+00
-7.197925009847491729e-03,2.614119823725051361e+00,-9.790118630359957663e+00
4.789896016761809039e-03,2.626647945578715948e+00,-9.786607190357230479e+00
3.370762222685461020e-03,2.622532878563299086e+00,-9.808419176672703799e+00
7.661835354330329487e-03,2.621611264417816223e+00,-9.787007039923350860e+00
1.107420535706510681e-02,2.620919059791867678e+00,-9.779776585827212543e+00
-6.878169092617167357e-03,2.613870914054738481e+00,-9.800124064431068760e+00
-1.064760012356272441e-02,2.625028372346422056e+00,-9.798002154021061116e+00
-4.157008602399853321e-03,2.620753865893635126e+00,-9.795069707444726603e+00
-4.267544729116716290e-04,2.614466107259724836e+00,-9.796791816624649485e+00
2.281632150183757809e-03,2.623518579786444427e+00,-9.795706891780691095e+00
6.034431632138316341e-03,2.618457765212797383e+00,-9.802333984500064545e+00
8.175706276291128463e-03,2.624384322406343895e+00,-9.786998088098746607e+00
5.460418827922434472e-03,2.619391840140551597e+00,-9.797139074992113450e+00
-4.454506720195387272e-03,2.610480148135272405e+00,-9.797623441613703577e+00
-3.451639435789415674e-03,2.621774712686987474e+00,-9.795281281758001057e+00
-9.054849736846751164e-04,2.614089506233188143e+00,-9.789666011038457683e+00
-3.116848359381923714e-03,2.620196165489856899e+00,-9.801390595961018803e+00
8.719175018906606331e-03,2.619018516055537038e+00,-9.808850663351028842e+00
-5.347525219388889108e-04,2.603164352162400164e+00,-9.795008581151325444e+00
-2.135775175303325588e-03,2.614494278124271709e+00,-9.794406861404915787e+00
4.625514009591801153e-03,2.607541762725015477e+00,-9.802238092251382540e+00
-7.116474821359927358e-03,2.614960505363212118e+00,-9.791594034656226242e+00
-6.749670426754544178e-03,2.606631323736342321e+00,-9.800150641178776212e+00
7.229977562943603470e-03,2.623417047471873875e+00,-9.795107969306615203e+00
2.035391905667882379e-03,2.622980122999023500e+00,-9.796892630435991123e+00
5.811734150775024234e-03,2.610896923836475203e+00,-9.796327481924757663e+00
1.973673297971891526e-03,2.614995670916414827e+00,-9.796376096248311072e+00
-3.675142914684276186e-04,2.614782843941819479e+00,-9.807781461244477583e+00
-1.400636024072081159e-03,2.610156934389114447e+00,-9.788145976244317481e+00
2.366351071479715421e-03,2.622194414527943440e+00,-9.799206062452338273e+00
-2.236566004025084681e-03,2.629840966482174469e+00,-9.795014070110546811e+00
-5.730723385063529306e-04,2.613477531317580205e+00,-9.791202378176397048e+00
8.464913088242241113e-04,2.619629224218176233e+00,-9.787073791891886643e+00
7.485612796321593513e-04,2.621383858018844215e+00,-9.790784754786061583e+00
2.910355979818602442e-03,2.627579745735769023e+00,-9.784349051594734448e+00
-7.074307019947712050e-03,2.616680929659651600e+00,-9.799184124141987695e+00
-6.260729897784883362e-03,2.614174819676955863e+00,-9.799098565635931735e+00
2.160097727127288213e-03,2.617582364371057846e+00,-9.777775737714746285e+00
5.860661964323583308e-03,2.616309149833431213e+00,-9.791800202582329860e+00
-1.658928752921607491e-04,2.612297711073662931e+00,-9.795645246180871624e+00
3.031818781976288769e-03,2.616437389859843865e+00,-9.797523781292273526e+00
2.272613896614570500e-03,2.616339674400128157e+00,-9.803044888275650237e+00
-1.533939133182164738e-03,2.623849351231581473e+00,-9.804703173160312701e+00
6.496815292010566303e-03,2.621214155944004087e+00,-9.789326014497854445e+00
-6.250096195103344195e-03,2.623095431357012508e+00,-9.789474088547235553e+00
6.056234515265418623e-04,2.620297914818589646e+00,-9.786381697388980783e+00
-6.277384494380388626e-03,2.615081480174685780e+00,-9.794539874254640566e+00
5.894929291425917393e-03,2.620477007637076472e+00,-9.789868568447481323e+00
-1.236087106126865752e-02,2.616861093203275423e+00,-9.796188295232251875e+00
-6.918342516778340674e-03,2.623019499700171231e+00,-9.788892180921854091e+00
1.218383375291031182e-04,2.622449069754337891e+00,-9.792044174401183909e+00
4.662833485444732931e-03,2.619934862229797101e+00,-9.788748038042767163e+00
1.803694222742482228e-03,2.616525401731512268e+00,-9.781807609011291760e+00
1.446141600607642576e-03,2.618507794353441831e+00,-9.794550866288904700e+00
7.379261653534677570e-03,2.616986553606467591e+00,-9.793497327983271106e+00
1.754554866111983098e-03,2.610203152388312908e+00,-9.806929399173082373e+00
8.250658130461789933e-03,2.613312652313216855e+00,-9.787290535598737407e+00
1.134122839143581656e-03,2.608592709025852496e+00,-9.789502502593188993e+00
6.515537054635251249e-03,2.610313800573965892e+00,-9.792224353853194785e+00
5.463758949776721663e-03,2.618744514604821827e+00,-9.789396075483679738e+00
-2.111200648059368030e-03,2.614341638700390824e+00,-9.788313651362500423e+00
2.965353300749759297e-04,2.614779525341996536e+00,-9.789885153340355473e+00
8.233148672677133642e-03,2.625009052033882462e+00,-9.786186164459371284e+00
-3.111282815988728346e-03,2.619855357944045338e+00,-9.795693907443041581e+00
7.864026394799333505e-03,2.629101866237594010e+00,-9.798102363802135173e+00
3.909042318288532408e-03,2.622273078184775397e+00,-9.798748767300082818e+00
-1.009341413763493707e-03,2.611153171736578571e+00,-9.793576591525575026e+00
-5.428292760679690604e-03,2.611611139194589981e+00,-9.790388279929089776e+00
1.079799965638323679e-02,2.621532414443328296e+00,-9.804120669965110224e+00
4.589863005417237421e-03,2.612574249121918601e+00,-9.782741658455581302e+00
-2.973597117254331811e-03,2.623672316969198892e+00,-9.792928509945308946e+00
-2.898496800654989328e-04,2.612932215056966267e+00,-9.789724351429754279e+00
-1.746908058660952105e-03,2.611973738150839441e+00,-9.796460414753509482e+00
-7.096343649942107694e-03,2.611268527301122688e+00,-9.797677016364877645e+00
6.999332734016419297e-03,2.614183300689432610e+00,-9.814488836342542655e+00
-5.122299354146122446e-03,2.615662561143166531e+00,-9.789024600831496059e+00
1.931125632468402419e-03,2.619449645573692198e+00,-9.802823786488666258e+00
-6.174881353548639269e-03,2.615631214669531523e+00,-9.781668044400014139e+00
2.400199132848342945e-05,2.614331712579996303e+00,-9.801513342979664145e+00
-2.097425120625263668e-03,2.606509347940370258e+00,-9.791735674501774511e+00
-9.630855737355005844e-03,2.612261808024249454e+00,-9.797954364242967173e+00
7.216805075834836422e-03,2.612908866706881827e+00,-9.805617005006952880e+00
6.836851417543836004e-03,2.619566124033625432e+00,-9.802713417256923023e+00
6.034068363457927020e-03,2.616614705057592083e+00,-9.794886193644924077e+00
-4.649178865753610660e-05,2.618956201603693579e+00,-9.795246029951234945e+00
3.799545298278110203e-04,2.625319786703083746e+00,-9.797623152209217423e+00
-3.992426005001320846e-03,2.614538179185533107e+00,-9.812291294202308833e+00
-1.860624710968083627e-03,2.612939498115701475e+00,-9.799877028964029790e+00
-3.653281539262865675e-03,2.615222555810018168e+00,-9.791962144917837563e+00
5.690098528687679777e-03,2.610858250764818589e+00,-9.793693208185565879e+00
5.245554564157676666e-03,2.614962448444770438e+00,-9.796895896211147203e+00
7.315608589055518259e-03,2.615334859433888770e+00,-9.794550968004863023e+00
-9.497816788774713151e-03,2.612197433026507198e+00,-9.805319028539301485e+00
-8.895469702985739748e-04,2.618473963394606141e+00,-9.791624672619974490e+00
1.672954432955645011e-03,2.607250873013223558e+00,-9.784011225953802793e+00
1.532193624073374411e-03,2.627355013895822378e+00,-9.799255556986029347e+00
1.869225869720407638e-03,2.615113738511626984e+00,-9.794415178804451116e+00
-4.907515767133788231e-03,2.611856571243996950e+00,-9.778151253670268161e+00
-1.087128023819609835e-03,2.619598656142681836e+00,-9.796112677304385841e+00
1.748436550103416942e-03,2.617377576199318323e+00,-9.798099396594253108e+00
-4.867864865455550499e-03,2.624027470522551919e+00,-9.800043289450421469e+00
-3.110705981058304540e-03,2.617224967976499173e+00,-9.794358827133223144e+00
-1.086972889736576887e-02,2.622038788544298171e+00,-9.773607886934017941e+00
7.957715119027800391e-03,2.611446470067062986e+00,-9.807464538987600733e+00
-2.128297881079589410e-03,2.613556880177637431e+00,-9.801295486038178240e+00
5.191189460763107055e-03,2.627495145746537641e+00,-9.792911086575980306e+00
-2.716780377843684962e-03,2.614683966229307099e+00,-9.799691314029619349e+00
-2.965524998323451449e-03,2.617159922421297580e+00,-9.803168243423749928e+00
-5.050551685280938244e-03,2.620045674307918571e+00,-9.798641394843542685e+00
-8.307078663703957103e-03,2.614850344347459110e+00,-9.805515966780276926e+00
-6.699855498583121190e-03,2.613985256698702742e+00,-9.795381681100106874e+00
1.642709249829785124e-03,2.606613774823567820e+00,-9.796284773883266794e+00
-2.609700965904010374e-03,2.610187758199149055e+00,-9.790011650593811510e+00
4.563511801024914064e-03,2.610912963884933546e+00,-9.797151594198666658e+00
4.204953252019287373e-03,2.618781091653858084e+00,-9.798597004859338711e+00
7.251797463959233159e-04,2.623946207621934867e+00,-9.795164075732825992e+00
-7.353949683742340773e-03,2.609710760502720106e+00,-9.795450464626364706e+00
8.516717835436086667e-03,2.613067164362373518e+00,-9.781032453969761065e+00
2.055852944113967500e-03,2.620894374290320794e+00,-9.806719925831911766e+00
-1.507280744349381342e-03,2.615036624508114471e+00,-9.797122112531214455e+00
7.860508799309688308e-03,2.621506821697852097e+00,-9.798165588844378604e+00
-3.026584830800299348e-03,2.619566307389459503e+00,-9.799777673958901758e+00
-3.997889557711287872e-03,2.627444982596106371e+00,-9.792857880026694772e+00
-9.324149811265529039e-03,2.622335130779220869e+00,-9.788829813179772188e+00
5.152924036596175442e-03,2.621077189290401677e+00,-9.794536240852668385e+00
3.782605930646103232e-03,2.611347445518109378e+00,-9.809028270799911908e+00
-4.023159093737598197e-04,2.622170112959003596e+00,-9.790354278791880915e+00
2.610504791199891230e-03,2.614917371390117928e+00,-9.787415301636928078e+00
9.750531968073530842e-03,2.619719788818444695e+00,-9.812709912135078483e+00
-6.162510430233220093e-03,2.624501486766344982e+00,-9.805658243210167768e+00
-4.620898965091360146e-03,2.621042387800326168e+00,-9.790510548344695252e+00
3.835770041971995389e-03,2.618778456653722220e+00,-9.800622889694210471e+00
4.154737890132324980e-03,2.619255755458505419e+00,-9.792441278880907873e+00
-3.088415254137138587e-03,2.609852044696892914e+00,-9.777221843294853443e+00
3.041289980030882373e-03,2.619801498273551577e+00,-9.814462211380279300e+00
6.791535785874534305e-03,2.626556671602786164e+00,-9.796433673538592402e+00
4.155622972843083310e-03,2.622295610695038359e+00,-9.805961372133936038e+00
-2.636310759486879419e-03,2.611926094982025326e+00,-9.796053090255799844e+00
-9.949599774739322985e-03,2.629081177419418491e+00,-9.794788918380827880e+00
4.707251384361513073e-03,2.621653311057414282e+00,-9.801614116517418651e+00
4.284103119375087007e-04,2.616527444825483606e+00,-9.795783893154951016e+00
-3.918746678245302664e-03,2.622347970893923463e+00,-9.798797423969622500e+00
9.851840492180723857e-03,2.615619929853150616e+00,-9.783446574563662068e+00
6.138777978507162442e-04,2.621492797394714191e+00,-9.803831706517765809e+00
-2.333432953739764983e-03,2.620423160534471663e+00,-9.811708571303277893e+00
-3.048510016833809889e-03,2.615925374700886152e+00,-9.798686002504634729e+00
-3.545875829485519749e-03,2.614524895571662455e+00,-9.786258687103730480e+00
2.757024845889284028e-04,2.612183328563578044e+00,-9.807230380199447595e+00
6.689602418037544906e-03,2.615198001949563977e+00,-9.793953551136381108e+00
1.091848037180871527e-02,2.615764252072626306e+00,-9.793418191212763801e+00
1.447781753078679259e-03,2.624367818428750443e+00,-9.787058172195969519e+00
-2.362365282967645360e-03,2.625182992017494499e+00,-9.799569743017785939e+00
-8.047568835342189253e-03,2.619917165241096413e+00,-9.787588308753647937e+00
-7.037889146200787885e-03,2.619405174808421055e+00,-9.807289311149082423e+00
1.023612662096947280e-03,2.614565452234274279e+00,-9.786486196744958121e+00
-4.536058520035847648e-03,2.625795704109166184e+00,-9.799137906851568047e+00
-3.414680430429024253e-03,2.616240747722756055e+00,-9.785322948663726095e+00
-1.788904212533315614e-03,2.607531359401757953e+00,-9.797231358674947543e+00
2.195056576879600863e-03,2.617196124268456714e+00,-9.801368842453662467e+00
1.364137724505529647e-03,2.620879864706550766e+00,-9.785605730184537165e+00
-3.143371800617548225e-03,2.613839374575290364e+00,-9.794059939806027515e+00
1.002053172726458802e-02,2.620871361256248644e+00,-9.782687302558798592e+00
3.021353444210007379e-03,2.606668176903409240e+00,-9.789104088099019663e+00
-3.942757596124161286e-04,2.620170070837408272e+00,-9.791214749786457006e+00
2.481667946590593136e-03,2.626865320868051690e+00,-9.791800431445656372e+00
-9.553614250546156941e-03,2.613097702917832166e+00,-9.805054380399084835e+00
-1.060741938407601436e-03,2.616087495778197436e+00,-9.786725755145257111e+00
-3.704656711056426160e-03,2.619640311844986691e+00,-9.802156940675622820e+00
9.829653253102407784e-03,2.624105089998219675e+00,-9.799337015248180904e+00
-5.185815960732035462e-03,2.618535448571055912e+00,-9.787970022474867804e+00
-7.874068759930313030e-04,2.622062334519179139e+00,-9.791298156703767575e+00
1.877127359842973263e-03,2.622841676698914881e+00,-9.786423411704749498e+00
1.195122738272103892e-02,2.614426542926266972e+00,-9.787258787181967179e+00
-6.056046647496711455e-03,2.621642727926587479e+00,-9.803589733969751308e+00
-4.393227978776926244e-03,2.615814509864619719e+00,-9.792942163658731047e+00
8.791811079560953382e-03,2.614885616532657053e+00,-9.788611497776351200e+00
1.509764173302140028e-03,2.627269879720965484e+00,-9.788179325298393962e+00
-6.929991114516864670e-03,2.620222807804161391e+00,-9.779327503300820013e+00
-1.481331739829751075e-03,2.614200782823528968e+00,-9.799987676360114364e+00
9.013266671642709144e-03,2.619387942446420148e+00,-9.789299559394498473e+00
-3.286964910588891908e-03,2.616596727489073348e+00,-9.785736334742198395e+00
2.431888699630686389e-03,2.621316556576601897e+00,-9.792608888395564648e+00
1.231954311146438164e-02,2.612034738182284155e+00,-9.788632262422154895e+00
7.581599720390260963e-03,2.621363605810201225e+00,-9.793126844613402326e+00
5.065821651575552927e-03,2.611535397600790454e+00,-9.786697579374180833e+00
-3.535784576188469915e-03,2.616697082126012930e+00,-9.791644351497510002e+00
8.269634008596283073e-03,2.615247071557294856e+00,-9.804711860723388739e+00
-1.075769327781861059e-02,2.624429342687036204e+00,-9.797013842767707814e+00
4.634583565192182397e-03,2.620937748049462002e+00,-9.789336090782388311e+00
-2.574925612498420190e-04,2.616347149854591603e+00,-9.800210456162394834e+00
2.131833049490583151e-03,2.618651619651994444e+00,-9.789096836173076355e+00
-2.714020316332966046e-03,2.613182318021383566e+00,-9.795841457664201002e+00
-2.331421502439079679e-03,2.614671753454141268e+00,-9.797464891571500800e+00
6.233840642964194947e-03,2.615970277755564233e+00,-9.799908965716394249e+00
2.221928098400148890e-03,2.611255545935657008e+00,-9.798178197452124039e+00
2.052610122505174692e-03,2.624029643265076039e+00,-9.811791261708865619e+00
7.547166238690015787e-03,2.619737496785762954e+00,-9.791980795610683685e+00
8.976984085016483789e-03,2.607080176271734828e+00,-9.787978222016308294e+00
5.298364888851610872e-04,2.628506251067468824e+00,-9.804844580452877878e+00
-1.575321480473667061e-04,2.623508554591625241e+00,-9.796960475470671170e+00
-4.515311716773332679e-03,2.620695779408060755e+00,-9.790105615484199220e+00
-3.366681495826646942e-03,2.616842208339849485e+00,-9.789503043005559846e+00
8.504853462858923217e-05,2.615736567581918415e+00,-9.789584505757197519e+00
6.263651901520590239e-03,2.617415014142252527e+00,-9.791903235435741593e+00
7.528679054326519772e-03,2.610175288965637552e+00,-9.790476896176995680e+00
-5.932301822251804906e-03,2.625480638510854003e+00,-9.788486388977187147e+00
-2.698774320020971666e-03,2.628578956717438686e+00,-9.793544915247716531e+00
-2.859772497051744390e-03,2.624040471287587550e+00,-9.792861258682492576e+00
-2.756529647109686766e-03,2.608010353718046570e+00,-9.791612720940980452e+00
-8.757201115259881765e-05,2.611120034006428003e+00,-9.785076638572252961e+00
-6.156513463887092544e-03,2.620372179534230295e+00,-9.804233151884831798e+00
1.061699804499668769e-02,2.616107528649962433e+00,-9.789012349844913530e+00
-7.180139179666734928e-03,2.613357625687038333e+00,-9.791338099618657864e+00
5.010129183265803893e-03,2.615211090549888873e+00,-9.801272269761899025e+00
4.052955996370441460e-03,2.618668413886522384e+00,-9.809316044726932304e+00
6.863901242464383150e-03,2.614327887237022363e+00,-9.787148499375152966e+00
3.234826076246784818e-04,2.614125934917750804e+00,-9.799738681706637422e+00
2.415315333399451619e-03,2.619238352353656651e+00,-9.797994759079054816e+00
7.779078962666013779e-03,2.623730271848442985e+00,-9.797784926403279471e+00
1.139752755809439076e-03,2.612059678345977520e+00,-9.801499300735297737e+00
3.253699365743802519e-03,2.608863207359711556e+00,-9.797645233719729063e+00
6.311746094856880186e-03,2.617526390825418048e+00,-9.799870226483442082e+00
-9.401200212203931691e-03,2.615641725364369563e+00,-9.784365306138930407e+00
-5.779989213304207764e-03,2.614794171138980605e+00,-9.808173587323549825e+00
5.429828797995751334e-03,2.616479926122329047e+00,-9.793632351050836959e+00
1.175646773586900944e-02,2.624921041316565340e+00,-9.786592982674090280e+00
-6.183660537726529648e-04,2.614710190816983637e+00,-9.788804530944830162e+00
-4.931742747319077524e-03,2.621699793166424541e+00,-9.807027893065200175e+00
3.020866365109662645e-03,2.628189389724224778e+00,-9.789195071809398740e+00
-4.576046759867392379e-03,2.620636416282004166e+00,-9.803563592234855406e+00
4.705460784541764738e-03,2.615692324783366551e+00,-9.795316719092113544e+00
4.923715043968994627e-03,2.618757372629442859e+00,-9.799238366511238141e+00
-2.535997337761775484e-03,2.620844664802365553e+00,-9.797652031502529724e+00
4.209367525531052152e-03,2.616356497156602678e+00,-9.790726179706757293e+00
-8.732803888332465667e-03,2.623615074102227940e+00,-9.793692208760479190e+00
5.596115834983129977e-03,2.615111098114478061e+00,-9.794352795293411518e+00
5.288803919507320019e-03,2.608437263559897357e+00,-9.802506368974420070e+00
-1.233121448787719877e-03,2.610242162021247481e+00,-9.787026986181521337e+00
-4.715068993391474325e-03,2.625687034093363348e+00,-9.803089560656209400e+00
3.867071161779351337e-03,2.614826045205237648e+00,-9.804539655137652687e+00
6.019560558363183135e-03,2.623886888392037431e+00,-9.792845469918320944e+00
2.436832161081820512e-03,2.628837911361767699e+00,-9.780408856321185951e+00
-2.513460560612223223e-03,2.613293565130138774e+00,-9.794325209521618447e+00
9.914420806618425876e-04,2.622549832972568495e+00,-9.785119137418073265e+00
5.984913183056421926e-04,2.620362607122623366e+00,-9.787084011400553507e+00
6.392315716677767455e-03,2.618209926030587553e+00,-9.791848357980535766e+00
-7.175051848810462887e-03,2.610512243878890359e+00,-9.789095574336572625e+00
-1.463044675772198332e-03,2.617763974063125776e+00,-9.805741869040526026e+00
3.625466717568940397e-03,2.617605844775969359e+00,-9.808284992280993819e+00
3.175865286400961045e-03,2.613348200389482123e+00,-9.799795408265707053e+00
-1.946282984110974269e-03,2.618655546867122652e+00,-9.795871088055712050e+00
6.068779437138609872e-03,2.357630570707859086e+00,-9.795738076665601923e+00
-6.317941547177304863e-03,2.120263750320932505e+00,-9.810400302795896366e+00
1.288013876627403442e-04,1.911570599281541050e+00,-9.799425518418752645e+00
-2.385491544785832332e-03,1.713823094961825833e+00,-9.793895403152255597e+00
-1.980672248218442923e-03,1.555623544921491241e+00,-9.789598688268030813e+00
-9.264891657212071148e-04,1.391708168770801946e+00,-9.789163117204918052e+00
3.698088033126005827e-03,1.255729040006650532e+00,-9.780786870134114963e+00
3.013843355226533888e-05,1.131895452022361859e+00,-9.803634330659315665e+00
6.589554872923712552e-03,1.012141496397326090e+00,-9.781197820826347922e+00
-9.548466067098184242e-04,9.161065536684334099e-01,-9.791001774648675493e+00
-5.957354434068301910e-03,8.162098810510665103e-01,-9.802769728838242713e+00
5.724181001010540670e-04,7.442893803003461928e-01,-9.792373714779040839e+00
8.630890380463348763e-03,6.703893661284711092e-01,-9.800954697686238504e+00
8.736348027940673763e-03,6.010260601569143990e-01,-9.800119673589653857e+00
1.282285201467430933e-04,5.416821458125805622e-01,-9.800296839016359840e+00
-1.821848429422499990e-03,4.785229808379246608e-01,-9.804348279544038647e+00
2.351810294683059389e-03,4.385283759329646758e-01,-9.789480607991837502e+00
-4.025872471843771304e-03,3.869403182696818377e-01,-9.781676830960741142e+00
7.698873331094317936e-03,3.559435051022667995e-01,-9.803460759926203139e+00
1.132280420021490076e-03,3.228585126634125890e-01,-9.799957582313306048e+00
9.154555692448717490e-04,2.870427947574645811e-01,-9.802471653237331495e+00
-6.647209786422660777e-03,2.522531163851686187e-01,-9.793119364165345786e+00
6.208132415619966281e-03,2.399470959875923404e-01,-9.797764903094796196e+00
-1.805408432673721603e-03,2.210090312079777408e-01,-9.807882468018744859e+00
-4.356478790129984444e-03,1.922762360625483724e-01,-9.802655296710243604e+00
-9.031721716537847652e-03,1.787862850618034960e-01,-9.804009694510620321e+00
-2.634851872155657710e-03,1.556832150304243989e-01,-9.788567917730372159e+00
7.549180567849906752e-05,1.393304023081596010e-01,-9.794380660146702056e+00
7.141893996643972065e-03,1.237091603552048363e-01,-9.799193715493258239e+00
3.323462852742364252e-03,1.029109495578611755e-01,-9.790841705387457239e+00
4.638383349637866665e-03,1.046191670255392780e-01,-9.797761430307902586e+00
9.803694853276392202e-03,8.746937440667806873e-02,-9.772936618960208932e+00
-4.237722149682398610e-03,8.200493018201328310e-02,-9.795739988442310420e+00
-4.865160680103450437e-03,6.595666985011194861e-02,-9.780033958572630581e+00
-3.162651787921022094e-03,6.118544326259264116e-02,-9.795517874635853772e+00
4.715924551312439955e-03,6.138150937432829829e-02,-9.791336649119035229e+00
1.299176076823996143e-03,5.140731906707897425e-02,-9.792619049213424631e+00
-5.344848225839279486e-04,5.564010969784715516e-02,-9.798430897343031631e+00
3.287996812387625548e-03,4.606798515741557243e-02,-9.780539140623524474e+00
-1.431231284507211666e-03,3.061666631428262841e-02,-9.804223345557046443e+00
5.700093326589713433e-04,3.918010806740857693e-02,-9.786587307119919643e+00
6.411784277659877311e-04,3.479500495504286167e-02,-9.800640921302099073e+00
-1.049794702197304024e-02,3.882435778932395720e-02,-9.805993887477432835e+00
2.817985007914993595e-03,2.279019285595144245e-02,-9.790200681149594075e+00
-6.979331646915581076e-03,1.566526523831191994e-02,-9.800917804001853639e+00
-5.176945053386392166e-03,1.684804862040541890e-02,-9.805779400342487406e+00
9.565082595790455958e-03,2.043780849159352112e-02,-9.798018290968521171e+00
2.382688559227760881e-03,1.359555835363995477e-02,-9.792879121217447747e+00
6.290306638697751654e-03,1.792257398468743643e-02,-9.794915041307763914e+00
-3.150417925988527584e-03,8.694520465445816290e-03,-9.800369225745274804e+00
-2.087844337163036364e-03,1.668327136133337940e-03,-9.793945585634164175e+00
1.013487694206425399e-03,7.079479624246445835e-03,-9.793048094780544943e+00
2.538998239241174824e-03,1.193067536886447018e-02,-9.802864239564661020e+00
3.855666462584359053e-03,1.215931914747990158e-02,-9.779917252507621228e+00
-5.257969594004268873e-03,-5.834097435255640451e-04,-9.789243953468441006e+00
-6.106370885059714607e-04,4.003492509830869350e-03,-9.803533806298386111e+00
4.483234017474690102e-03,-5.612118033417768694e-03,-9.801202217305647224e+00
1.182914900649765675e-03,5.326222059287347849e-03,-9.801930207079713853e+00
-2.985148184109802025e-04,1.481382859604315344e-02,-9.789269859407017549e+00
-4.947455435841635260e-03,9.900449414426092803e-03,-9.798786278375676062e+00
4.486364302897564299e-03,3.091413534653264690e-03,-9.799463695931835971e+00
5.950102455385961660e-04,8.715098179671323941e-03,-9.793725130781838928e+00
-3.173459378873379720e-03,4.018212261586147013e-03,-9.808129679314664173e+00
2.009082263058689123e-03,2.614612858331592099e-03,-9.808605616270938299e+00
-3.308691439162547796e-03,3.459249574249865719e-03,-9.809495979121011899e+00
9.549002473176343170e-04,2.299290682741794364e-03,-9.792683575207028923e+00
4.491893024609638387e-03,1.009819191529566160e-02,-9.801272839596178343e+00
7.909969331334582368e-03,7.756490352307802288e-03,-9.783936728207690336e+00
-5.963236733946891341e-03,-1.929068345239243806e-03,-9.796576174999549025e+00
7.915080723045262237e-03,1.463567185340136070e-03,-9.793448841122497583e+00
1.662147740652000988e-03,-1.449458564363166266e-02,-9.792476915547581484e+00
5.445571193449812337e-03,-1.260817853755499254e-03,-9.793863638025040785e+00
4.484359344563417990e-03,4.407382023918821404e-03,-9.781537052578730851e+00
-5.847400708561689350e-03,1.116303829394735096e-03,-9.784389005745961043e+00
-1.187473811355805979e-03,-2.348926910634566330e-03,-9.800671791321073911e+00
-1.255900032707038365e-03,2.830232423738073943e-03,-9.810020402536045125e+00
4.816007148942938465e-03,4.889638998711216995e-03,-9.800402000518495527e+00
-8.175496644670597049e-04,3.632084666624913524e-03,-9.789645606666663724e+00
-4.382616938621397389e-03,-9.676410003707775279e-03,-9.774661936618137759e+00
-4.093765126750577993e-03,2.316083056186557174e-03,-9.796370153247332624e+00
-2.570636766471999859e-03,-9.256399668681915618e-03,-9.778616630964322098e+00
2.595519849399890392e-03,4.171985221584781356e-03,-9.782544684864594942e+00
-6.379014948796920062e-03,1.778660635584812478e-03,-9.784368756725511318e+00
-1.203772542247197753e-03,2.969639041268769264e-03,-9.806120771169300809e+00
6.127562347049089579e-03,-1.877452869790657841e-03,-9.812301014406283883e+00
1.685309938351962173e-03,1.059961928514109933e-02,-9.799508589876293030e+00
-4.915294487714196026e-03,3.480699403677469782e-03,-9.792594158927903081e+00
4.990699385799021552e-03,-1.348320443224208277e-05,-9.789647511617607378e+00
3.219778400710054510e-03,2.216563758529608002e-03,-9.803536726977727156e+00
1.779935788594489473e-03,-5.687865628116954564e-03,-9.806280714560163148e+00
-4.057265121223411954e-04,-1.240065376471666822e-03,-9.798006366839130621e+00
-2.093914941198959153e-03,-3.687525723544225059e-03,-9.787463663121709345e+00
5.844003383560625493e-03,-3.280637918088480983e-03,-9.792213922231317369e+00
8.003828375801094394e-03,4.291814335142278211e-04,-9.787735533764090334e+00
-1.231285981318770532e-04,1.242521613069252169e-03,-9.787750101582117779e+00
1.235967207861055767e-03,-8.463317183602628475e-04,-9.783460831509579236e+00
-8.386237727100089717e-03,-1.478665858270041184e-04,-9.803966241169817408e+00
2.796970144381702526e-03,-1.101818646512311853e-03,-9.793246449056065117e+00
2.175598531830521837e-03,-6.106606130447065142e-03,-9.799177085360028627e+00
-9.403476301277149951e-03,-6.290129007483044772e-04,-9.795236488403142872e+00
-3.780453334990423447e-03,-1.800192180906899425e-03,-9.806037802457529651e+00
7.297837539126994510e-03,6.310076201763690357e-03,-9.793297590068080538e+00
1.132291740140626418e-03,-5.453083509462088030e-03,-9.798888660021875197e+00
-1.135747018107757106e-02,-8.467932494790688519e-03,-9.799797281211089839e+00
-3.615752575793870337e-03,7.792568310864003093e-04,-9.786103869218083062e+00
3.982514030485563550e-04,9.394153070844154900e-04,-9.797168832899467716e+00
4.436319469504238638e-03,3.467353562810428962e-04,-9.801208479504584403e+00
4.283336774739433632e-03,2.156394036746818541e-03,-9.780233977681298541e+00
-6.865509587531158165e-04,-1.481277731523460975e-03,-9.802840367598617988e+00
-6.908946625599540065e-03,-5.081089698014393252e-03,-9.784852629714547945e+00
-1.136975874050036306e-02,2.176565308346806518e-03,-9.785294469137513218e+00
9.069674373052971986e-03,-1.022140951539430784e-02,-9.796924912734956692e+00
3.842636609784599085e-03,-8.024420207836795507e-03,-9.792279505054459321e+00
-5.231248840710196746e-03,4.024520699621225717e-03,-9.793079897704195957e+00
-3.310737966436982753e-03,-7.197354727830140115e-04,-9.795289140025987606e+00
-9.161322958086151602e-03,-1.642323594371595565e-03,-9.803872923894060065e+00
5.683086694173822111e-03,1.063603124783587097e-03,-9.785601182359437544e+00
6.848995950085389785e-03,-6.134836637310243056e-04,-9.798784315054200889e+00
-8.140239895103226417e-03,-4.906600326510668873e-03,-9.794347550825921900e+00
1.098920694018155420e-03,-6.840462167970485022e-03,-9.792890475667443084e+00
9.158401563628180628e-03,6.967407366080035323e-03,-9.802151865105473760e+00
-1.835014731924488945e-03,7.526888771183177021e-03,-9.796841416490215337e+00
3.266571900784804184e-03,-2.016464341725851593e-04,-9.793628514258063689e+00
-1.969642627502109916e-03,2.122879802252407885e-04,-9.781230377787009544e+00
-3.946757834796942900e-03,-5.712043803047038570e-03,-9.786729267042838742e+00
1.058265224611151150e-03,5.780731240632478677e-04,-9.801891778448158732e+00
-4.737613527053680974e-03,8.274648081095508246e-04,-9.799755978355797481e+00
6.520700971252165433e-03,1.872309562507145850e-03,-9.795336104226047169e+00
-3.878479543465804258e-03,2.519977311825548089e-03,-9.802280294496242163e+00
2.792943240887016919e-03,-4.734688655458007232e-03,-9.798917236365353389e+00
5.394852137387142789e-03,-1.761926560898183615e-04,-9.798175584586362064e+00
-3.191294900197102959e-03,-4.219580688647119916e-03,-9.790605974082211560e+00
5.493541345853298480e-03,6.624969994029923995e-03,-9.811061389274524203e+00
1.401403636800601900e-03,-8.203979467095726596e-04,-9.793090324849240247e+00
-1.154718241489888567e-02,1.115747279446748777e-03,-9.796748366339214087e+00
1.982326279123272639e-03,4.048407806214290167e-03,-9.793039880728530377e+00
1.486063006734214889e-03,4.368059740943716629e-03,-9.806234976999272490e+00
4.072417134961908887e-03,1.223576730604382856e-03,-9.793016049208766560e+00
-1.670975182675989244e-03,-9.880657447904251170e-03,-9.810077731002261103e+00
3.594247672370422426e-03,6.070117455969972591e-03,-9.792986418110157132e+00
-8.499933115997984970e-03,-3.345692920205860232e-03,-9.801768967157428847e+00
4.661650117487501320e-03,2.672383734039860542e-03,-9.784520615180808178e+00
-2.500278023489461120e-03,6.033075006906627336e-04,-9.795083794386366449e+00
-1.232538293043889321e-03,3.623394011210290776e-03,-9.791009997484175997e+00
4.213946453633368922e-04,-4.899400235424412539e-03,-9.782923897474745445e+00
-2.316967122231983287e-03,-1.396618571497479843e-03,-9.791163225387736091e+00
2.031358546661042857e-03,5.986875712981308550e-03,-9.801043154531640766e+00
-1.311738220966486221e-03,-4.319911250932302778e-03,-9.793206784280256372e+00
6.473899968521880724e-03,2.374301514557343451e-03,-9.795443170168221414e+00
-1.360005174111999626e-03,4.470009275485144727e-03,-9.786866660482179014e+00
-4.710746801904849845e-03,4.546286291455039000e-03,-9.789061939112993826e+00
2.918926206880216156e-03,-2.547414603778309049e-03,-9.791376221455308837e+00
4.381390207157057765e-03,-3.893328066518751598e-03,-9.793272782947717303e+00
3.199511583719448146e-03,3.286202176271775174e-03,-9.788441341041231425e+00
-6.896637511270521312e-04,7.398372675372089265e-03,-9.784858786202104142e+00
6.576452759189463024e-03,7.242777339857859459e-03,-9.794582298720708735e+00
7.888009327981651900e-04,-1.353625718211715371e-03,-9.801356396936471427e+00
-3.246458148633924855e-03,5.118129102243508706e-03,-9.805576614190444573e+00
-6.431247901232075258e-03,-6.518042164712573375e-03,-9.794727623783947124e+00
3.965252027870644867e-04,5.585221762979932295e-03,-9.802722097728068462e+00
-3.050016935423735011e-03,3.796371236578734674e-03,-9.803386045556230499e+00
-3.150439370745892857e-03,-1.742989897468293385e-03,-9.802462254173798684e+00
4.292949634045035989e-03,8.998016794358421012e-04,-9.792977995418643999e+00
-5.880438362818870635e-04,6.197631396570153772e-03,-9.789642183112469809e+00
2.411890653243820449e-03,1.832849461032046200e-03,-9.791972274095066098e+00
1.060224239439499063e-03,5.207719421602472962e-03,-9.795110182265476695e+00
3.791376628448481570e-03,-2.159860982102401565e-03,-9.803382494873941866e+00
-3.350391277631410789e-03,-9.914522066220760044e-03,-9.791608814860140342e+00
9.652603344598883442e-05,-2.361360679157935034e-03,-9.795765055980968583e+00
1.008026041356065508e-02,1.104226697598659560e-02,-9.787134360149345014e+00
-1.205154134032670327e-02,-9.663092053803144094e-03,-9.802381164962628901e+00
-6.114387917275267668e-03,-1.312349224320548229e-04,-9.800444584536174730e+00
-3.456600440979178731e-03,-4.931426654821188631e-03,-9.801631367512412041e+00
1.687589015445372601e-03,5.246883568495066055e-03,-9.805420346197573522e+00
2.824064227073920259e-03,1.994134445323870065e-03,-9.797180384596202884e+00
-1.824588600487536249e-03,3.437147785684478186e-03,-9.791166091821320805e+00
-5.373440679752382147e-03,-5.974701265662327003e-03,-9.783391241975108343e+00
-2.686949855921358637e-03,-9.569895864493317347e-03,-9.791303433441061799e+00
4.298638415609855150e-03,1.685341178140674226e-03,-9.799541293409689047e+00
-4.499366411238822812e-03,-4.388659758927451748e-03,-9.796350365418094341e+00
-9.286708607936525195e-03,5.776319410030902705e-03,-9.782520979700640495e+00
-5.258301631498026561e-03,6.984535625128606047e-03,-9.803302112686468561e+00
7.366063380187793525e-03,-8.768244496554193287e-03,-9.805519557564540634e+00
1.740837703502765444e-03,3.192225087077923355e-04,-9.789756128009871716e+00
-2.507951635671119492e-05,-8.094405319744332403e-03,-9.779990466167102880e+00
-2.801132483092691732e-03,3.680982449208114460e-03,-9.796972752939247187e+00
6.251705863009360785e-03,2.185134169441251808e-04,-9.801520006430985532e+00
1.349047142173022142e-05,-4.455639282595538937e-03,-9.802334424179688810e+00
6.469719982833612749e-03,3.428462619063204087e-03,-9.787352251877184273e+00
-7.975168953680644365e-03,6.556677979116854772e-04,-9.798163294259600420e+00
3.494719403899866975e-03,1.023587116897630963e-03,-9.792952927266959762e+00
4.187293542745418838e-03,-4.065866881422293237e-03,-9.787766297332739285e+00
-5.580438879940268718e-04,4.741454876101247086e-03,-9.786463516754675851e+00
-4.689249814049593727e-03,6.868498444062675744e-04,-9.792240746195012946e+00
8.619309166378978648e-03,2.256539622111845226e-03,-9.785922032204926069e+00
6.761002662862457095e-03,-7.442067256047707469e-03,-9.798762365238577132e+00
6.470556487402742002e-03,1.619857604484683166e-03,-9.806071694287894047e+00
3.504714031416806142e-03,-3.238759344255705015e-03,-9.797731025135124838e+00
5.475310633003026457e-03,3.720333400524539463e-03,-9.787819227004879608e+00
-1.741509349090693010e-03,5.134125240269307722e-03,-9.798921167522394171e+00
2.246691656812652323e-03,5.942204333799012061e-04,-9.799350766057926876e+00
-1.843181555782265639e-03,3.213612625663583681e-03,-9.796103513079707170e+00
-7.338290096247777894e-03,-3.021774187611842369e-03,-9.797432677354407815e+00
-2.811604032261656120e-03,-1.466481488715803017e-03,-9.802161059672481969e+00
2.074733607244449649e-03,4.536244404523255102e-04,-9.800431429072379075e+00
9.280757945356946093e-04,-2.686341583866475643e-04,-9.793530244066866786e+00
5.873534345402726085e-03,2.134960335129316208e-03,-9.808812633929068880e+00
1.523893993591054173e-03,4.972324542768248069e-03,-9.792951407929367136e+00
5.868133619823697779e-03,-4.407962967082078992e-03,-9.801021790052617533e+00
-2.849751921397968533e-03,-5.016912235511362256e-03,-9.781123603850971904e+00
-9.516566547235461547e-04,4.009510552610235984e-04,-9.793200360811228578e+00
-3.262220999250818512e-03,6.007298697760315997e-03,-9.794584043086253189e+00
1.192997601336129657e-02,-1.224422462902018290e-02,-9.771246974276749597e+00
-2.280218356390974546e-03,-1.525769406307425239e-05,-9.799988371828703748e+00
5.507999399136145544e-03,6.678863032016829127e-05,-9.785830261995144497e+00
-9.558789730911117916e-03,-8.113119853409606237e-04,-9.792876973567311794e+00
-2.217674610922359729e-04,2.006817469769008131e-03,-9.809389712527119443e+00
-9.388008118198032728e-03,-1.337530801870156832e-03,-9.791309141124862947e+00
-5.083621942541926425e-03,1.724424025717270336e-03,-9.796673061288450057e+00
1.792405086548702403e-03,1.099146806614498088e-02,-9.799170231106948847e+00
1.566816707621262756e-04,-6.492672094069481918e-03,-9.791872939950147625e+00
-2.716330563716260176e-03,-7.159062879158252166e-03,-9.795960053834329884e+00
-1.545719138689615867e-03,-1.830706221607300522e-03,-9.787634190306706117e+00
1.229033219103329092e-02,1.060835558029440788e-02,-9.799668047223327960e+00
-1.881411629565520743e-03,1.540668048576535835e-03,-9.791198972409894452e+00
4.785168624343649063e-03,9.945614381789585380e-04,-9.800410559815112777e+00
4.120387804578202334e-03,-3.045042160174862931e-03,-9.797045992258487601e+00
3.674417122943325793e-03,3.788788183523037010e-03,-9.805774158607299285e+00
1.322275723562439925e-03,-4.804671571553586519e-03,-9.789375505156048263e+00
-4.014046565493344272e-03,5.492824353565526133e-03,-9.786487895948942750e+00
4.904092352915445218e-04,2.655330554841607137e-03,-9.794734487513951038e+00
-2.512594677796649908e-03,3.868667985415692734e-03,-9.790817351374240474e+00
-9.476893914852298206e-03,-1.249800622129870753e-03,-9.796821905812620912e+00
-3.554120694859391836e-03,7.092052510366860484e-03,-9.788261797223926308e+00
-2.371232719969721455e-03,1.134778088022975542e-03,-9.805237557128869241e+00
-1.504559401844027602e-03,4.660974137345717284e-05,-9.784650848054155858e+00
-3.112863274528007967e-03,6.235653741098174004e-03,-9.786616671515886878e+00
-9.276927335323431265e-03,3.031513218102618000e-03,-9.792601160273939342e+00
-4.424361861907361590e-04,-9.324123122201743649e-03,-9.785120701016907674e+00
1.043380576686752520e-02,-3.157940069538903421e-03,-9.787066436201330433e+00
6.848974511195183267e-04,-6.357227006010214912e-03,-9.804081988510995771e+00
-1.533699402078222973e-02,3.217955783088551134e-04,-9.800295905966139642e+00
9.049440426304149057e-04,-5.467332395306604819e-04,-9.809071916479174646e+00
3.450154713113914471e-04,7.844974495313105853e-03,-9.807556741475814022e+00
2.827387743174836991e-03,-3.137041410275139518e-03,-9.810818670345316406e+00
2.766753525882180084e-03,-1.455620980339529091e-03,-9.793646132899514356e+00
-5.896840783742742995e-03,-5.152681204198029247e-03,-9.784383431812685217e+00
-4.692567240903930403e-03,4.769311619451546518e-03,-9.796117944519581400e+00
5.571252150423446764e-03,-6.856325238342265982e-03,-9.805830866473879581e+00
3.684343998053604685e-03,2.164040744673206233e-03,-9.793994697095177671e+00
5.350874748326530771e-04,1.841863912810106588e-03,-9.788625745977197923e+00
4.009972353571087007e-03,7.981199801373111552e-03,-9.793073802953578877e+00
-5.377218016586294419e-03,3.340936415384801721e-03,-9.802325053805631683e+00
-1.262041876100619339e-03,-6.162518677192137945e-03,-9.792285674136760321e+00
-7.969363980331465452e-03,-4.736474380580220182e-03,-9.794245497142567203e+00
3.353855668103267792e-03,-6.533037306724135893e-03,-9.791063746461581729e+00
-3.484942427017953970e-03,-2.673001341133680268e-03,-9.779438609782467040e+00
3.907470602636154214e-03,-6.338617071289454541e-04,-9.803984124608552619e+00
-2.851804343232446689e-03,1.425945264580400201e-03,-9.807567004950303868e+00
8.302740281818394436e-03,-1.593841274803849519e-03,-9.787884772462563276e+00
-3.726287768748916956e-03,-2.078681023366288453e-05,-9.802078394757824498e+00
-1.484292986543357326e-03,-4.853161852939840218e-03,-9.802210800702276572e+00
-2.735638003701609854e-04,3.630332467609201797e-03,-9.784724980480788759e+00
1.994655454291882884e-03,4.396203558969822255e-03,-9.791411756093060248e+00
-3.449367484421277889e-03,-2.009189346824490768e-03,-9.794376060364458070e+00
6.556265518171998721e-04,-5.157951255157118553e-03,-9.791012857230818156e+00
-1.192332042122037786e-03,9.340321878451206261e-03,-9.796537236225550060e+00
-5.132988353568535347e-03,4.658913136503567767e-03,-9.804661812095387674e+00
2.772409835054898911e-03,4.286072145798438572e-03,-9.796726342112057395e+00
1.045584356769323903e-02,-3.871304880832700506e-03,-9.807946669841275167e+00
4.625182224889510911e-03,3.125290084169356133e-03,-9.784602405914990086e+00
9.478340594927260263e-03,6.493454081195541676e-03,-9.796623488191762874e+00
-6.763612495003043339e-03,1.008096503322037036e-03,-9.796269493924995686e+00
7.958204305402347915e-04,-3.225623878169987628e-04,-9.807149301886118664e+00
-5.078393531162756630e-03,-7.676063453498369396e-03,-9.802839843837540812e+00
-5.235734214347334721e-03,-3.046812914903241254e-04,-9.786559050033394769e+00
8.072122490037351994e-03,-1.068773629066839016e-02,-9.796265638427126277e+00
1.010755421933045087e-02,-7.004932680432717287e-03,-9.781339801455411376e+00
4.027645032021283898e-03,-6.746511617358027721e-03,-9.795914844985354364e+00
3.807381483845431909e-03,2.827037027688632763e-03,-9.799109194840832870e+00
-3.903546922788137929e-04,-7.470599574248075166e-04,-9.797369737891125752e+00
-6.893929105403565245e-03,4.780431061166096410e-03,-9.778185572545506687e+00
-4.799417538444263401e-03,2.879814392334738554e-03,-9.785674888262869686e+00
1.405908994790045245e-03,6.062038116550151103e-03,-9.793849103956311808e+00
-9.249194186413681933e-05,-7.211212904524863694e-03,-9.794656439799831915e+00
7.430123077773164927e-03,6.005270566909713670e-03,-9.792611014393509450e+00
-2.532424214997420174e-03,2.522368478531225588e-03,-9.785156483745653944e+00
-7.436440776552081210e-03,-1.043162546833647250e-04,-9.798076483177190710e+00
9.052139721165374225e-04,2.367158155533394335e-04,-9.795210674542703444e+00
-5.749297060091907580e-03,-4.333348482446185970e-04,-9.789954689042321689e+00
-5.457242333853685318e-03,6.786025219194399827e-03,-9.793212557801858509e+00
-4.896330867790407194e-03,-1.695802988101081151e-03,-9.799245296469155875e+00
9.235231642252235765e-03,7.186328101847733012e-03,-9.791135728544245964e+00
2.528834766523914857e-03,1.806083356832700968e-03,-9.790471613200395495e+00
4.976635011648038523e-03,-2.387123870978293504e-03,-9.792518983604770355e+00
3.004018541930310315e-03,-8.937718598314253705e-05,-9.792501378140265444e+00
3.496324399009841533e-03,-3.936655514703326676e-03,-9.792581686370885663e+00
-5.286859172209115113e-04,2.057273262768851525e-05,-9.803073783300281008e+00
-4.152921449886135680e-03,9.905568136226298483e-04,-9.795523882418562422e+00
5.353003098132158273e-04,-1.103930512612781578e-03,-9.795208571706199407e+00
